instruct_resp_simon.keys,instruct_resp_simon.corr,instruct_resp_simon.rt,trial_resp_simon.keys,trial_resp_simon.corr,trial_resp_simon.rt,kerr,target_onset,target_color,target_pos,target_file,target_resp,trials_train_simon.thisRepN,trials_train_simon.thisTrialN,trials_train_simon.thisN,trials_train_simon.thisIndex,trials_train_simon.ran,odd_target_pos,even_target_pos,odd_target_resp,odd_target_file,even_target_file,even_target_resp,odd_target_side,even_target_side,participant,date,expName,psychopyVersion,OS,frameRate,train_block_note_resp.keys,train_block_note_resp.rt,blocks_train.thisRepN,blocks_train.thisTrialN,blocks_train.thisN,blocks_train.thisIndex,blocks_train.ran,instruct_resp_timing.keys,instruct_resp_timing.corr,instruct_resp_timing.rt,trial_resp_timing.keys,trial_resp_timing.rt,trials_train_timing.thisRepN,trials_train_timing.thisTrialN,trials_train_timing.thisN,trials_train_timing.thisIndex,trials_train_timing.ran,instruct_resp.keys,instruct_resp.corr,instruct_resp.rt,trial_resp.keys,trial_resp.corr,trial_resp.rt,trial_num,too_slow,too_soon,trials.thisRepN,trials.thisTrialN,trials.thisN,trials.thisIndex,trials.ran,block_note_resp.keys,block_note_resp.rt,blocks.thisRepN,blocks.thisTrialN,blocks.thisN,blocks.thisIndex,blocks.ran
space,0,57.3101,left,1,2.3276,0,0.97385545,#a3d0fb,"[""0.25"",""0""]",left_blue.png,left,0,0,0,3,1,,,left,left_blue.png,down_orange.png,down,right,up,55abb1a5fdf99b501fab62e3,2021-09-11_17h36.16.181,arrow_simon_vert,2021.1.2,Win32,59.95203837,,,,,,,,,,,,,,,,,,,,,,,,,,,,,,,,,,,,,,
,,,up,1,1.6412,0,0.393714284,#f3af84,"[""0"",""0.25""]",up_orange.png,up,0,1,1,1,1,,,right,right_blue.png,up_orange.png,up,right,up,55abb1a5fdf99b501fab62e3,2021-09-11_17h36.16.181,arrow_simon_vert,2021.1.2,Win32,59.95203837,,,,,,,,,,,,,,,,,,,,,,,,,,,,,,,,,,,,,,
,,,left,1,1.2368,0,0.280917097,#a3d0fb,"[""0.25"",""0""]",left_blue.png,left,0,2,2,3,1,,,left,left_blue.png,down_orange.png,down,right,up,55abb1a5fdf99b501fab62e3,2021-09-11_17h36.16.181,arrow_simon_vert,2021.1.2,Win32,59.95203837,,,,,,,,,,,,,,,,,,,,,,,,,,,,,,,,,,,,,,
,,,down,1,1.8648,0,0.869554271,#f3af84,"[""0"",""-0.25""]",down_orange.png,down,0,3,3,2,1,,,left,left_blue.png,down_orange.png,down,left,down,55abb1a5fdf99b501fab62e3,2021-09-11_17h36.16.181,arrow_simon_vert,2021.1.2,Win32,59.95203837,,,,,,,,,,,,,,,,,,,,,,,,,,,,,,,,,,,,,,
,,,right,1,1.3786,0,0.20553912,#a3d0fb,"[""0.25"",""0""]",right_blue.png,right,1,0,4,1,1,,,right,right_blue.png,up_orange.png,up,right,up,55abb1a5fdf99b501fab62e3,2021-09-11_17h36.16.181,arrow_simon_vert,2021.1.2,Win32,59.95203837,,,,,,,,,,,,,,,,,,,,,,,,,,,,,,,,,,,,,,
,,,down,1,1.9036,0,0.823859764,#f3af84,"[""0"",""0.25""]",down_orange.png,down,1,1,5,3,1,,,left,left_blue.png,down_orange.png,down,right,up,55abb1a5fdf99b501fab62e3,2021-09-11_17h36.16.181,arrow_simon_vert,2021.1.2,Win32,59.95203837,,,,,,,,,,,,,,,,,,,,,,,,,,,,,,,,,,,,,,
,,,right,1,0.9414,0,0.205680571,#a3d0fb,"[""0.25"",""0""]",right_blue.png,right,1,2,6,1,1,,,right,right_blue.png,up_orange.png,up,right,up,55abb1a5fdf99b501fab62e3,2021-09-11_17h36.16.181,arrow_simon_vert,2021.1.2,Win32,59.95203837,,,,,,,,,,,,,,,,,,,,,,,,,,,,,,,,,,,,,,
,,,up,1,1.665,0,0.592405508,#f3af84,"[""0"",""-0.25""]",up_orange.png,up,1,3,7,0,1,,,right,right_blue.png,up_orange.png,up,left,down,55abb1a5fdf99b501fab62e3,2021-09-11_17h36.16.181,arrow_simon_vert,2021.1.2,Win32,59.95203837,,,,,,,,,,,,,,,,,,,,,,,,,,,,,,,,,,,,,,
,,,right,1,0.8842,0,0.119745534,#a3d0fb,"[""0.25"",""0""]",right_blue.png,right,2,0,8,1,1,,,right,right_blue.png,up_orange.png,up,right,up,55abb1a5fdf99b501fab62e3,2021-09-11_17h36.16.181,arrow_simon_vert,2021.1.2,Win32,59.95203837,,,,,,,,,,,,,,,,,,,,,,,,,,,,,,,,,,,,,,
,,,down,1,1.0632,0,0.201980534,#f3af84,"[""0"",""0.25""]",down_orange.png,down,2,1,9,3,1,,,left,left_blue.png,down_orange.png,down,right,up,55abb1a5fdf99b501fab62e3,2021-09-11_17h36.16.181,arrow_simon_vert,2021.1.2,Win32,59.95203837,,,,,,,,,,,,,,,,,,,,,,,,,,,,,,,,,,,,,,
,,,left,1,1.517,0,0.457803991,#a3d0fb,"[""-0.25"",""0""]",left_blue.png,left,2,2,10,2,1,,,left,left_blue.png,down_orange.png,down,left,down,55abb1a5fdf99b501fab62e3,2021-09-11_17h36.16.181,arrow_simon_vert,2021.1.2,Win32,59.95203837,,,,,,,,,,,,,,,,,,,,,,,,,,,,,,,,,,,,,,
,,,up,1,1.8694,0,0.517742172,#f3af84,"[""0"",""-0.25""]",up_orange.png,up,2,3,11,0,1,,,right,right_blue.png,up_orange.png,up,left,down,55abb1a5fdf99b501fab62e3,2021-09-11_17h36.16.181,arrow_simon_vert,2021.1.2,Win32,59.95203837,,,,,,,,,,,,,,,,,,,,,,,,,,,,,,,,,,,,,,
,,,right,1,1.5122,0,0.652054914,#a3d0fb,"[""-0.25"",""0""]",right_blue.png,right,3,0,12,0,1,,,right,right_blue.png,up_orange.png,up,left,down,55abb1a5fdf99b501fab62e3,2021-09-11_17h36.16.181,arrow_simon_vert,2021.1.2,Win32,59.95203837,,,,,,,,,,,,,,,,,,,,,,,,,,,,,,,,,,,,,,
,,,down,1,0.997,0,0.289716778,#f3af84,"[""0"",""0.25""]",down_orange.png,down,3,1,13,3,1,,,left,left_blue.png,down_orange.png,down,right,up,55abb1a5fdf99b501fab62e3,2021-09-11_17h36.16.181,arrow_simon_vert,2021.1.2,Win32,59.95203837,,,,,,,,,,,,,,,,,,,,,,,,,,,,,,,,,,,,,,
,,,right,1,1.3293,0,0.614503564,#a3d0fb,"[""-0.25"",""0""]",right_blue.png,right,3,2,14,0,1,,,right,right_blue.png,up_orange.png,up,left,down,55abb1a5fdf99b501fab62e3,2021-09-11_17h36.16.181,arrow_simon_vert,2021.1.2,Win32,59.95203837,,,,,,,,,,,,,,,,,,,,,,,,,,,,,,,,,,,,,,
,,,down,1,1.1166,0,0.213339142,#f3af84,"[""0"",""0.25""]",down_orange.png,down,3,3,15,3,1,,,left,left_blue.png,down_orange.png,down,right,up,55abb1a5fdf99b501fab62e3,2021-09-11_17h36.16.181,arrow_simon_vert,2021.1.2,Win32,59.95203837,,,,,,,,,,,,,,,,,,,,,,,,,,,,,,,,,,,,,,
,,,right,1,1.3899,0,0.861025844,#a3d0fb,"[""0.25"",""0""]",right_blue.png,right,4,0,16,1,1,,,right,right_blue.png,up_orange.png,up,right,up,55abb1a5fdf99b501fab62e3,2021-09-11_17h36.16.181,arrow_simon_vert,2021.1.2,Win32,59.95203837,,,,,,,,,,,,,,,,,,,,,,,,,,,,,,,,,,,,,,
,,,up,1,1.2227,0,0.56584506,#f3af84,"[""0"",""-0.25""]",up_orange.png,up,4,1,17,0,1,,,right,right_blue.png,up_orange.png,up,left,down,55abb1a5fdf99b501fab62e3,2021-09-11_17h36.16.181,arrow_simon_vert,2021.1.2,Win32,59.95203837,,,,,,,,,,,,,,,,,,,,,,,,,,,,,,,,,,,,,,
,,,left,1,1.2841,0,0.609007213,#a3d0fb,"[""-0.25"",""0""]",left_blue.png,left,4,2,18,2,1,,,left,left_blue.png,down_orange.png,down,left,down,55abb1a5fdf99b501fab62e3,2021-09-11_17h36.16.181,arrow_simon_vert,2021.1.2,Win32,59.95203837,,,,,,,,,,,,,,,,,,,,,,,,,,,,,,,,,,,,,,
,,,up,1,1.4653,0,0.661438377,#f3af84,"[""0"",""0.25""]",up_orange.png,up,4,3,19,1,1,,,right,right_blue.png,up_orange.png,up,right,up,55abb1a5fdf99b501fab62e3,2021-09-11_17h36.16.181,arrow_simon_vert,2021.1.2,Win32,59.95203837,,,,,,,,,,,,,,,,,,,,,,,,,,,,,,,,,,,,,,
,,,left,1,1.062,0,0.394544974,#a3d0fb,"[""-0.25"",""0""]",left_blue.png,left,5,0,20,2,1,,,left,left_blue.png,down_orange.png,down,left,down,55abb1a5fdf99b501fab62e3,2021-09-11_17h36.16.181,arrow_simon_vert,2021.1.2,Win32,59.95203837,,,,,,,,,,,,,,,,,,,,,,,,,,,,,,,,,,,,,,
,,,down,1,1.6022,0,0.894922413,#f3af84,"[""0"",""0.25""]",down_orange.png,down,5,1,21,3,1,,,left,left_blue.png,down_orange.png,down,right,up,55abb1a5fdf99b501fab62e3,2021-09-11_17h36.16.181,arrow_simon_vert,2021.1.2,Win32,59.95203837,,,,,,,,,,,,,,,,,,,,,,,,,,,,,,,,,,,,,,
,,,right,1,1.0302,0,0.365378959,#a3d0fb,"[""0.25"",""0""]",right_blue.png,right,5,2,22,1,1,,,right,right_blue.png,up_orange.png,up,right,up,55abb1a5fdf99b501fab62e3,2021-09-11_17h36.16.181,arrow_simon_vert,2021.1.2,Win32,59.95203837,,,,,,,,,,,,,,,,,,,,,,,,,,,,,,,,,,,,,,
,,,down,1,1.1138,0,0.622783833,#f3af84,"[""0"",""-0.25""]",down_orange.png,down,5,3,23,2,1,,,left,left_blue.png,down_orange.png,down,left,down,55abb1a5fdf99b501fab62e3,2021-09-11_17h36.16.181,arrow_simon_vert,2021.1.2,Win32,59.95203837,,,,,,,,,,,,,,,,,,,,,,,,,,,,,,,,,,,,,,
,,,left,1,0.8466,0,0.13882623,#a3d0fb,"[""-0.25"",""0""]",left_blue.png,left,6,0,24,2,1,,,left,left_blue.png,down_orange.png,down,left,down,55abb1a5fdf99b501fab62e3,2021-09-11_17h36.16.181,arrow_simon_vert,2021.1.2,Win32,59.95203837,,,,,,,,,,,,,,,,,,,,,,,,,,,,,,,,,,,,,,
,,,up,1,1.5129,0,0.713754414,#f3af84,"[""0"",""-0.25""]",up_orange.png,up,6,1,25,0,1,,,right,right_blue.png,up_orange.png,up,left,down,55abb1a5fdf99b501fab62e3,2021-09-11_17h36.16.181,arrow_simon_vert,2021.1.2,Win32,59.95203837,,,,,,,,,,,,,,,,,,,,,,,,,,,,,,,,,,,,,,
,,,right,1,2.2983,0,0.705279105,#a3d0fb,"[""-0.25"",""0""]",right_blue.png,right,6,2,26,0,1,,,right,right_blue.png,up_orange.png,up,left,down,55abb1a5fdf99b501fab62e3,2021-09-11_17h36.16.181,arrow_simon_vert,2021.1.2,Win32,59.95203837,,,,,,,,,,,,,,,,,,,,,,,,,,,,,,,,,,,,,,
,,,up,1,1.5023,0,0.301720425,#f3af84,"[""0"",""-0.25""]",up_orange.png,up,6,3,27,0,1,,,right,right_blue.png,up_orange.png,up,left,down,55abb1a5fdf99b501fab62e3,2021-09-11_17h36.16.181,arrow_simon_vert,2021.1.2,Win32,59.95203837,,,,,,,,,,,,,,,,,,,,,,,,,,,,,,,,,,,,,,
,,,right,1,1.3831,0,0.715010563,#a3d0fb,"[""0.25"",""0""]",right_blue.png,right,7,0,28,1,1,,,right,right_blue.png,up_orange.png,up,right,up,55abb1a5fdf99b501fab62e3,2021-09-11_17h36.16.181,arrow_simon_vert,2021.1.2,Win32,59.95203837,,,,,,,,,,,,,,,,,,,,,,,,,,,,,,,,,,,,,,
,,,down,1,1.1368,0,0.088660808,#f3af84,"[""0"",""-0.25""]",down_orange.png,down,7,1,29,2,1,,,left,left_blue.png,down_orange.png,down,left,down,55abb1a5fdf99b501fab62e3,2021-09-11_17h36.16.181,arrow_simon_vert,2021.1.2,Win32,59.95203837,,,,,,,,,,,,,,,,,,,,,,,,,,,,,,,,,,,,,,
,,,right,1,1.8875,0,0.543223919,#a3d0fb,"[""0.25"",""0""]",right_blue.png,right,7,2,30,1,1,,,right,right_blue.png,up_orange.png,up,right,up,55abb1a5fdf99b501fab62e3,2021-09-11_17h36.16.181,arrow_simon_vert,2021.1.2,Win32,59.95203837,,,,,,,,,,,,,,,,,,,,,,,,,,,,,,,,,,,,,,
,,,down,1,1.7639,0,0.804255801,#f3af84,"[""0"",""-0.25""]",down_orange.png,down,7,3,31,2,1,,,left,left_blue.png,down_orange.png,down,left,down,55abb1a5fdf99b501fab62e3,2021-09-11_17h36.16.181,arrow_simon_vert,2021.1.2,Win32,59.95203837,,,,,,,,,,,,,,,,,,,,,,,,,,,,,,,,,,,,,,
,,,right,1,1.3705,0,0.30049001,#a3d0fb,"[""-0.25"",""0""]",right_blue.png,right,8,0,32,0,1,,,right,right_blue.png,up_orange.png,up,left,down,55abb1a5fdf99b501fab62e3,2021-09-11_17h36.16.181,arrow_simon_vert,2021.1.2,Win32,59.95203837,,,,,,,,,,,,,,,,,,,,,,,,,,,,,,,,,,,,,,
,,,down,1,1.2185,0,0.301702503,#f3af84,"[""0"",""0.25""]",down_orange.png,down,8,1,33,3,1,,,left,left_blue.png,down_orange.png,down,right,up,55abb1a5fdf99b501fab62e3,2021-09-11_17h36.16.181,arrow_simon_vert,2021.1.2,Win32,59.95203837,,,,,,,,,,,,,,,,,,,,,,,,,,,,,,,,,,,,,,
,,,left,1,1.2183,0,0.122877807,#a3d0fb,"[""-0.25"",""0""]",left_blue.png,left,8,2,34,2,1,,,left,left_blue.png,down_orange.png,down,left,down,55abb1a5fdf99b501fab62e3,2021-09-11_17h36.16.181,arrow_simon_vert,2021.1.2,Win32,59.95203837,,,,,,,,,,,,,,,,,,,,,,,,,,,,,,,,,,,,,,
,,,up,1,1.8885,0,0.460758169,#f3af84,"[""0"",""-0.25""]",up_orange.png,up,8,3,35,0,1,,,right,right_blue.png,up_orange.png,up,left,down,55abb1a5fdf99b501fab62e3,2021-09-11_17h36.16.181,arrow_simon_vert,2021.1.2,Win32,59.95203837,,,,,,,,,,,,,,,,,,,,,,,,,,,,,,,,,,,,,,
,,,right,1,1.3571,0,0.118668422,#a3d0fb,"[""0.25"",""0""]",right_blue.png,right,9,0,36,1,1,,,right,right_blue.png,up_orange.png,up,right,up,55abb1a5fdf99b501fab62e3,2021-09-11_17h36.16.181,arrow_simon_vert,2021.1.2,Win32,59.95203837,,,,,,,,,,,,,,,,,,,,,,,,,,,,,,,,,,,,,,
,,,up,1,1.3786,0,0.202182567,#f3af84,"[""0"",""0.25""]",up_orange.png,up,9,1,37,1,1,,,right,right_blue.png,up_orange.png,up,right,up,55abb1a5fdf99b501fab62e3,2021-09-11_17h36.16.181,arrow_simon_vert,2021.1.2,Win32,59.95203837,,,,,,,,,,,,,,,,,,,,,,,,,,,,,,,,,,,,,,
,,,left,1,1.8077,0,0.724939726,#a3d0fb,"[""-0.25"",""0""]",left_blue.png,left,9,2,38,2,1,,,left,left_blue.png,down_orange.png,down,left,down,55abb1a5fdf99b501fab62e3,2021-09-11_17h36.16.181,arrow_simon_vert,2021.1.2,Win32,59.95203837,,,,,,,,,,,,,,,,,,,,,,,,,,,,,,,,,,,,,,
,,,up,1,1.77,0,0.691358833,#f3af84,"[""0"",""-0.25""]",up_orange.png,up,9,3,39,0,1,,,right,right_blue.png,up_orange.png,up,left,down,55abb1a5fdf99b501fab62e3,2021-09-11_17h36.16.181,arrow_simon_vert,2021.1.2,Win32,59.95203837,,,,,,,,,,,,,,,,,,,,,,,,,,,,,,,,,,,,,,
,,,right,1,0.8812,0,0.195793386,#a3d0fb,"[""0.25"",""0""]",right_blue.png,right,10,0,40,1,1,,,right,right_blue.png,up_orange.png,up,right,up,55abb1a5fdf99b501fab62e3,2021-09-11_17h36.16.181,arrow_simon_vert,2021.1.2,Win32,59.95203837,,,,,,,,,,,,,,,,,,,,,,,,,,,,,,,,,,,,,,
,,,up,1,1.5668,0,0.128773446,#f3af84,"[""0"",""-0.25""]",up_orange.png,up,10,1,41,0,1,,,right,right_blue.png,up_orange.png,up,left,down,55abb1a5fdf99b501fab62e3,2021-09-11_17h36.16.181,arrow_simon_vert,2021.1.2,Win32,59.95203837,,,,,,,,,,,,,,,,,,,,,,,,,,,,,,,,,,,,,,
,,,left,1,1.364,0,0.07795636,#a3d0fb,"[""0.25"",""0""]",left_blue.png,left,10,2,42,3,1,,,left,left_blue.png,down_orange.png,down,right,up,55abb1a5fdf99b501fab62e3,2021-09-11_17h36.16.181,arrow_simon_vert,2021.1.2,Win32,59.95203837,,,,,,,,,,,,,,,,,,,,,,,,,,,,,,,,,,,,,,
,,,down,1,1.3837,0,0.071672404,#f3af84,"[""0"",""0.25""]",down_orange.png,down,10,3,43,3,1,,,left,left_blue.png,down_orange.png,down,right,up,55abb1a5fdf99b501fab62e3,2021-09-11_17h36.16.181,arrow_simon_vert,2021.1.2,Win32,59.95203837,,,,,,,,,,,,,,,,,,,,,,,,,,,,,,,,,,,,,,
,,,left,1,1.7411,0,0.978223302,#a3d0fb,"[""0.25"",""0""]",left_blue.png,left,11,0,44,3,1,,,left,left_blue.png,down_orange.png,down,right,up,55abb1a5fdf99b501fab62e3,2021-09-11_17h36.16.181,arrow_simon_vert,2021.1.2,Win32,59.95203837,,,,,,,,,,,,,,,,,,,,,,,,,,,,,,,,,,,,,,
,,,up,1,1.5666,0,0.170618746,#f3af84,"[""0"",""-0.25""]",up_orange.png,up,11,1,45,0,1,,,right,right_blue.png,up_orange.png,up,left,down,55abb1a5fdf99b501fab62e3,2021-09-11_17h36.16.181,arrow_simon_vert,2021.1.2,Win32,59.95203837,,,,,,,,,,,,,,,,,,,,,,,,,,,,,,,,,,,,,,
,,,left,1,1.3694,0,0.342733119,#a3d0fb,"[""0.25"",""0""]",left_blue.png,left,11,2,46,3,1,,,left,left_blue.png,down_orange.png,down,right,up,55abb1a5fdf99b501fab62e3,2021-09-11_17h36.16.181,arrow_simon_vert,2021.1.2,Win32,59.95203837,,,,,,,,,,,,,,,,,,,,,,,,,,,,,,,,,,,,,,
,,,down,1,1.7931,0,0.937414362,#f3af84,"[""0"",""-0.25""]",down_orange.png,down,11,3,47,2,1,,,left,left_blue.png,down_orange.png,down,left,down,55abb1a5fdf99b501fab62e3,2021-09-11_17h36.16.181,arrow_simon_vert,2021.1.2,Win32,59.95203837,,,,,,,,,,,,,,,,,,,,,,,,,,,,,,,,,,,,,,
,,,right,1,1.5357,0,0.496135965,#a3d0fb,"[""-0.25"",""0""]",right_blue.png,right,12,0,48,0,1,,,right,right_blue.png,up_orange.png,up,left,down,55abb1a5fdf99b501fab62e3,2021-09-11_17h36.16.181,arrow_simon_vert,2021.1.2,Win32,59.95203837,,,,,,,,,,,,,,,,,,,,,,,,,,,,,,,,,,,,,,
,,,down,1,1.0146,0,0.362365356,#f3af84,"[""0"",""-0.25""]",down_orange.png,down,12,1,49,2,1,,,left,left_blue.png,down_orange.png,down,left,down,55abb1a5fdf99b501fab62e3,2021-09-11_17h36.16.181,arrow_simon_vert,2021.1.2,Win32,59.95203837,,,,,,,,,,,,,,,,,,,,,,,,,,,,,,,,,,,,,,
,,,right,1,1.7159,0,0.830854907,#a3d0fb,"[""0.25"",""0""]",right_blue.png,right,12,2,50,1,1,,,right,right_blue.png,up_orange.png,up,right,up,55abb1a5fdf99b501fab62e3,2021-09-11_17h36.16.181,arrow_simon_vert,2021.1.2,Win32,59.95203837,,,,,,,,,,,,,,,,,,,,,,,,,,,,,,,,,,,,,,
,,,up,1,1.4609,0,0.362586215,#f3af84,"[""0"",""-0.25""]",up_orange.png,up,12,3,51,0,1,,,right,right_blue.png,up_orange.png,up,left,down,55abb1a5fdf99b501fab62e3,2021-09-11_17h36.16.181,arrow_simon_vert,2021.1.2,Win32,59.95203837,,,,,,,,,,,,,,,,,,,,,,,,,,,,,,,,,,,,,,
,,,left,1,2.0023,0,0.910589016,#a3d0fb,"[""0.25"",""0""]",left_blue.png,left,13,0,52,3,1,,,left,left_blue.png,down_orange.png,down,right,up,55abb1a5fdf99b501fab62e3,2021-09-11_17h36.16.181,arrow_simon_vert,2021.1.2,Win32,59.95203837,,,,,,,,,,,,,,,,,,,,,,,,,,,,,,,,,,,,,,
,,,down,1,1.1097,0,0.30032769,#f3af84,"[""0"",""-0.25""]",down_orange.png,down,13,1,53,2,1,,,left,left_blue.png,down_orange.png,down,left,down,55abb1a5fdf99b501fab62e3,2021-09-11_17h36.16.181,arrow_simon_vert,2021.1.2,Win32,59.95203837,,,,,,,,,,,,,,,,,,,,,,,,,,,,,,,,,,,,,,
,,,left,1,0.7377,0,0.089413203,#a3d0fb,"[""-0.25"",""0""]",left_blue.png,left,13,2,54,2,1,,,left,left_blue.png,down_orange.png,down,left,down,55abb1a5fdf99b501fab62e3,2021-09-11_17h36.16.181,arrow_simon_vert,2021.1.2,Win32,59.95203837,,,,,,,,,,,,,,,,,,,,,,,,,,,,,,,,,,,,,,
,,,up,1,1.5829,0,0.687104079,#f3af84,"[""0"",""0.25""]",up_orange.png,up,13,3,55,1,1,,,right,right_blue.png,up_orange.png,up,right,up,55abb1a5fdf99b501fab62e3,2021-09-11_17h36.16.181,arrow_simon_vert,2021.1.2,Win32,59.95203837,,,,,,,,,,,,,,,,,,,,,,,,,,,,,,,,,,,,,,
,,,left,1,1.0536,0,0.282593001,#a3d0fb,"[""0.25"",""0""]",left_blue.png,left,14,0,56,3,1,,,left,left_blue.png,down_orange.png,down,right,up,55abb1a5fdf99b501fab62e3,2021-09-11_17h36.16.181,arrow_simon_vert,2021.1.2,Win32,59.95203837,,,,,,,,,,,,,,,,,,,,,,,,,,,,,,,,,,,,,,
,,,down,1,1.1995,0,0.22875498,#f3af84,"[""0"",""0.25""]",down_orange.png,down,14,1,57,3,1,,,left,left_blue.png,down_orange.png,down,right,up,55abb1a5fdf99b501fab62e3,2021-09-11_17h36.16.181,arrow_simon_vert,2021.1.2,Win32,59.95203837,,,,,,,,,,,,,,,,,,,,,,,,,,,,,,,,,,,,,,
,,,right,1,1.1983,0,0.064418772,#a3d0fb,"[""0.25"",""0""]",right_blue.png,right,14,2,58,1,1,,,right,right_blue.png,up_orange.png,up,right,up,55abb1a5fdf99b501fab62e3,2021-09-11_17h36.16.181,arrow_simon_vert,2021.1.2,Win32,59.95203837,,,,,,,,,,,,,,,,,,,,,,,,,,,,,,,,,,,,,,
,,,down,1,1.3908,0,0.672717767,#f3af84,"[""0"",""-0.25""]",down_orange.png,down,14,3,59,2,1,,,left,left_blue.png,down_orange.png,down,left,down,55abb1a5fdf99b501fab62e3,2021-09-11_17h36.16.181,arrow_simon_vert,2021.1.2,Win32,59.95203837,,,,,,,,,,,,,,,,,,,,,,,,,,,,,,,,,,,,,,
,,,,,,,,,,,,,,,,,,,,,,,,,55abb1a5fdf99b501fab62e3,2021-09-11_17h36.16.181,arrow_simon_vert,2021.1.2,Win32,59.95203837,space,17.1967,0,0,0,0,1,,,,,,,,,,,,,,,,,,,,,,,,,,,,,,,
,,,right,1,1.6218,0,0.08136626,#a3d0fb,"[""0.25"",""0""]",right_blue.png,right,0,0,0,1,1,,,right,right_blue.png,up_orange.png,up,right,up,55abb1a5fdf99b501fab62e3,2021-09-11_17h36.16.181,arrow_simon_vert,2021.1.2,Win32,59.95203837,,,,,,,,,,,,,,,,,,,,,,,,,,,,,,,,,,,,,,
,,,down,1,1.3214,0,0.349231942,#f3af84,"[""0"",""0.25""]",down_orange.png,down,0,1,1,3,1,,,left,left_blue.png,down_orange.png,down,right,up,55abb1a5fdf99b501fab62e3,2021-09-11_17h36.16.181,arrow_simon_vert,2021.1.2,Win32,59.95203837,,,,,,,,,,,,,,,,,,,,,,,,,,,,,,,,,,,,,,
,,,right,1,2.0331,0,0.974260304,#a3d0fb,"[""0.25"",""0""]",right_blue.png,right,0,2,2,1,1,,,right,right_blue.png,up_orange.png,up,right,up,55abb1a5fdf99b501fab62e3,2021-09-11_17h36.16.181,arrow_simon_vert,2021.1.2,Win32,59.95203837,,,,,,,,,,,,,,,,,,,,,,,,,,,,,,,,,,,,,,
,,,down,1,1.4923,0,0.697470833,#f3af84,"[""0"",""-0.25""]",down_orange.png,down,0,3,3,2,1,,,left,left_blue.png,down_orange.png,down,left,down,55abb1a5fdf99b501fab62e3,2021-09-11_17h36.16.181,arrow_simon_vert,2021.1.2,Win32,59.95203837,,,,,,,,,,,,,,,,,,,,,,,,,,,,,,,,,,,,,,
,,,left,1,1.4168,0,0.494139401,#a3d0fb,"[""-0.25"",""0""]",left_blue.png,left,1,0,4,2,1,,,left,left_blue.png,down_orange.png,down,left,down,55abb1a5fdf99b501fab62e3,2021-09-11_17h36.16.181,arrow_simon_vert,2021.1.2,Win32,59.95203837,,,,,,,,,,,,,,,,,,,,,,,,,,,,,,,,,,,,,,
,,,up,1,1.6353,0,0.459334039,#f3af84,"[""0"",""-0.25""]",up_orange.png,up,1,1,5,0,1,,,right,right_blue.png,up_orange.png,up,left,down,55abb1a5fdf99b501fab62e3,2021-09-11_17h36.16.181,arrow_simon_vert,2021.1.2,Win32,59.95203837,,,,,,,,,,,,,,,,,,,,,,,,,,,,,,,,,,,,,,
,,,right,1,1.8855,0,0.876905501,#a3d0fb,"[""-0.25"",""0""]",right_blue.png,right,1,2,6,0,1,,,right,right_blue.png,up_orange.png,up,left,down,55abb1a5fdf99b501fab62e3,2021-09-11_17h36.16.181,arrow_simon_vert,2021.1.2,Win32,59.95203837,,,,,,,,,,,,,,,,,,,,,,,,,,,,,,,,,,,,,,
,,,up,1,1.5811,0,0.205741754,#f3af84,"[""0"",""0.25""]",up_orange.png,up,1,3,7,1,1,,,right,right_blue.png,up_orange.png,up,right,up,55abb1a5fdf99b501fab62e3,2021-09-11_17h36.16.181,arrow_simon_vert,2021.1.2,Win32,59.95203837,,,,,,,,,,,,,,,,,,,,,,,,,,,,,,,,,,,,,,
,,,left,1,1.2822,0,0.435544142,#a3d0fb,"[""0.25"",""0""]",left_blue.png,left,2,0,8,3,1,,,left,left_blue.png,down_orange.png,down,right,up,55abb1a5fdf99b501fab62e3,2021-09-11_17h36.16.181,arrow_simon_vert,2021.1.2,Win32,59.95203837,,,,,,,,,,,,,,,,,,,,,,,,,,,,,,,,,,,,,,
,,,down,1,1.7645,0,0.579270291,#f3af84,"[""0"",""-0.25""]",down_orange.png,down,2,1,9,2,1,,,left,left_blue.png,down_orange.png,down,left,down,55abb1a5fdf99b501fab62e3,2021-09-11_17h36.16.181,arrow_simon_vert,2021.1.2,Win32,59.95203837,,,,,,,,,,,,,,,,,,,,,,,,,,,,,,,,,,,,,,
,,,right,1,1.5689,0,0.613017636,#a3d0fb,"[""-0.25"",""0""]",right_blue.png,right,2,2,10,0,1,,,right,right_blue.png,up_orange.png,up,left,down,55abb1a5fdf99b501fab62e3,2021-09-11_17h36.16.181,arrow_simon_vert,2021.1.2,Win32,59.95203837,,,,,,,,,,,,,,,,,,,,,,,,,,,,,,,,,,,,,,
,,,up,1,1.2775,0,0.101536433,#f3af84,"[""0"",""-0.25""]",up_orange.png,up,2,3,11,0,1,,,right,right_blue.png,up_orange.png,up,left,down,55abb1a5fdf99b501fab62e3,2021-09-11_17h36.16.181,arrow_simon_vert,2021.1.2,Win32,59.95203837,,,,,,,,,,,,,,,,,,,,,,,,,,,,,,,,,,,,,,
,,,right,1,0.9358,0,0.329413271,#a3d0fb,"[""0.25"",""0""]",right_blue.png,right,3,0,12,1,1,,,right,right_blue.png,up_orange.png,up,right,up,55abb1a5fdf99b501fab62e3,2021-09-11_17h36.16.181,arrow_simon_vert,2021.1.2,Win32,59.95203837,,,,,,,,,,,,,,,,,,,,,,,,,,,,,,,,,,,,,,
,,,down,1,1.3319,0,0.240433504,#f3af84,"[""0"",""0.25""]",down_orange.png,down,3,1,13,3,1,,,left,left_blue.png,down_orange.png,down,right,up,55abb1a5fdf99b501fab62e3,2021-09-11_17h36.16.181,arrow_simon_vert,2021.1.2,Win32,59.95203837,,,,,,,,,,,,,,,,,,,,,,,,,,,,,,,,,,,,,,
,,,left,1,1.685,0,0.694850978,#a3d0fb,"[""0.25"",""0""]",left_blue.png,left,3,2,14,3,1,,,left,left_blue.png,down_orange.png,down,right,up,55abb1a5fdf99b501fab62e3,2021-09-11_17h36.16.181,arrow_simon_vert,2021.1.2,Win32,59.95203837,,,,,,,,,,,,,,,,,,,,,,,,,,,,,,,,,,,,,,
,,,up,1,1.2257,0,0.05486614,#f3af84,"[""0"",""-0.25""]",up_orange.png,up,3,3,15,0,1,,,right,right_blue.png,up_orange.png,up,left,down,55abb1a5fdf99b501fab62e3,2021-09-11_17h36.16.181,arrow_simon_vert,2021.1.2,Win32,59.95203837,,,,,,,,,,,,,,,,,,,,,,,,,,,,,,,,,,,,,,
,,,right,1,1.3592,0,0.819325873,#a3d0fb,"[""0.25"",""0""]",right_blue.png,right,4,0,16,1,1,,,right,right_blue.png,up_orange.png,up,right,up,55abb1a5fdf99b501fab62e3,2021-09-11_17h36.16.181,arrow_simon_vert,2021.1.2,Win32,59.95203837,,,,,,,,,,,,,,,,,,,,,,,,,,,,,,,,,,,,,,
,,,down,1,1.7303,0,0.896788883,#f3af84,"[""0"",""0.25""]",down_orange.png,down,4,1,17,3,1,,,left,left_blue.png,down_orange.png,down,right,up,55abb1a5fdf99b501fab62e3,2021-09-11_17h36.16.181,arrow_simon_vert,2021.1.2,Win32,59.95203837,,,,,,,,,,,,,,,,,,,,,,,,,,,,,,,,,,,,,,
,,,left,1,1.8007,0,0.879627553,#a3d0fb,"[""-0.25"",""0""]",left_blue.png,left,4,2,18,2,1,,,left,left_blue.png,down_orange.png,down,left,down,55abb1a5fdf99b501fab62e3,2021-09-11_17h36.16.181,arrow_simon_vert,2021.1.2,Win32,59.95203837,,,,,,,,,,,,,,,,,,,,,,,,,,,,,,,,,,,,,,
,,,up,1,1.2381,0,0.105324303,#f3af84,"[""0"",""0.25""]",up_orange.png,up,4,3,19,1,1,,,right,right_blue.png,up_orange.png,up,right,up,55abb1a5fdf99b501fab62e3,2021-09-11_17h36.16.181,arrow_simon_vert,2021.1.2,Win32,59.95203837,,,,,,,,,,,,,,,,,,,,,,,,,,,,,,,,,,,,,,
,,,left,1,1.8537,0,0.843146017,#a3d0fb,"[""0.25"",""0""]",left_blue.png,left,5,0,20,3,1,,,left,left_blue.png,down_orange.png,down,right,up,55abb1a5fdf99b501fab62e3,2021-09-11_17h36.16.181,arrow_simon_vert,2021.1.2,Win32,59.95203837,,,,,,,,,,,,,,,,,,,,,,,,,,,,,,,,,,,,,,
,,,up,1,1.3713,0,0.394165165,#f3af84,"[""0"",""0.25""]",up_orange.png,up,5,1,21,1,1,,,right,right_blue.png,up_orange.png,up,right,up,55abb1a5fdf99b501fab62e3,2021-09-11_17h36.16.181,arrow_simon_vert,2021.1.2,Win32,59.95203837,,,,,,,,,,,,,,,,,,,,,,,,,,,,,,,,,,,,,,
,,,left,1,0.9723,0,0.219408006,#a3d0fb,"[""0.25"",""0""]",left_blue.png,left,5,2,22,3,1,,,left,left_blue.png,down_orange.png,down,right,up,55abb1a5fdf99b501fab62e3,2021-09-11_17h36.16.181,arrow_simon_vert,2021.1.2,Win32,59.95203837,,,,,,,,,,,,,,,,,,,,,,,,,,,,,,,,,,,,,,
,,,down,1,1.2221,0,0.146519795,#f3af84,"[""0"",""0.25""]",down_orange.png,down,5,3,23,3,1,,,left,left_blue.png,down_orange.png,down,right,up,55abb1a5fdf99b501fab62e3,2021-09-11_17h36.16.181,arrow_simon_vert,2021.1.2,Win32,59.95203837,,,,,,,,,,,,,,,,,,,,,,,,,,,,,,,,,,,,,,
,,,left,1,1.2952,0,0.539772663,#a3d0fb,"[""0.25"",""0""]",left_blue.png,left,6,0,24,3,1,,,left,left_blue.png,down_orange.png,down,right,up,55abb1a5fdf99b501fab62e3,2021-09-11_17h36.16.181,arrow_simon_vert,2021.1.2,Win32,59.95203837,,,,,,,,,,,,,,,,,,,,,,,,,,,,,,,,,,,,,,
,,,down,1,1.3541,0,0.403212082,#f3af84,"[""0"",""0.25""]",down_orange.png,down,6,1,25,3,1,,,left,left_blue.png,down_orange.png,down,right,up,55abb1a5fdf99b501fab62e3,2021-09-11_17h36.16.181,arrow_simon_vert,2021.1.2,Win32,59.95203837,,,,,,,,,,,,,,,,,,,,,,,,,,,,,,,,,,,,,,
,,,left,1,1.3486,0,0.455814839,#a3d0fb,"[""-0.25"",""0""]",left_blue.png,left,6,2,26,2,1,,,left,left_blue.png,down_orange.png,down,left,down,55abb1a5fdf99b501fab62e3,2021-09-11_17h36.16.181,arrow_simon_vert,2021.1.2,Win32,59.95203837,,,,,,,,,,,,,,,,,,,,,,,,,,,,,,,,,,,,,,
,,,up,1,1.5673,0,0.452168486,#f3af84,"[""0"",""0.25""]",up_orange.png,up,6,3,27,1,1,,,right,right_blue.png,up_orange.png,up,right,up,55abb1a5fdf99b501fab62e3,2021-09-11_17h36.16.181,arrow_simon_vert,2021.1.2,Win32,59.95203837,,,,,,,,,,,,,,,,,,,,,,,,,,,,,,,,,,,,,,
,,,right,1,1.698,0,0.605203246,#a3d0fb,"[""-0.25"",""0""]",right_blue.png,right,7,0,28,0,1,,,right,right_blue.png,up_orange.png,up,left,down,55abb1a5fdf99b501fab62e3,2021-09-11_17h36.16.181,arrow_simon_vert,2021.1.2,Win32,59.95203837,,,,,,,,,,,,,,,,,,,,,,,,,,,,,,,,,,,,,,
,,,up,1,1.898,0,0.972305534,#f3af84,"[""0"",""-0.25""]",up_orange.png,up,7,1,29,0,1,,,right,right_blue.png,up_orange.png,up,left,down,55abb1a5fdf99b501fab62e3,2021-09-11_17h36.16.181,arrow_simon_vert,2021.1.2,Win32,59.95203837,,,,,,,,,,,,,,,,,,,,,,,,,,,,,,,,,,,,,,
,,,left,1,1.3861,0,0.791787126,#a3d0fb,"[""-0.25"",""0""]",left_blue.png,left,7,2,30,2,1,,,left,left_blue.png,down_orange.png,down,left,down,55abb1a5fdf99b501fab62e3,2021-09-11_17h36.16.181,arrow_simon_vert,2021.1.2,Win32,59.95203837,,,,,,,,,,,,,,,,,,,,,,,,,,,,,,,,,,,,,,
,,,up,1,1.7652,0,0.722625635,#f3af84,"[""0"",""0.25""]",up_orange.png,up,7,3,31,1,1,,,right,right_blue.png,up_orange.png,up,right,up,55abb1a5fdf99b501fab62e3,2021-09-11_17h36.16.181,arrow_simon_vert,2021.1.2,Win32,59.95203837,,,,,,,,,,,,,,,,,,,,,,,,,,,,,,,,,,,,,,
,,,right,1,1.2068,0,0.39703403,#a3d0fb,"[""-0.25"",""0""]",right_blue.png,right,8,0,32,0,1,,,right,right_blue.png,up_orange.png,up,left,down,55abb1a5fdf99b501fab62e3,2021-09-11_17h36.16.181,arrow_simon_vert,2021.1.2,Win32,59.95203837,,,,,,,,,,,,,,,,,,,,,,,,,,,,,,,,,,,,,,
,,,down,1,0.8014,0,0.077492862,#f3af84,"[""0"",""0.25""]",down_orange.png,down,8,1,33,3,1,,,left,left_blue.png,down_orange.png,down,right,up,55abb1a5fdf99b501fab62e3,2021-09-11_17h36.16.181,arrow_simon_vert,2021.1.2,Win32,59.95203837,,,,,,,,,,,,,,,,,,,,,,,,,,,,,,,,,,,,,,
,,,left,1,1.4546,0,0.888212263,#a3d0fb,"[""-0.25"",""0""]",left_blue.png,left,8,2,34,2,1,,,left,left_blue.png,down_orange.png,down,left,down,55abb1a5fdf99b501fab62e3,2021-09-11_17h36.16.181,arrow_simon_vert,2021.1.2,Win32,59.95203837,,,,,,,,,,,,,,,,,,,,,,,,,,,,,,,,,,,,,,
,,,down,1,0.8017,0,0.01903435,#f3af84,"[""0"",""-0.25""]",down_orange.png,down,8,3,35,2,1,,,left,left_blue.png,down_orange.png,down,left,down,55abb1a5fdf99b501fab62e3,2021-09-11_17h36.16.181,arrow_simon_vert,2021.1.2,Win32,59.95203837,,,,,,,,,,,,,,,,,,,,,,,,,,,,,,,,,,,,,,
,,,right,1,1.0792,0,0.05387396,#a3d0fb,"[""0.25"",""0""]",right_blue.png,right,9,0,36,1,1,,,right,right_blue.png,up_orange.png,up,right,up,55abb1a5fdf99b501fab62e3,2021-09-11_17h36.16.181,arrow_simon_vert,2021.1.2,Win32,59.95203837,,,,,,,,,,,,,,,,,,,,,,,,,,,,,,,,,,,,,,
,,,up,1,1.453,0,0.382033837,#f3af84,"[""0"",""-0.25""]",up_orange.png,up,9,1,37,0,1,,,right,right_blue.png,up_orange.png,up,left,down,55abb1a5fdf99b501fab62e3,2021-09-11_17h36.16.181,arrow_simon_vert,2021.1.2,Win32,59.95203837,,,,,,,,,,,,,,,,,,,,,,,,,,,,,,,,,,,,,,
,,,left,1,0.9269,0,0.213916641,#a3d0fb,"[""0.25"",""0""]",left_blue.png,left,9,2,38,3,1,,,left,left_blue.png,down_orange.png,down,right,up,55abb1a5fdf99b501fab62e3,2021-09-11_17h36.16.181,arrow_simon_vert,2021.1.2,Win32,59.95203837,,,,,,,,,,,,,,,,,,,,,,,,,,,,,,,,,,,,,,
,,,up,1,1.493,0,0.440677718,#f3af84,"[""0"",""0.25""]",up_orange.png,up,9,3,39,1,1,,,right,right_blue.png,up_orange.png,up,right,up,55abb1a5fdf99b501fab62e3,2021-09-11_17h36.16.181,arrow_simon_vert,2021.1.2,Win32,59.95203837,,,,,,,,,,,,,,,,,,,,,,,,,,,,,,,,,,,,,,
,,,right,1,1.1684,0,0.512567029,#a3d0fb,"[""0.25"",""0""]",right_blue.png,right,10,0,40,1,1,,,right,right_blue.png,up_orange.png,up,right,up,55abb1a5fdf99b501fab62e3,2021-09-11_17h36.16.181,arrow_simon_vert,2021.1.2,Win32,59.95203837,,,,,,,,,,,,,,,,,,,,,,,,,,,,,,,,,,,,,,
,,,down,1,1.1202,0,0.285611374,#f3af84,"[""0"",""0.25""]",down_orange.png,down,10,1,41,3,1,,,left,left_blue.png,down_orange.png,down,right,up,55abb1a5fdf99b501fab62e3,2021-09-11_17h36.16.181,arrow_simon_vert,2021.1.2,Win32,59.95203837,,,,,,,,,,,,,,,,,,,,,,,,,,,,,,,,,,,,,,
,,,right,1,1.7811,0,0.724738119,#a3d0fb,"[""0.25"",""0""]",right_blue.png,right,10,2,42,1,1,,,right,right_blue.png,up_orange.png,up,right,up,55abb1a5fdf99b501fab62e3,2021-09-11_17h36.16.181,arrow_simon_vert,2021.1.2,Win32,59.95203837,,,,,,,,,,,,,,,,,,,,,,,,,,,,,,,,,,,,,,
,,,down,1,1.0221,0,0.054690743,#f3af84,"[""0"",""-0.25""]",down_orange.png,down,10,3,43,2,1,,,left,left_blue.png,down_orange.png,down,left,down,55abb1a5fdf99b501fab62e3,2021-09-11_17h36.16.181,arrow_simon_vert,2021.1.2,Win32,59.95203837,,,,,,,,,,,,,,,,,,,,,,,,,,,,,,,,,,,,,,
,,,left,1,1.6322,0,0.632150633,#a3d0fb,"[""-0.25"",""0""]",left_blue.png,left,11,0,44,2,1,,,left,left_blue.png,down_orange.png,down,left,down,55abb1a5fdf99b501fab62e3,2021-09-11_17h36.16.181,arrow_simon_vert,2021.1.2,Win32,59.95203837,,,,,,,,,,,,,,,,,,,,,,,,,,,,,,,,,,,,,,
,,,up,1,1.8538,0,0.771654978,#f3af84,"[""0"",""-0.25""]",up_orange.png,up,11,1,45,0,1,,,right,right_blue.png,up_orange.png,up,left,down,55abb1a5fdf99b501fab62e3,2021-09-11_17h36.16.181,arrow_simon_vert,2021.1.2,Win32,59.95203837,,,,,,,,,,,,,,,,,,,,,,,,,,,,,,,,,,,,,,
,,,right,1,1.5455,0,0.722124022,#a3d0fb,"[""-0.25"",""0""]",right_blue.png,right,11,2,46,0,1,,,right,right_blue.png,up_orange.png,up,left,down,55abb1a5fdf99b501fab62e3,2021-09-11_17h36.16.181,arrow_simon_vert,2021.1.2,Win32,59.95203837,,,,,,,,,,,,,,,,,,,,,,,,,,,,,,,,,,,,,,
,,,down,1,1.1292,0,0.428921709,#f3af84,"[""0"",""0.25""]",down_orange.png,down,11,3,47,3,1,,,left,left_blue.png,down_orange.png,down,right,up,55abb1a5fdf99b501fab62e3,2021-09-11_17h36.16.181,arrow_simon_vert,2021.1.2,Win32,59.95203837,,,,,,,,,,,,,,,,,,,,,,,,,,,,,,,,,,,,,,
,,,left,1,1.1581,0,0.466516706,#a3d0fb,"[""-0.25"",""0""]",left_blue.png,left,12,0,48,2,1,,,left,left_blue.png,down_orange.png,down,left,down,55abb1a5fdf99b501fab62e3,2021-09-11_17h36.16.181,arrow_simon_vert,2021.1.2,Win32,59.95203837,,,,,,,,,,,,,,,,,,,,,,,,,,,,,,,,,,,,,,
,,,up,1,1.8838,0,0.801689635,#f3af84,"[""0"",""0.25""]",up_orange.png,up,12,1,49,1,1,,,right,right_blue.png,up_orange.png,up,right,up,55abb1a5fdf99b501fab62e3,2021-09-11_17h36.16.181,arrow_simon_vert,2021.1.2,Win32,59.95203837,,,,,,,,,,,,,,,,,,,,,,,,,,,,,,,,,,,,,,
,,,left,1,1.2084,0,0.503912562,#a3d0fb,"[""-0.25"",""0""]",left_blue.png,left,12,2,50,2,1,,,left,left_blue.png,down_orange.png,down,left,down,55abb1a5fdf99b501fab62e3,2021-09-11_17h36.16.181,arrow_simon_vert,2021.1.2,Win32,59.95203837,,,,,,,,,,,,,,,,,,,,,,,,,,,,,,,,,,,,,,
,,,up,1,0.8635,0,0.093925724,#f3af84,"[""0"",""0.25""]",up_orange.png,up,12,3,51,1,1,,,right,right_blue.png,up_orange.png,up,right,up,55abb1a5fdf99b501fab62e3,2021-09-11_17h36.16.181,arrow_simon_vert,2021.1.2,Win32,59.95203837,,,,,,,,,,,,,,,,,,,,,,,,,,,,,,,,,,,,,,
,,,left,1,1.5257,0,0.666879472,#a3d0fb,"[""0.25"",""0""]",left_blue.png,left,13,0,52,3,1,,,left,left_blue.png,down_orange.png,down,right,up,55abb1a5fdf99b501fab62e3,2021-09-11_17h36.16.181,arrow_simon_vert,2021.1.2,Win32,59.95203837,,,,,,,,,,,,,,,,,,,,,,,,,,,,,,,,,,,,,,
,,,up,1,2.249,0,0.968630132,#f3af84,"[""0"",""-0.25""]",up_orange.png,up,13,1,53,0,1,,,right,right_blue.png,up_orange.png,up,left,down,55abb1a5fdf99b501fab62e3,2021-09-11_17h36.16.181,arrow_simon_vert,2021.1.2,Win32,59.95203837,,,,,,,,,,,,,,,,,,,,,,,,,,,,,,,,,,,,,,
,,,left,1,1.323,0,0.622323231,#a3d0fb,"[""-0.25"",""0""]",left_blue.png,left,13,2,54,2,1,,,left,left_blue.png,down_orange.png,down,left,down,55abb1a5fdf99b501fab62e3,2021-09-11_17h36.16.181,arrow_simon_vert,2021.1.2,Win32,59.95203837,,,,,,,,,,,,,,,,,,,,,,,,,,,,,,,,,,,,,,
,,,up,1,1.6557,0,0.659352247,#f3af84,"[""0"",""-0.25""]",up_orange.png,up,13,3,55,0,1,,,right,right_blue.png,up_orange.png,up,left,down,55abb1a5fdf99b501fab62e3,2021-09-11_17h36.16.181,arrow_simon_vert,2021.1.2,Win32,59.95203837,,,,,,,,,,,,,,,,,,,,,,,,,,,,,,,,,,,,,,
,,,right,1,1.1021,0,0.224876724,#a3d0fb,"[""-0.25"",""0""]",right_blue.png,right,14,0,56,0,1,,,right,right_blue.png,up_orange.png,up,left,down,55abb1a5fdf99b501fab62e3,2021-09-11_17h36.16.181,arrow_simon_vert,2021.1.2,Win32,59.95203837,,,,,,,,,,,,,,,,,,,,,,,,,,,,,,,,,,,,,,
,,,down,1,1.064,0,0.258446192,#f3af84,"[""0"",""-0.25""]",down_orange.png,down,14,1,57,2,1,,,left,left_blue.png,down_orange.png,down,left,down,55abb1a5fdf99b501fab62e3,2021-09-11_17h36.16.181,arrow_simon_vert,2021.1.2,Win32,59.95203837,,,,,,,,,,,,,,,,,,,,,,,,,,,,,,,,,,,,,,
,,,left,1,1.9718,0,0.954992625,#a3d0fb,"[""-0.25"",""0""]",left_blue.png,left,14,2,58,2,1,,,left,left_blue.png,down_orange.png,down,left,down,55abb1a5fdf99b501fab62e3,2021-09-11_17h36.16.181,arrow_simon_vert,2021.1.2,Win32,59.95203837,,,,,,,,,,,,,,,,,,,,,,,,,,,,,,,,,,,,,,
,,,up,1,1.7474,0,0.552713931,#f3af84,"[""0"",""-0.25""]",up_orange.png,up,14,3,59,0,1,,,right,right_blue.png,up_orange.png,up,left,down,55abb1a5fdf99b501fab62e3,2021-09-11_17h36.16.181,arrow_simon_vert,2021.1.2,Win32,59.95203837,,,,,,,,,,,,,,,,,,,,,,,,,,,,,,,,,,,,,,
,,,,,,,,,,,,,,,,,,,,,,,,,55abb1a5fdf99b501fab62e3,2021-09-11_17h36.16.181,arrow_simon_vert,2021.1.2,Win32,59.95203837,space,13.1526,1,0,1,0,1,,,,,,,,,,,,,,,,,,,,,,,,,,,,,,,
,,,,,,,,,,,,,,,,,,,,,,,,,55abb1a5fdf99b501fab62e3,2021-09-11_17h36.16.181,arrow_simon_vert,2021.1.2,Win32,59.95203837,,,,,,,,space,0,94.3036,up,2.8791,0,0,0,0,1,,,,,,,,,,,,,,,,,,,,,
,,,,,,,,,,,,,,,,,,,,,,,,,55abb1a5fdf99b501fab62e3,2021-09-11_17h36.16.181,arrow_simon_vert,2021.1.2,Win32,59.95203837,,,,,,,,,,,up,2.9854,1,0,1,0,1,,,,,,,,,,,,,,,,,,,,,
,,,,,,,,,,,,,,,,,,,,,,,,,55abb1a5fdf99b501fab62e3,2021-09-11_17h36.16.181,arrow_simon_vert,2021.1.2,Win32,59.95203837,,,,,,,,,,,down,2.8108,2,0,2,0,1,,,,,,,,,,,,,,,,,,,,,
,,,,,,,,,,,,,,,,,,,,,,,,,55abb1a5fdf99b501fab62e3,2021-09-11_17h36.16.181,arrow_simon_vert,2021.1.2,Win32,59.95203837,,,,,,,,,,,up,2.8185,3,0,3,0,1,,,,,,,,,,,,,,,,,,,,,
,,,,,,,,,,,,,,,,,,,,,,,,,55abb1a5fdf99b501fab62e3,2021-09-11_17h36.16.181,arrow_simon_vert,2021.1.2,Win32,59.95203837,,,,,,,,,,,up,2.0515,4,0,4,0,1,,,,,,,,,,,,,,,,,,,,,
,,,,,,,,,,,,,,,,,,,,,,,,,55abb1a5fdf99b501fab62e3,2021-09-11_17h36.16.181,arrow_simon_vert,2021.1.2,Win32,59.95203837,,,,,,,,,,,up,2.9434,5,0,5,0,1,,,,,,,,,,,,,,,,,,,,,
,,,,,,,,,,,,,,,,,,,,,,,,,55abb1a5fdf99b501fab62e3,2021-09-11_17h36.16.181,arrow_simon_vert,2021.1.2,Win32,59.95203837,,,,,,,,,,,up,2.2689,6,0,6,0,1,,,,,,,,,,,,,,,,,,,,,
,,,,,,,,,,,,,,,,,,,,,,,,,55abb1a5fdf99b501fab62e3,2021-09-11_17h36.16.181,arrow_simon_vert,2021.1.2,Win32,59.95203837,,,,,,,,,,,up,2.9088,7,0,7,0,1,,,,,,,,,,,,,,,,,,,,,
,,,,,,,,,,,,,,,,,,,,,,,,,55abb1a5fdf99b501fab62e3,2021-09-11_17h36.16.181,arrow_simon_vert,2021.1.2,Win32,59.95203837,,,,,,,,,,,down,2.8999,8,0,8,0,1,,,,,,,,,,,,,,,,,,,,,
,,,,,,,,,,,,,,,,,,,,,,,,,55abb1a5fdf99b501fab62e3,2021-09-11_17h36.16.181,arrow_simon_vert,2021.1.2,Win32,59.95203837,,,,,,,,,,,left,2.9668,9,0,9,0,1,,,,,,,,,,,,,,,,,,,,,
,,,,,,,,,,,,,,,,,,,,,,,,,55abb1a5fdf99b501fab62e3,2021-09-11_17h36.16.181,arrow_simon_vert,2021.1.2,Win32,59.95203837,,,,,,,,,,,up,2.8008,10,0,10,0,1,,,,,,,,,,,,,,,,,,,,,
,,,,,,,,,,,,,,,,,,,,,,,,,55abb1a5fdf99b501fab62e3,2021-09-11_17h36.16.181,arrow_simon_vert,2021.1.2,Win32,59.95203837,,,,,,,,,,,right,2.8189,11,0,11,0,1,,,,,,,,,,,,,,,,,,,,,
,,,,,,,,,,,,,,,,,,,,,,,,,55abb1a5fdf99b501fab62e3,2021-09-11_17h36.16.181,arrow_simon_vert,2021.1.2,Win32,59.95203837,,,,,,,,,,,down,2.9063,12,0,12,0,1,,,,,,,,,,,,,,,,,,,,,
,,,,,,,,,,,,,,,,,,,,,,,,,55abb1a5fdf99b501fab62e3,2021-09-11_17h36.16.181,arrow_simon_vert,2021.1.2,Win32,59.95203837,,,,,,,,,,,up,2.8705,13,0,13,0,1,,,,,,,,,,,,,,,,,,,,,
,,,,,,,,,,,,,,,,,,,,,,,,,55abb1a5fdf99b501fab62e3,2021-09-11_17h36.16.181,arrow_simon_vert,2021.1.2,Win32,59.95203837,,,,,,,,,,,up,2.8203,14,0,14,0,1,,,,,,,,,,,,,,,,,,,,,
,,,,,,,,,,,,,,,,,,,,,,,,,55abb1a5fdf99b501fab62e3,2021-09-11_17h36.16.181,arrow_simon_vert,2021.1.2,Win32,59.95203837,,,,,,,,,,,up,2.8073,15,0,15,0,1,,,,,,,,,,,,,,,,,,,,,
,,,,,,,,,,,,,,,,,,,,,,,,,55abb1a5fdf99b501fab62e3,2021-09-11_17h36.16.181,arrow_simon_vert,2021.1.2,Win32,59.95203837,,,,,,,,,,,up,2.8791,16,0,16,0,1,,,,,,,,,,,,,,,,,,,,,
,,,,,,,,,,,,,,,,,,,,,,,,,55abb1a5fdf99b501fab62e3,2021-09-11_17h36.16.181,arrow_simon_vert,2021.1.2,Win32,59.95203837,,,,,,,,,,,up,2.8677,17,0,17,0,1,,,,,,,,,,,,,,,,,,,,,
,,,,,,,,,,,,,,,,,,,,,,,,,55abb1a5fdf99b501fab62e3,2021-09-11_17h36.16.181,arrow_simon_vert,2021.1.2,Win32,59.95203837,,,,,,,,,,,up,2.7558,18,0,18,0,1,,,,,,,,,,,,,,,,,,,,,
,,,,,,,,,,,,,,,,,,,,,,,,,55abb1a5fdf99b501fab62e3,2021-09-11_17h36.16.181,arrow_simon_vert,2021.1.2,Win32,59.95203837,,,,,,,,,,,up,2.7733,19,0,19,0,1,,,,,,,,,,,,,,,,,,,,,
,,,,,,,,,,,,,,,,,,,,,,,,,55abb1a5fdf99b501fab62e3,2021-09-11_17h36.16.181,arrow_simon_vert,2021.1.2,Win32,59.95203837,,,,,,,,,,,up,2.7724,20,0,20,0,1,,,,,,,,,,,,,,,,,,,,,
,,,,,,,,,,,,,,,,,,,,,,,,,55abb1a5fdf99b501fab62e3,2021-09-11_17h36.16.181,arrow_simon_vert,2021.1.2,Win32,59.95203837,,,,,,,,,,,up,2.5158,21,0,21,0,1,,,,,,,,,,,,,,,,,,,,,
,,,,,,,,,,,,,,,,,,,,,,,,,55abb1a5fdf99b501fab62e3,2021-09-11_17h36.16.181,arrow_simon_vert,2021.1.2,Win32,59.95203837,,,,,,,,,,,down,2.7786,22,0,22,0,1,,,,,,,,,,,,,,,,,,,,,
,,,,,,,,,,,,,,,,,,,,,,,,,55abb1a5fdf99b501fab62e3,2021-09-11_17h36.16.181,arrow_simon_vert,2021.1.2,Win32,59.95203837,,,,,,,,,,,up,2.2545,23,0,23,0,1,,,,,,,,,,,,,,,,,,,,,
,,,,,,,,,,,,,,,,,,,,,,,,,55abb1a5fdf99b501fab62e3,2021-09-11_17h36.16.181,arrow_simon_vert,2021.1.2,Win32,59.95203837,,,,,,,,,,,up,2.5512,24,0,24,0,1,,,,,,,,,,,,,,,,,,,,,
,,,,,,,,,,,,,,,,,,,,,,,,,55abb1a5fdf99b501fab62e3,2021-09-11_17h36.16.181,arrow_simon_vert,2021.1.2,Win32,59.95203837,,,,,,,,,,,up,2.7799,25,0,25,0,1,,,,,,,,,,,,,,,,,,,,,
,,,,,,,,,,,,,,,,,,,,,,,,,55abb1a5fdf99b501fab62e3,2021-09-11_17h36.16.181,arrow_simon_vert,2021.1.2,Win32,59.95203837,,,,,,,,,,,up,2.5337,26,0,26,0,1,,,,,,,,,,,,,,,,,,,,,
,,,,,,,,,,,,,,,,,,,,,,,,,55abb1a5fdf99b501fab62e3,2021-09-11_17h36.16.181,arrow_simon_vert,2021.1.2,Win32,59.95203837,,,,,,,,,,,down,2.5453,27,0,27,0,1,,,,,,,,,,,,,,,,,,,,,
,,,,,,,,,,,,,,,,,,,,,,,,,55abb1a5fdf99b501fab62e3,2021-09-11_17h36.16.181,arrow_simon_vert,2021.1.2,Win32,59.95203837,,,,,,,,,,,up,2.8348,28,0,28,0,1,,,,,,,,,,,,,,,,,,,,,
,,,,,,,,,,,,,,,,,,,,,,,,,55abb1a5fdf99b501fab62e3,2021-09-11_17h36.16.181,arrow_simon_vert,2021.1.2,Win32,59.95203837,,,,,,,,,,,down,2.7825,29,0,29,0,1,,,,,,,,,,,,,,,,,,,,,
,,,,,,,,,,,,,,,,,,,,,,,,,55abb1a5fdf99b501fab62e3,2021-09-11_17h36.16.181,arrow_simon_vert,2021.1.2,Win32,59.95203837,,,,,,,,,,,up,2.4829,30,0,30,0,1,,,,,,,,,,,,,,,,,,,,,
,,,,,,,,,,,,,,,,,,,,,,,,,55abb1a5fdf99b501fab62e3,2021-09-11_17h36.16.181,arrow_simon_vert,2021.1.2,Win32,59.95203837,,,,,,,,,,,down,2.9314,31,0,31,0,1,,,,,,,,,,,,,,,,,,,,,
,,,,,,,,,,,,,,,,,,,,,,,,,55abb1a5fdf99b501fab62e3,2021-09-11_17h36.16.181,arrow_simon_vert,2021.1.2,Win32,59.95203837,,,,,,,,,,,up,2.7898,32,0,32,0,1,,,,,,,,,,,,,,,,,,,,,
,,,,,,,,,,,,,,,,,,,,,,,,,55abb1a5fdf99b501fab62e3,2021-09-11_17h36.16.181,arrow_simon_vert,2021.1.2,Win32,59.95203837,,,,,,,,,,,down,2.7591,33,0,33,0,1,,,,,,,,,,,,,,,,,,,,,
,,,,,,,,,,,,,,,,,,,,,,,,,55abb1a5fdf99b501fab62e3,2021-09-11_17h36.16.181,arrow_simon_vert,2021.1.2,Win32,59.95203837,,,,,,,,,,,down,2.871,34,0,34,0,1,,,,,,,,,,,,,,,,,,,,,
,,,,,,,,,,,,,,,,,,,,,,,,,55abb1a5fdf99b501fab62e3,2021-09-11_17h36.16.181,arrow_simon_vert,2021.1.2,Win32,59.95203837,,,,,,,,,,,down,2.844,35,0,35,0,1,,,,,,,,,,,,,,,,,,,,,
,,,,,,,,,,,,,,,,,,,,,,,,,55abb1a5fdf99b501fab62e3,2021-09-11_17h36.16.181,arrow_simon_vert,2021.1.2,Win32,59.95203837,,,,,,,,,,,down,2.7387,36,0,36,0,1,,,,,,,,,,,,,,,,,,,,,
,,,,,,,,,,,,,,,,,,,,,,,,,55abb1a5fdf99b501fab62e3,2021-09-11_17h36.16.181,arrow_simon_vert,2021.1.2,Win32,59.95203837,,,,,,,,,,,up,2.7854,37,0,37,0,1,,,,,,,,,,,,,,,,,,,,,
,,,,,,,,,,,,,,,,,,,,,,,,,55abb1a5fdf99b501fab62e3,2021-09-11_17h36.16.181,arrow_simon_vert,2021.1.2,Win32,59.95203837,,,,,,,,,,,up,2.3015,38,0,38,0,1,,,,,,,,,,,,,,,,,,,,,
,,,,,,,,,,,,,,,,,,,,,,,,,55abb1a5fdf99b501fab62e3,2021-09-11_17h36.16.181,arrow_simon_vert,2021.1.2,Win32,59.95203837,,,,,,,,,,,down,2.3817,39,0,39,0,1,,,,,,,,,,,,,,,,,,,,,
,,,,,,,,,,,,,,,,,,,,,,,,,55abb1a5fdf99b501fab62e3,2021-09-11_17h36.16.181,arrow_simon_vert,2021.1.2,Win32,59.95203837,,,,,,,,,,,up,2.7683,40,0,40,0,1,,,,,,,,,,,,,,,,,,,,,
,,,,,,,,,,,,,,,,,,,,,,,,,55abb1a5fdf99b501fab62e3,2021-09-11_17h36.16.181,arrow_simon_vert,2021.1.2,Win32,59.95203837,,,,,,,,,,,up,2.7722,41,0,41,0,1,,,,,,,,,,,,,,,,,,,,,
,,,,,,,,,,,,,,,,,,,,,,,,,55abb1a5fdf99b501fab62e3,2021-09-11_17h36.16.181,arrow_simon_vert,2021.1.2,Win32,59.95203837,,,,,,,,,,,up,2.4879,42,0,42,0,1,,,,,,,,,,,,,,,,,,,,,
,,,,,,,,,,,,,,,,,,,,,,,,,55abb1a5fdf99b501fab62e3,2021-09-11_17h36.16.181,arrow_simon_vert,2021.1.2,Win32,59.95203837,,,,,,,,,,,up,2.7494,43,0,43,0,1,,,,,,,,,,,,,,,,,,,,,
,,,,,,,,,,,,,,,,,,,,,,,,,55abb1a5fdf99b501fab62e3,2021-09-11_17h36.16.181,arrow_simon_vert,2021.1.2,Win32,59.95203837,,,,,,,,,,,down,2.8256,44,0,44,0,1,,,,,,,,,,,,,,,,,,,,,
,,,,,,,,,,,,,,,,,,,,,,,,,55abb1a5fdf99b501fab62e3,2021-09-11_17h36.16.181,arrow_simon_vert,2021.1.2,Win32,59.95203837,,,,,,,,,,,down,2.4124,45,0,45,0,1,,,,,,,,,,,,,,,,,,,,,
,,,,,,,,,,,,,,,,,,,,,,,,,55abb1a5fdf99b501fab62e3,2021-09-11_17h36.16.181,arrow_simon_vert,2021.1.2,Win32,59.95203837,,,,,,,,,,,up,2.4997,46,0,46,0,1,,,,,,,,,,,,,,,,,,,,,
,,,,,,,,,,,,,,,,,,,,,,,,,55abb1a5fdf99b501fab62e3,2021-09-11_17h36.16.181,arrow_simon_vert,2021.1.2,Win32,59.95203837,,,,,,,,,,,down,2.7559,47,0,47,0,1,,,,,,,,,,,,,,,,,,,,,
,,,,,,,,,,,,,,,,,,,,,,,,,55abb1a5fdf99b501fab62e3,2021-09-11_17h36.16.181,arrow_simon_vert,2021.1.2,Win32,59.95203837,,,,,,,,,,,up,2.8027,48,0,48,0,1,,,,,,,,,,,,,,,,,,,,,
,,,,,,,,,,,,,,,,,,,,,,,,,55abb1a5fdf99b501fab62e3,2021-09-11_17h36.16.181,arrow_simon_vert,2021.1.2,Win32,59.95203837,,,,,,,,,,,down,2.6999,49,0,49,0,1,,,,,,,,,,,,,,,,,,,,,
,,,,,,,,,,,,,,,,,,,,,,,,,55abb1a5fdf99b501fab62e3,2021-09-11_17h36.16.181,arrow_simon_vert,2021.1.2,Win32,59.95203837,,,,,,,,,,,up,2.2346,50,0,50,0,1,,,,,,,,,,,,,,,,,,,,,
,,,,,,,,,,,,,,,,,,,,,,,,,55abb1a5fdf99b501fab62e3,2021-09-11_17h36.16.181,arrow_simon_vert,2021.1.2,Win32,59.95203837,,,,,,,,,,,up,2.7798,51,0,51,0,1,,,,,,,,,,,,,,,,,,,,,
,,,,,,,,,,,,,,,,,,,,,,,,,55abb1a5fdf99b501fab62e3,2021-09-11_17h36.16.181,arrow_simon_vert,2021.1.2,Win32,59.95203837,,,,,,,,,,,down,2.5144,52,0,52,0,1,,,,,,,,,,,,,,,,,,,,,
,,,,,,,,,,,,,,,,,,,,,,,,,55abb1a5fdf99b501fab62e3,2021-09-11_17h36.16.181,arrow_simon_vert,2021.1.2,Win32,59.95203837,,,,,,,,,,,up,2.88,53,0,53,0,1,,,,,,,,,,,,,,,,,,,,,
,,,,,,,,,,,,,,,,,,,,,,,,,55abb1a5fdf99b501fab62e3,2021-09-11_17h36.16.181,arrow_simon_vert,2021.1.2,Win32,59.95203837,,,,,,,,,,,up,2.767,54,0,54,0,1,,,,,,,,,,,,,,,,,,,,,
,,,,,,,,,,,,,,,,,,,,,,,,,55abb1a5fdf99b501fab62e3,2021-09-11_17h36.16.181,arrow_simon_vert,2021.1.2,Win32,59.95203837,,,,,,,,,,,up,2.7421,55,0,55,0,1,,,,,,,,,,,,,,,,,,,,,
,,,,,,,,,,,,,,,,,,,,,,,,,55abb1a5fdf99b501fab62e3,2021-09-11_17h36.16.181,arrow_simon_vert,2021.1.2,Win32,59.95203837,,,,,,,,,,,up,2.5812,56,0,56,0,1,,,,,,,,,,,,,,,,,,,,,
,,,,,,,,,,,,,,,,,,,,,,,,,55abb1a5fdf99b501fab62e3,2021-09-11_17h36.16.181,arrow_simon_vert,2021.1.2,Win32,59.95203837,,,,,,,,,,,up,2.6153,57,0,57,0,1,,,,,,,,,,,,,,,,,,,,,
,,,,,,,,,,,,,,,,,,,,,,,,,55abb1a5fdf99b501fab62e3,2021-09-11_17h36.16.181,arrow_simon_vert,2021.1.2,Win32,59.95203837,,,,,,,,,,,down,2.8196,58,0,58,0,1,,,,,,,,,,,,,,,,,,,,,
,,,,,,,,,,,,,,,,,,,,,,,,,55abb1a5fdf99b501fab62e3,2021-09-11_17h36.16.181,arrow_simon_vert,2021.1.2,Win32,59.95203837,,,,,,,,,,,up,2.239,59,0,59,0,1,,,,,,,,,,,,,,,,,,,,,
,,,,,,0,2.265092006,#a3d0fb,"[""-0.25"",""0""]",right_blue.png,right,,,,,,,,right,right_blue.png,up_orange.png,up,left,down,55abb1a5fdf99b501fab62e3,2021-09-11_17h36.16.181,arrow_simon_vert,2021.1.2,Win32,59.95203837,,,,,,,,,,,,,,,,,,space,0,22.0172,right,1,1.8569,1,TRUE,FALSE,0,0,0,0,1,,,,,,,
,,,,,,0,2.180699457,#f3af84,"[""0"",""-0.25""]",down_orange.png,down,,,,,,,,left,left_blue.png,down_orange.png,down,left,down,55abb1a5fdf99b501fab62e3,2021-09-11_17h36.16.181,arrow_simon_vert,2021.1.2,Win32,59.95203837,,,,,,,,,,,,,,,,,,,,,down,1,1.587,2,FALSE,FALSE,0,1,1,2,1,,,,,,,
,,,,,,0,1.888563923,#a3d0fb,"[""0.25"",""0""]",left_blue.png,left,,,,,,,,left,left_blue.png,down_orange.png,down,right,up,55abb1a5fdf99b501fab62e3,2021-09-11_17h36.16.181,arrow_simon_vert,2021.1.2,Win32,59.95203837,,,,,,,,,,,,,,,,,,,,,left,1,1.3688,3,FALSE,TRUE,0,2,2,3,1,,,,,,,
,,,,,,0,2.184598801,#f3af84,"[""0"",""0.25""]",down_orange.png,down,,,,,,,,left,left_blue.png,down_orange.png,down,right,up,55abb1a5fdf99b501fab62e3,2021-09-11_17h36.16.181,arrow_simon_vert,2021.1.2,Win32,59.95203837,,,,,,,,,,,,,,,,,,,,,up,0,1.7338,4,TRUE,FALSE,0,3,3,3,1,,,,,,,
,,,,,,0,1.537399166,#a3d0fb,"[""-0.25"",""0""]",left_blue.png,left,,,,,,,,left,left_blue.png,down_orange.png,down,left,down,55abb1a5fdf99b501fab62e3,2021-09-11_17h36.16.181,arrow_simon_vert,2021.1.2,Win32,59.95203837,,,,,,,,,,,,,,,,,,,,,left,1,0.9785,5,FALSE,TRUE,1,0,4,2,1,,,,,,,
,,,,,,0,1.567979592,#f3af84,"[""0"",""-0.25""]",up_orange.png,up,,,,,,,,right,right_blue.png,up_orange.png,up,left,down,55abb1a5fdf99b501fab62e3,2021-09-11_17h36.16.181,arrow_simon_vert,2021.1.2,Win32,59.95203837,,,,,,,,,,,,,,,,,,,,,up,1,1.227,6,FALSE,TRUE,1,1,5,0,1,,,,,,,
,,,,,,0,2.3772001,#a3d0fb,"[""0.25"",""0""]",right_blue.png,right,,,,,,,,right,right_blue.png,up_orange.png,up,right,up,55abb1a5fdf99b501fab62e3,2021-09-11_17h36.16.181,arrow_simon_vert,2021.1.2,Win32,59.95203837,,,,,,,,,,,,,,,,,,,,,right,1,1.8869,7,TRUE,FALSE,1,2,6,1,1,,,,,,,
,,,,,,0,1.820341172,#f3af84,"[""0"",""-0.25""]",down_orange.png,down,,,,,,,,left,left_blue.png,down_orange.png,down,left,down,55abb1a5fdf99b501fab62e3,2021-09-11_17h36.16.181,arrow_simon_vert,2021.1.2,Win32,59.95203837,,,,,,,,,,,,,,,,,,,,,down,1,1.4258,8,FALSE,FALSE,1,3,7,2,1,,,,,,,
,,,,,,0,2.199130074,#a3d0fb,"[""-0.25"",""0""]",right_blue.png,right,,,,,,,,right,right_blue.png,up_orange.png,up,left,down,55abb1a5fdf99b501fab62e3,2021-09-11_17h36.16.181,arrow_simon_vert,2021.1.2,Win32,59.95203837,,,,,,,,,,,,,,,,,,,,,up,0,1.8681,9,TRUE,FALSE,2,0,8,0,1,,,,,,,
,,,,,,0,1.998775307,#f3af84,"[""0"",""-0.25""]",down_orange.png,down,,,,,,,,left,left_blue.png,down_orange.png,down,left,down,55abb1a5fdf99b501fab62e3,2021-09-11_17h36.16.181,arrow_simon_vert,2021.1.2,Win32,59.95203837,,,,,,,,,,,,,,,,,,,,,down,1,1.7713,10,TRUE,FALSE,2,1,9,2,1,,,,,,,
,,,,,,0,1.596634364,#a3d0fb,"[""-0.25"",""0""]",left_blue.png,left,,,,,,,,left,left_blue.png,down_orange.png,down,left,down,55abb1a5fdf99b501fab62e3,2021-09-11_17h36.16.181,arrow_simon_vert,2021.1.2,Win32,59.95203837,,,,,,,,,,,,,,,,,,,,,left,1,1.1008,11,FALSE,TRUE,2,2,10,2,1,,,,,,,
,,,,,,0,2.362534605,#f3af84,"[""0"",""0.25""]",down_orange.png,down,,,,,,,,left,left_blue.png,down_orange.png,down,right,up,55abb1a5fdf99b501fab62e3,2021-09-11_17h36.16.181,arrow_simon_vert,2021.1.2,Win32,59.95203837,,,,,,,,,,,,,,,,,,,,,down,1,1.9247,12,TRUE,FALSE,2,3,11,3,1,,,,,,,
,,,,,,0,2.477742797,#a3d0fb,"[""-0.25"",""0""]",left_blue.png,left,,,,,,,,left,left_blue.png,down_orange.png,down,left,down,55abb1a5fdf99b501fab62e3,2021-09-11_17h36.16.181,arrow_simon_vert,2021.1.2,Win32,59.95203837,,,,,,,,,,,,,,,,,,,,,left,1,1.8842,13,TRUE,FALSE,3,0,12,2,1,,,,,,,
,,,,,,0,2.355332681,#f3af84,"[""0"",""0.25""]",down_orange.png,down,,,,,,,,left,left_blue.png,down_orange.png,down,right,up,55abb1a5fdf99b501fab62e3,2021-09-11_17h36.16.181,arrow_simon_vert,2021.1.2,Win32,59.95203837,,,,,,,,,,,,,,,,,,,,,right,0,1.7609,14,TRUE,FALSE,3,1,13,3,1,,,,,,,
,,,,,,0,2.410930714,#a3d0fb,"[""0.25"",""0""]",right_blue.png,right,,,,,,,,right,right_blue.png,up_orange.png,up,right,up,55abb1a5fdf99b501fab62e3,2021-09-11_17h36.16.181,arrow_simon_vert,2021.1.2,Win32,59.95203837,,,,,,,,,,,,,,,,,,,,,right,1,1.8076,15,TRUE,FALSE,3,2,14,1,1,,,,,,,
,,,,,,0,2.346538976,#f3af84,"[""0"",""-0.25""]",down_orange.png,down,,,,,,,,left,left_blue.png,down_orange.png,down,left,down,55abb1a5fdf99b501fab62e3,2021-09-11_17h36.16.181,arrow_simon_vert,2021.1.2,Win32,59.95203837,,,,,,,,,,,,,,,,,,,,,down,1,1.7267,16,TRUE,FALSE,3,3,15,2,1,,,,,,,
,,,,,,0,2.253526083,#a3d0fb,"[""-0.25"",""0""]",left_blue.png,left,,,,,,,,left,left_blue.png,down_orange.png,down,left,down,55abb1a5fdf99b501fab62e3,2021-09-11_17h36.16.181,arrow_simon_vert,2021.1.2,Win32,59.95203837,,,,,,,,,,,,,,,,,,,,,left,1,1.6739,17,TRUE,FALSE,4,0,16,2,1,,,,,,,
,,,,,,0,2.120920592,#f3af84,"[""0"",""0.25""]",up_orange.png,up,,,,,,,,right,right_blue.png,up_orange.png,up,right,up,55abb1a5fdf99b501fab62e3,2021-09-11_17h36.16.181,arrow_simon_vert,2021.1.2,Win32,59.95203837,,,,,,,,,,,,,,,,,,,,,up,1,1.803,18,TRUE,FALSE,4,1,17,1,1,,,,,,,
,,,,,,0,1.572809439,#a3d0fb,"[""-0.25"",""0""]",right_blue.png,right,,,,,,,,right,right_blue.png,up_orange.png,up,left,down,55abb1a5fdf99b501fab62e3,2021-09-11_17h36.16.181,arrow_simon_vert,2021.1.2,Win32,59.95203837,,,,,,,,,,,,,,,,,,,,,left,0,0.9677,19,FALSE,TRUE,4,2,18,0,1,,,,,,,
,,,,,,0,1.827012014,#f3af84,"[""0"",""-0.25""]",up_orange.png,up,,,,,,,,right,right_blue.png,up_orange.png,up,left,down,55abb1a5fdf99b501fab62e3,2021-09-11_17h36.16.181,arrow_simon_vert,2021.1.2,Win32,59.95203837,,,,,,,,,,,,,,,,,,,,,up,1,1.7016,20,TRUE,FALSE,4,3,19,0,1,,,,,,,
,,,,,,0,1.683358588,#a3d0fb,"[""-0.25"",""0""]",left_blue.png,left,,,,,,,,left,left_blue.png,down_orange.png,down,left,down,55abb1a5fdf99b501fab62e3,2021-09-11_17h36.16.181,arrow_simon_vert,2021.1.2,Win32,59.95203837,,,,,,,,,,,,,,,,,,,,,left,1,1.9278,21,TRUE,FALSE,5,0,20,2,1,,,,,,,
,,,,,,0,1.698738736,#f3af84,"[""0"",""0.25""]",up_orange.png,up,,,,,,,,right,right_blue.png,up_orange.png,up,right,up,55abb1a5fdf99b501fab62e3,2021-09-11_17h36.16.181,arrow_simon_vert,2021.1.2,Win32,59.95203837,,,,,,,,,,,,,,,,,,,,,up,1,3.8408,22,TRUE,FALSE,5,1,21,1,1,,,,,,,
,,,,,,0,2.270114596,#a3d0fb,"[""-0.25"",""0""]",right_blue.png,right,,,,,,,,right,right_blue.png,up_orange.png,up,left,down,55abb1a5fdf99b501fab62e3,2021-09-11_17h36.16.181,arrow_simon_vert,2021.1.2,Win32,59.95203837,,,,,,,,,,,,,,,,,,,,,right,1,1.7674,23,TRUE,FALSE,5,2,22,0,1,,,,,,,
,,,,,,0,2.431499798,#f3af84,"[""0"",""0.25""]",down_orange.png,down,,,,,,,,left,left_blue.png,down_orange.png,down,right,up,55abb1a5fdf99b501fab62e3,2021-09-11_17h36.16.181,arrow_simon_vert,2021.1.2,Win32,59.95203837,,,,,,,,,,,,,,,,,,,,,down,1,1.9182,24,TRUE,FALSE,5,3,23,3,1,,,,,,,
,,,,,,0,2.339141034,#a3d0fb,"[""0.25"",""0""]",right_blue.png,right,,,,,,,,right,right_blue.png,up_orange.png,up,right,up,55abb1a5fdf99b501fab62e3,2021-09-11_17h36.16.181,arrow_simon_vert,2021.1.2,Win32,59.95203837,,,,,,,,,,,,,,,,,,,,,right,1,1.6576,25,TRUE,FALSE,6,0,24,1,1,,,,,,,
,,,,,,0,1.901916041,#f3af84,"[""0"",""0.25""]",down_orange.png,down,,,,,,,,left,left_blue.png,down_orange.png,down,right,up,55abb1a5fdf99b501fab62e3,2021-09-11_17h36.16.181,arrow_simon_vert,2021.1.2,Win32,59.95203837,,,,,,,,,,,,,,,,,,,,,down,1,1.7342,26,TRUE,FALSE,6,1,25,3,1,,,,,,,
,,,,,,0,1.646509561,#a3d0fb,"[""0.25"",""0""]",right_blue.png,right,,,,,,,,right,right_blue.png,up_orange.png,up,right,up,55abb1a5fdf99b501fab62e3,2021-09-11_17h36.16.181,arrow_simon_vert,2021.1.2,Win32,59.95203837,,,,,,,,,,,,,,,,,,,,,right,1,1.196,27,FALSE,TRUE,6,2,26,1,1,,,,,,,
,,,,,,0,2.117720731,#f3af84,"[""0"",""0.25""]",down_orange.png,down,,,,,,,,left,left_blue.png,down_orange.png,down,right,up,55abb1a5fdf99b501fab62e3,2021-09-11_17h36.16.181,arrow_simon_vert,2021.1.2,Win32,59.95203837,,,,,,,,,,,,,,,,,,,,,down,1,1.6011,28,TRUE,FALSE,6,3,27,3,1,,,,,,,
,,,,,,0,1.732634846,#a3d0fb,"[""0.25"",""0""]",left_blue.png,left,,,,,,,,left,left_blue.png,down_orange.png,down,right,up,55abb1a5fdf99b501fab62e3,2021-09-11_17h36.16.181,arrow_simon_vert,2021.1.2,Win32,59.95203837,,,,,,,,,,,,,,,,,,,,,left,1,1.218,29,FALSE,TRUE,7,0,28,3,1,,,,,,,
,,,,,,0,2.338357613,#f3af84,"[""0"",""-0.25""]",up_orange.png,up,,,,,,,,right,right_blue.png,up_orange.png,up,left,down,55abb1a5fdf99b501fab62e3,2021-09-11_17h36.16.181,arrow_simon_vert,2021.1.2,Win32,59.95203837,,,,,,,,,,,,,,,,,,,,,up,1,3.1752,30,TRUE,FALSE,7,1,29,0,1,,,,,,,
,,,,,,0,1.609135537,#a3d0fb,"[""0.25"",""0""]",left_blue.png,left,,,,,,,,left,left_blue.png,down_orange.png,down,right,up,55abb1a5fdf99b501fab62e3,2021-09-11_17h36.16.181,arrow_simon_vert,2021.1.2,Win32,59.95203837,,,,,,,,,,,,,,,,,,,,,left,1,1.1409,31,FALSE,TRUE,7,2,30,3,1,,,,,,,
,,,,,,0,2.105585472,#f3af84,"[""0"",""-0.25""]",up_orange.png,up,,,,,,,,right,right_blue.png,up_orange.png,up,left,down,55abb1a5fdf99b501fab62e3,2021-09-11_17h36.16.181,arrow_simon_vert,2021.1.2,Win32,59.95203837,,,,,,,,,,,,,,,,,,,,,up,1,2.4928,32,TRUE,FALSE,7,3,31,0,1,,,,,,,
,,,,,,0,1.506714224,#a3d0fb,"[""-0.25"",""0""]",left_blue.png,left,,,,,,,,left,left_blue.png,down_orange.png,down,left,down,55abb1a5fdf99b501fab62e3,2021-09-11_17h36.16.181,arrow_simon_vert,2021.1.2,Win32,59.95203837,,,,,,,,,,,,,,,,,,,,,left,1,1.8181,33,TRUE,FALSE,8,0,32,2,1,,,,,,,
,,,,,,0,1.638095429,#f3af84,"[""0"",""-0.25""]",up_orange.png,up,,,,,,,,right,right_blue.png,up_orange.png,up,left,down,55abb1a5fdf99b501fab62e3,2021-09-11_17h36.16.181,arrow_simon_vert,2021.1.2,Win32,59.95203837,,,,,,,,,,,,,,,,,,,,,up,1,1.2564,34,FALSE,TRUE,8,1,33,0,1,,,,,,,
,,,,,,0,2.495894744,#a3d0fb,"[""0.25"",""0""]",left_blue.png,left,,,,,,,,left,left_blue.png,down_orange.png,down,right,up,55abb1a5fdf99b501fab62e3,2021-09-11_17h36.16.181,arrow_simon_vert,2021.1.2,Win32,59.95203837,,,,,,,,,,,,,,,,,,,,,left,1,1.9084,35,TRUE,FALSE,8,2,34,3,1,,,,,,,
,,,,,,0,1.512161463,#f3af84,"[""0"",""0.25""]",up_orange.png,up,,,,,,,,right,right_blue.png,up_orange.png,up,right,up,55abb1a5fdf99b501fab62e3,2021-09-11_17h36.16.181,arrow_simon_vert,2021.1.2,Win32,59.95203837,,,,,,,,,,,,,,,,,,,,,up,1,1.6004,36,TRUE,FALSE,8,3,35,1,1,,,,,,,
,,,,,,0,2.088548546,#a3d0fb,"[""-0.25"",""0""]",left_blue.png,left,,,,,,,,left,left_blue.png,down_orange.png,down,left,down,55abb1a5fdf99b501fab62e3,2021-09-11_17h36.16.181,arrow_simon_vert,2021.1.2,Win32,59.95203837,,,,,,,,,,,,,,,,,,,,,right,0,0.9502,37,FALSE,TRUE,9,0,36,2,1,,,,,,,
,,,,,,0,2.361869106,#f3af84,"[""0"",""-0.25""]",up_orange.png,up,,,,,,,,right,right_blue.png,up_orange.png,up,left,down,55abb1a5fdf99b501fab62e3,2021-09-11_17h36.16.181,arrow_simon_vert,2021.1.2,Win32,59.95203837,,,,,,,,,,,,,,,,,,,,,up,1,2.0232,38,TRUE,FALSE,9,1,37,0,1,,,,,,,
,,,,,,0,1.964829451,#a3d0fb,"[""0.25"",""0""]",right_blue.png,right,,,,,,,,right,right_blue.png,up_orange.png,up,right,up,55abb1a5fdf99b501fab62e3,2021-09-11_17h36.16.181,arrow_simon_vert,2021.1.2,Win32,59.95203837,,,,,,,,,,,,,,,,,,,,,right,1,1.4202,39,FALSE,FALSE,9,2,38,1,1,,,,,,,
,,,,,,0,1.728526,#f3af84,"[""0"",""-0.25""]",up_orange.png,up,,,,,,,,right,right_blue.png,up_orange.png,up,left,down,55abb1a5fdf99b501fab62e3,2021-09-11_17h36.16.181,arrow_simon_vert,2021.1.2,Win32,59.95203837,,,,,,,,,,,,,,,,,,,,,up,1,1.3504,40,FALSE,TRUE,9,3,39,0,1,,,,,,,
,,,,,,0,1.683664789,#a3d0fb,"[""-0.25"",""0""]",right_blue.png,right,,,,,,,,right,right_blue.png,up_orange.png,up,left,down,55abb1a5fdf99b501fab62e3,2021-09-11_17h36.16.181,arrow_simon_vert,2021.1.2,Win32,59.95203837,,,,,,,,,,,,,,,,,,,,,right,1,1.2361,41,FALSE,TRUE,10,0,40,0,1,,,,,,,
,,,,,,0,2.000081977,#f3af84,"[""0"",""0.25""]",up_orange.png,up,,,,,,,,right,right_blue.png,up_orange.png,up,right,up,55abb1a5fdf99b501fab62e3,2021-09-11_17h36.16.181,arrow_simon_vert,2021.1.2,Win32,59.95203837,,,,,,,,,,,,,,,,,,,,,up,1,1.8018,42,TRUE,FALSE,10,1,41,1,1,,,,,,,
,,,,,,0,2.199516902,#a3d0fb,"[""0.25"",""0""]",right_blue.png,right,,,,,,,,right,right_blue.png,up_orange.png,up,right,up,55abb1a5fdf99b501fab62e3,2021-09-11_17h36.16.181,arrow_simon_vert,2021.1.2,Win32,59.95203837,,,,,,,,,,,,,,,,,,,,,right,1,1.6725,43,TRUE,FALSE,10,2,42,1,1,,,,,,,
,,,,,,0,2.017948163,#f3af84,"[""0"",""0.25""]",down_orange.png,down,,,,,,,,left,left_blue.png,down_orange.png,down,right,up,55abb1a5fdf99b501fab62e3,2021-09-11_17h36.16.181,arrow_simon_vert,2021.1.2,Win32,59.95203837,,,,,,,,,,,,,,,,,,,,,down,1,1.6177,44,TRUE,FALSE,10,3,43,3,1,,,,,,,
,,,,,,0,2.253595923,#a3d0fb,"[""-0.25"",""0""]",left_blue.png,left,,,,,,,,left,left_blue.png,down_orange.png,down,left,down,55abb1a5fdf99b501fab62e3,2021-09-11_17h36.16.181,arrow_simon_vert,2021.1.2,Win32,59.95203837,,,,,,,,,,,,,,,,,,,,,left,1,1.511,45,FALSE,FALSE,11,0,44,2,1,,,,,,,
,,,,,,0,1.839046858,#f3af84,"[""0"",""-0.25""]",down_orange.png,down,,,,,,,,left,left_blue.png,down_orange.png,down,left,down,55abb1a5fdf99b501fab62e3,2021-09-11_17h36.16.181,arrow_simon_vert,2021.1.2,Win32,59.95203837,,,,,,,,,,,,,,,,,,,,,down,1,1.2608,46,FALSE,TRUE,11,1,45,2,1,,,,,,,
,,,,,,0,2.014887736,#a3d0fb,"[""-0.25"",""0""]",left_blue.png,left,,,,,,,,left,left_blue.png,down_orange.png,down,left,down,55abb1a5fdf99b501fab62e3,2021-09-11_17h36.16.181,arrow_simon_vert,2021.1.2,Win32,59.95203837,,,,,,,,,,,,,,,,,,,,,left,1,1.4217,47,FALSE,FALSE,11,2,46,2,1,,,,,,,
,,,,,,0,2.371749385,#f3af84,"[""0"",""0.25""]",up_orange.png,up,,,,,,,,right,right_blue.png,up_orange.png,up,right,up,55abb1a5fdf99b501fab62e3,2021-09-11_17h36.16.181,arrow_simon_vert,2021.1.2,Win32,59.95203837,,,,,,,,,,,,,,,,,,,,,up,1,1.8716,48,TRUE,FALSE,11,3,47,1,1,,,,,,,
,,,,,,1,2.234278518,#a3d0fb,"[""-0.25"",""0""]",right_blue.png,right,,,,,,,,right,right_blue.png,up_orange.png,up,left,down,55abb1a5fdf99b501fab62e3,2021-09-11_17h36.16.181,arrow_simon_vert,2021.1.2,Win32,59.95203837,,,,,,,,,,,,,,,,,,,,,left,0,1.517,49,FALSE,FALSE,12,0,48,0,1,,,,,,,
,,,,,,1,1.879190293,#f3af84,"[""0"",""-0.25""]",up_orange.png,up,,,,,,,,right,right_blue.png,up_orange.png,up,left,down,55abb1a5fdf99b501fab62e3,2021-09-11_17h36.16.181,arrow_simon_vert,2021.1.2,Win32,59.95203837,,,,,,,,,,,,,,,,,,,,,up,1,1.7201,50,TRUE,FALSE,12,1,49,0,1,,,,,,,
,,,,,,1,1.785455209,#a3d0fb,"[""0.25"",""0""]",right_blue.png,right,,,,,,,,right,right_blue.png,up_orange.png,up,right,up,55abb1a5fdf99b501fab62e3,2021-09-11_17h36.16.181,arrow_simon_vert,2021.1.2,Win32,59.95203837,,,,,,,,,,,,,,,,,,,,,right,1,1.2414,51,FALSE,TRUE,12,2,50,1,1,,,,,,,
,,,,,,1,2.37669105,#f3af84,"[""0"",""-0.25""]",up_orange.png,up,,,,,,,,right,right_blue.png,up_orange.png,up,left,down,55abb1a5fdf99b501fab62e3,2021-09-11_17h36.16.181,arrow_simon_vert,2021.1.2,Win32,59.95203837,,,,,,,,,,,,,,,,,,,,,up,1,1.981,52,TRUE,FALSE,12,3,51,0,1,,,,,,,
,,,,,,1,2.377404348,#a3d0fb,"[""0.25"",""0""]",left_blue.png,left,,,,,,,,left,left_blue.png,down_orange.png,down,right,up,55abb1a5fdf99b501fab62e3,2021-09-11_17h36.16.181,arrow_simon_vert,2021.1.2,Win32,59.95203837,,,,,,,,,,,,,,,,,,,,,left,1,1.8211,53,TRUE,FALSE,13,0,52,3,1,,,,,,,
,,,,,,1,1.757551894,#f3af84,"[""0"",""0.25""]",up_orange.png,up,,,,,,,,right,right_blue.png,up_orange.png,up,right,up,55abb1a5fdf99b501fab62e3,2021-09-11_17h36.16.181,arrow_simon_vert,2021.1.2,Win32,59.95203837,,,,,,,,,,,,,,,,,,,,,up,1,1.1437,54,FALSE,TRUE,13,1,53,1,1,,,,,,,
,,,,,,1,2.292305851,#a3d0fb,"[""-0.25"",""0""]",left_blue.png,left,,,,,,,,left,left_blue.png,down_orange.png,down,left,down,55abb1a5fdf99b501fab62e3,2021-09-11_17h36.16.181,arrow_simon_vert,2021.1.2,Win32,59.95203837,,,,,,,,,,,,,,,,,,,,,left,1,1.6381,55,TRUE,FALSE,13,2,54,2,1,,,,,,,
,,,,,,1,1.530303924,#f3af84,"[""0"",""0.25""]",down_orange.png,down,,,,,,,,left,left_blue.png,down_orange.png,down,right,up,55abb1a5fdf99b501fab62e3,2021-09-11_17h36.16.181,arrow_simon_vert,2021.1.2,Win32,59.95203837,,,,,,,,,,,,,,,,,,,,,down,1,1.7874,56,TRUE,FALSE,13,3,55,3,1,,,,,,,
,,,,,,1,1.509711499,#a3d0fb,"[""0.25"",""0""]",left_blue.png,left,,,,,,,,left,left_blue.png,down_orange.png,down,right,up,55abb1a5fdf99b501fab62e3,2021-09-11_17h36.16.181,arrow_simon_vert,2021.1.2,Win32,59.95203837,,,,,,,,,,,,,,,,,,,,,left,1,1.1881,57,FALSE,TRUE,14,0,56,3,1,,,,,,,
,,,,,,1,2.325888874,#f3af84,"[""0"",""0.25""]",down_orange.png,down,,,,,,,,left,left_blue.png,down_orange.png,down,right,up,55abb1a5fdf99b501fab62e3,2021-09-11_17h36.16.181,arrow_simon_vert,2021.1.2,Win32,59.95203837,,,,,,,,,,,,,,,,,,,,,down,1,1.7379,58,TRUE,FALSE,14,1,57,3,1,,,,,,,
,,,,,,1,1.870547809,#a3d0fb,"[""0.25"",""0""]",right_blue.png,right,,,,,,,,right,right_blue.png,up_orange.png,up,right,up,55abb1a5fdf99b501fab62e3,2021-09-11_17h36.16.181,arrow_simon_vert,2021.1.2,Win32,59.95203837,,,,,,,,,,,,,,,,,,,,,right,1,1.3728,59,FALSE,TRUE,14,2,58,1,1,,,,,,,
,,,,,,1,2.098032853,#f3af84,"[""0"",""0.25""]",up_orange.png,up,,,,,,,,right,right_blue.png,up_orange.png,up,right,up,55abb1a5fdf99b501fab62e3,2021-09-11_17h36.16.181,arrow_simon_vert,2021.1.2,Win32,59.95203837,,,,,,,,,,,,,,,,,,,,,up,1,1.7099,60,TRUE,FALSE,14,3,59,1,1,,,,,,,
,,,,,,,,,,,,,,,,,,,,,,,,,55abb1a5fdf99b501fab62e3,2021-09-11_17h36.16.181,arrow_simon_vert,2021.1.2,Win32,59.95203837,,,,,,,,,,,,,,,,,,,,,,,,,,,,,,,,space,45.558,0,0,0,0,1
,,,,,,1,2.061288032,#a3d0fb,"[""-0.25"",""0""]",left_blue.png,left,,,,,,,,left,left_blue.png,down_orange.png,down,left,down,55abb1a5fdf99b501fab62e3,2021-09-11_17h36.16.181,arrow_simon_vert,2021.1.2,Win32,59.95203837,,,,,,,,,,,,,,,,,,,,,left,1,1.6556,1,TRUE,FALSE,0,0,0,2,1,,,,,,,
,,,,,,1,2.164463158,#f3af84,"[""0"",""-0.25""]",down_orange.png,down,,,,,,,,left,left_blue.png,down_orange.png,down,left,down,55abb1a5fdf99b501fab62e3,2021-09-11_17h36.16.181,arrow_simon_vert,2021.1.2,Win32,59.95203837,,,,,,,,,,,,,,,,,,,,,down,1,1.6088,2,TRUE,FALSE,0,1,1,2,1,,,,,,,
,,,,,,1,1.640400525,#a3d0fb,"[""-0.25"",""0""]",right_blue.png,right,,,,,,,,right,right_blue.png,up_orange.png,up,left,down,55abb1a5fdf99b501fab62e3,2021-09-11_17h36.16.181,arrow_simon_vert,2021.1.2,Win32,59.95203837,,,,,,,,,,,,,,,,,,,,,right,1,1.2427,3,FALSE,TRUE,0,2,2,0,1,,,,,,,
,,,,,,1,2.016995117,#f3af84,"[""0"",""0.25""]",up_orange.png,up,,,,,,,,right,right_blue.png,up_orange.png,up,right,up,55abb1a5fdf99b501fab62e3,2021-09-11_17h36.16.181,arrow_simon_vert,2021.1.2,Win32,59.95203837,,,,,,,,,,,,,,,,,,,,,up,1,1.2053,4,FALSE,TRUE,0,3,3,1,1,,,,,,,
,,,,,,1,2.108836523,#a3d0fb,"[""-0.25"",""0""]",right_blue.png,right,,,,,,,,right,right_blue.png,up_orange.png,up,left,down,55abb1a5fdf99b501fab62e3,2021-09-11_17h36.16.181,arrow_simon_vert,2021.1.2,Win32,59.95203837,,,,,,,,,,,,,,,,,,,,,right,1,0.4079,5,FALSE,TRUE,1,0,4,0,1,,,,,,,
,,,,,,1,1.849043384,#f3af84,"[""0"",""0.25""]",up_orange.png,up,,,,,,,,right,right_blue.png,up_orange.png,up,right,up,55abb1a5fdf99b501fab62e3,2021-09-11_17h36.16.181,arrow_simon_vert,2021.1.2,Win32,59.95203837,,,,,,,,,,,,,,,,,,,,,up,1,1.3003,6,FALSE,TRUE,1,1,5,1,1,,,,,,,
,,,,,,1,1.945419314,#a3d0fb,"[""-0.25"",""0""]",left_blue.png,left,,,,,,,,left,left_blue.png,down_orange.png,down,left,down,55abb1a5fdf99b501fab62e3,2021-09-11_17h36.16.181,arrow_simon_vert,2021.1.2,Win32,59.95203837,,,,,,,,,,,,,,,,,,,,,left,1,1.2295,7,FALSE,TRUE,1,2,6,2,1,,,,,,,
,,,,,,1,2.38309524,#f3af84,"[""0"",""-0.25""]",up_orange.png,up,,,,,,,,right,right_blue.png,up_orange.png,up,left,down,55abb1a5fdf99b501fab62e3,2021-09-11_17h36.16.181,arrow_simon_vert,2021.1.2,Win32,59.95203837,,,,,,,,,,,,,,,,,,,,,down,0,1.8342,8,TRUE,FALSE,1,3,7,0,1,,,,,,,
,,,,,,1,1.952853696,#a3d0fb,"[""-0.25"",""0""]",right_blue.png,right,,,,,,,,right,right_blue.png,up_orange.png,up,left,down,55abb1a5fdf99b501fab62e3,2021-09-11_17h36.16.181,arrow_simon_vert,2021.1.2,Win32,59.95203837,,,,,,,,,,,,,,,,,,,,,right,1,1.7365,9,TRUE,FALSE,2,0,8,0,1,,,,,,,
,,,,,,1,2.149716254,#f3af84,"[""0"",""0.25""]",down_orange.png,down,,,,,,,,left,left_blue.png,down_orange.png,down,right,up,55abb1a5fdf99b501fab62e3,2021-09-11_17h36.16.181,arrow_simon_vert,2021.1.2,Win32,59.95203837,,,,,,,,,,,,,,,,,,,,,up,0,1.4673,10,FALSE,FALSE,2,1,9,3,1,,,,,,,
,,,,,,1,2.488029883,#a3d0fb,"[""0.25"",""0""]",left_blue.png,left,,,,,,,,left,left_blue.png,down_orange.png,down,right,up,55abb1a5fdf99b501fab62e3,2021-09-11_17h36.16.181,arrow_simon_vert,2021.1.2,Win32,59.95203837,,,,,,,,,,,,,,,,,,,,,right,0,1.752,11,TRUE,FALSE,2,2,10,3,1,,,,,,,
,,,,,,1,2.234076173,#f3af84,"[""0"",""-0.25""]",down_orange.png,down,,,,,,,,left,left_blue.png,down_orange.png,down,left,down,55abb1a5fdf99b501fab62e3,2021-09-11_17h36.16.181,arrow_simon_vert,2021.1.2,Win32,59.95203837,,,,,,,,,,,,,,,,,,,,,down,1,1.7073,12,TRUE,FALSE,2,3,11,2,1,,,,,,,
,,,,,,1,1.628906085,#a3d0fb,"[""-0.25"",""0""]",right_blue.png,right,,,,,,,,right,right_blue.png,up_orange.png,up,left,down,55abb1a5fdf99b501fab62e3,2021-09-11_17h36.16.181,arrow_simon_vert,2021.1.2,Win32,59.95203837,,,,,,,,,,,,,,,,,,,,,right,1,1.2711,13,FALSE,TRUE,3,0,12,0,1,,,,,,,
,,,,,,1,1.797950013,#f3af84,"[""0"",""0.25""]",down_orange.png,down,,,,,,,,left,left_blue.png,down_orange.png,down,right,up,55abb1a5fdf99b501fab62e3,2021-09-11_17h36.16.181,arrow_simon_vert,2021.1.2,Win32,59.95203837,,,,,,,,,,,,,,,,,,,,,down,1,1.7741,14,TRUE,FALSE,3,1,13,3,1,,,,,,,
,,,,,,0,1.593998654,#a3d0fb,"[""0.25"",""0""]",left_blue.png,left,,,,,,,,left,left_blue.png,down_orange.png,down,right,up,55abb1a5fdf99b501fab62e3,2021-09-11_17h36.16.181,arrow_simon_vert,2021.1.2,Win32,59.95203837,,,,,,,,,,,,,,,,,,,,,left,1,1.5376,15,FALSE,FALSE,3,2,14,3,1,,,,,,,
,,,,,,0,2.28510225,#f3af84,"[""0"",""-0.25""]",down_orange.png,down,,,,,,,,left,left_blue.png,down_orange.png,down,left,down,55abb1a5fdf99b501fab62e3,2021-09-11_17h36.16.181,arrow_simon_vert,2021.1.2,Win32,59.95203837,,,,,,,,,,,,,,,,,,,,,down,1,1.7524,16,TRUE,FALSE,3,3,15,2,1,,,,,,,
,,,,,,0,2.135648494,#a3d0fb,"[""-0.25"",""0""]",left_blue.png,left,,,,,,,,left,left_blue.png,down_orange.png,down,left,down,55abb1a5fdf99b501fab62e3,2021-09-11_17h36.16.181,arrow_simon_vert,2021.1.2,Win32,59.95203837,,,,,,,,,,,,,,,,,,,,,left,1,1.5236,17,FALSE,FALSE,4,0,16,2,1,,,,,,,
,,,,,,0,1.538123881,#f3af84,"[""0"",""0.25""]",up_orange.png,up,,,,,,,,right,right_blue.png,up_orange.png,up,right,up,55abb1a5fdf99b501fab62e3,2021-09-11_17h36.16.181,arrow_simon_vert,2021.1.2,Win32,59.95203837,,,,,,,,,,,,,,,,,,,,,up,1,1.7189,18,TRUE,FALSE,4,1,17,1,1,,,,,,,
,,,,,,0,2.294589883,#a3d0fb,"[""-0.25"",""0""]",right_blue.png,right,,,,,,,,right,right_blue.png,up_orange.png,up,left,down,55abb1a5fdf99b501fab62e3,2021-09-11_17h36.16.181,arrow_simon_vert,2021.1.2,Win32,59.95203837,,,,,,,,,,,,,,,,,,,,,right,1,1.8704,19,TRUE,FALSE,4,2,18,0,1,,,,,,,
,,,,,,0,1.693551913,#f3af84,"[""0"",""-0.25""]",down_orange.png,down,,,,,,,,left,left_blue.png,down_orange.png,down,left,down,55abb1a5fdf99b501fab62e3,2021-09-11_17h36.16.181,arrow_simon_vert,2021.1.2,Win32,59.95203837,,,,,,,,,,,,,,,,,,,,,down,1,1.1174,20,FALSE,TRUE,4,3,19,2,1,,,,,,,
,,,,,,0,1.544037029,#a3d0fb,"[""0.25"",""0""]",left_blue.png,left,,,,,,,,left,left_blue.png,down_orange.png,down,right,up,55abb1a5fdf99b501fab62e3,2021-09-11_17h36.16.181,arrow_simon_vert,2021.1.2,Win32,59.95203837,,,,,,,,,,,,,,,,,,,,,left,1,1.5081,21,FALSE,FALSE,5,0,20,3,1,,,,,,,
,,,,,,0,1.775519195,#f3af84,"[""0"",""0.25""]",up_orange.png,up,,,,,,,,right,right_blue.png,up_orange.png,up,right,up,55abb1a5fdf99b501fab62e3,2021-09-11_17h36.16.181,arrow_simon_vert,2021.1.2,Win32,59.95203837,,,,,,,,,,,,,,,,,,,,,up,1,1.573,22,FALSE,FALSE,5,1,21,1,1,,,,,,,
,,,,,,0,1.634287761,#a3d0fb,"[""0.25"",""0""]",left_blue.png,left,,,,,,,,left,left_blue.png,down_orange.png,down,right,up,55abb1a5fdf99b501fab62e3,2021-09-11_17h36.16.181,arrow_simon_vert,2021.1.2,Win32,59.95203837,,,,,,,,,,,,,,,,,,,,,left,1,1.1927,23,FALSE,TRUE,5,2,22,3,1,,,,,,,
,,,,,,0,2.191637329,#f3af84,"[""0"",""0.25""]",up_orange.png,up,,,,,,,,right,right_blue.png,up_orange.png,up,right,up,55abb1a5fdf99b501fab62e3,2021-09-11_17h36.16.181,arrow_simon_vert,2021.1.2,Win32,59.95203837,,,,,,,,,,,,,,,,,,,,,up,1,1.6543,24,TRUE,FALSE,5,3,23,1,1,,,,,,,
,,,,,,0,2.226260214,#a3d0fb,"[""0.25"",""0""]",right_blue.png,right,,,,,,,,right,right_blue.png,up_orange.png,up,right,up,55abb1a5fdf99b501fab62e3,2021-09-11_17h36.16.181,arrow_simon_vert,2021.1.2,Win32,59.95203837,,,,,,,,,,,,,,,,,,,,,right,1,1.8448,25,TRUE,FALSE,6,0,24,1,1,,,,,,,
,,,,,,0,1.846932109,#f3af84,"[""0"",""-0.25""]",up_orange.png,up,,,,,,,,right,right_blue.png,up_orange.png,up,left,down,55abb1a5fdf99b501fab62e3,2021-09-11_17h36.16.181,arrow_simon_vert,2021.1.2,Win32,59.95203837,,,,,,,,,,,,,,,,,,,,,up,1,1.2995,26,FALSE,TRUE,6,1,25,0,1,,,,,,,
,,,,,,0,2.470645131,#a3d0fb,"[""0.25"",""0""]",right_blue.png,right,,,,,,,,right,right_blue.png,up_orange.png,up,right,up,55abb1a5fdf99b501fab62e3,2021-09-11_17h36.16.181,arrow_simon_vert,2021.1.2,Win32,59.95203837,,,,,,,,,,,,,,,,,,,,,down,0,1.7358,27,TRUE,FALSE,6,2,26,1,1,,,,,,,
,,,,,,0,1.753009547,#f3af84,"[""0"",""0.25""]",down_orange.png,down,,,,,,,,left,left_blue.png,down_orange.png,down,right,up,55abb1a5fdf99b501fab62e3,2021-09-11_17h36.16.181,arrow_simon_vert,2021.1.2,Win32,59.95203837,,,,,,,,,,,,,,,,,,,,,down,1,1.8507,28,TRUE,FALSE,6,3,27,3,1,,,,,,,
,,,,,,0,1.991321216,#a3d0fb,"[""0.25"",""0""]",left_blue.png,left,,,,,,,,left,left_blue.png,down_orange.png,down,right,up,55abb1a5fdf99b501fab62e3,2021-09-11_17h36.16.181,arrow_simon_vert,2021.1.2,Win32,59.95203837,,,,,,,,,,,,,,,,,,,,,left,1,1.483,29,FALSE,FALSE,7,0,28,3,1,,,,,,,
,,,,,,0,1.807128405,#f3af84,"[""0"",""0.25""]",down_orange.png,down,,,,,,,,left,left_blue.png,down_orange.png,down,right,up,55abb1a5fdf99b501fab62e3,2021-09-11_17h36.16.181,arrow_simon_vert,2021.1.2,Win32,59.95203837,,,,,,,,,,,,,,,,,,,,,down,1,1.3256,30,FALSE,TRUE,7,1,29,3,1,,,,,,,
,,,,,,0,2.428354154,#a3d0fb,"[""0.25"",""0""]",left_blue.png,left,,,,,,,,left,left_blue.png,down_orange.png,down,right,up,55abb1a5fdf99b501fab62e3,2021-09-11_17h36.16.181,arrow_simon_vert,2021.1.2,Win32,59.95203837,,,,,,,,,,,,,,,,,,,,,right,0,1.7142,31,TRUE,FALSE,7,2,30,3,1,,,,,,,
,,,,,,0,1.685013623,#f3af84,"[""0"",""0.25""]",up_orange.png,up,,,,,,,,right,right_blue.png,up_orange.png,up,right,up,55abb1a5fdf99b501fab62e3,2021-09-11_17h36.16.181,arrow_simon_vert,2021.1.2,Win32,59.95203837,,,,,,,,,,,,,,,,,,,,,up,1,1.1742,32,FALSE,TRUE,7,3,31,1,1,,,,,,,
,,,,,,0,1.50721834,#a3d0fb,"[""0.25"",""0""]",right_blue.png,right,,,,,,,,right,right_blue.png,up_orange.png,up,right,up,55abb1a5fdf99b501fab62e3,2021-09-11_17h36.16.181,arrow_simon_vert,2021.1.2,Win32,59.95203837,,,,,,,,,,,,,,,,,,,,,right,1,1.5424,33,FALSE,FALSE,8,0,32,1,1,,,,,,,
,,,,,,0,2.22978542,#f3af84,"[""0"",""0.25""]",down_orange.png,down,,,,,,,,left,left_blue.png,down_orange.png,down,right,up,55abb1a5fdf99b501fab62e3,2021-09-11_17h36.16.181,arrow_simon_vert,2021.1.2,Win32,59.95203837,,,,,,,,,,,,,,,,,,,,,down,1,1.9067,34,TRUE,FALSE,8,1,33,3,1,,,,,,,
,,,,,,0,1.967782857,#a3d0fb,"[""-0.25"",""0""]",right_blue.png,right,,,,,,,,right,right_blue.png,up_orange.png,up,left,down,55abb1a5fdf99b501fab62e3,2021-09-11_17h36.16.181,arrow_simon_vert,2021.1.2,Win32,59.95203837,,,,,,,,,,,,,,,,,,,,,right,1,1.6266,35,TRUE,FALSE,8,2,34,0,1,,,,,,,
,,,,,,0,1.626010767,#f3af84,"[""0"",""-0.25""]",down_orange.png,down,,,,,,,,left,left_blue.png,down_orange.png,down,left,down,55abb1a5fdf99b501fab62e3,2021-09-11_17h36.16.181,arrow_simon_vert,2021.1.2,Win32,59.95203837,,,,,,,,,,,,,,,,,,,,,down,1,1.5351,36,FALSE,FALSE,8,3,35,2,1,,,,,,,
,,,,,,0,1.789997946,#a3d0fb,"[""0.25"",""0""]",right_blue.png,right,,,,,,,,right,right_blue.png,up_orange.png,up,right,up,55abb1a5fdf99b501fab62e3,2021-09-11_17h36.16.181,arrow_simon_vert,2021.1.2,Win32,59.95203837,,,,,,,,,,,,,,,,,,,,,right,1,1.664,37,TRUE,FALSE,9,0,36,1,1,,,,,,,
,,,,,,0,2.48884966,#f3af84,"[""0"",""-0.25""]",down_orange.png,down,,,,,,,,left,left_blue.png,down_orange.png,down,left,down,55abb1a5fdf99b501fab62e3,2021-09-11_17h36.16.181,arrow_simon_vert,2021.1.2,Win32,59.95203837,,,,,,,,,,,,,,,,,,,,,down,1,1.8178,38,TRUE,FALSE,9,1,37,2,1,,,,,,,
,,,,,,1,2.278248243,#a3d0fb,"[""0.25"",""0""]",right_blue.png,right,,,,,,,,right,right_blue.png,up_orange.png,up,right,up,55abb1a5fdf99b501fab62e3,2021-09-11_17h36.16.181,arrow_simon_vert,2021.1.2,Win32,59.95203837,,,,,,,,,,,,,,,,,,,,,up,0,1.484,39,FALSE,FALSE,9,2,38,1,1,,,,,,,
,,,,,,0,2.066582884,#f3af84,"[""0"",""-0.25""]",down_orange.png,down,,,,,,,,left,left_blue.png,down_orange.png,down,left,down,55abb1a5fdf99b501fab62e3,2021-09-11_17h36.16.181,arrow_simon_vert,2021.1.2,Win32,59.95203837,,,,,,,,,,,,,,,,,,,,,down,1,1.5773,40,FALSE,FALSE,9,3,39,2,1,,,,,,,
,,,,,,0,2.333040129,#a3d0fb,"[""-0.25"",""0""]",left_blue.png,left,,,,,,,,left,left_blue.png,down_orange.png,down,left,down,55abb1a5fdf99b501fab62e3,2021-09-11_17h36.16.181,arrow_simon_vert,2021.1.2,Win32,59.95203837,,,,,,,,,,,,,,,,,,,,,left,1,1.6881,41,TRUE,FALSE,10,0,40,2,1,,,,,,,
,,,,,,0,1.529181722,#f3af84,"[""0"",""0.25""]",down_orange.png,down,,,,,,,,left,left_blue.png,down_orange.png,down,right,up,55abb1a5fdf99b501fab62e3,2021-09-11_17h36.16.181,arrow_simon_vert,2021.1.2,Win32,59.95203837,,,,,,,,,,,,,,,,,,,,,down,1,1.4055,42,FALSE,FALSE,10,1,41,3,1,,,,,,,
,,,,,,0,1.620147755,#a3d0fb,"[""0.25"",""0""]",right_blue.png,right,,,,,,,,right,right_blue.png,up_orange.png,up,right,up,55abb1a5fdf99b501fab62e3,2021-09-11_17h36.16.181,arrow_simon_vert,2021.1.2,Win32,59.95203837,,,,,,,,,,,,,,,,,,,,,right,1,1.4429,43,FALSE,FALSE,10,2,42,1,1,,,,,,,
,,,,,,0,1.519742118,#f3af84,"[""0"",""0.25""]",up_orange.png,up,,,,,,,,right,right_blue.png,up_orange.png,up,right,up,55abb1a5fdf99b501fab62e3,2021-09-11_17h36.16.181,arrow_simon_vert,2021.1.2,Win32,59.95203837,,,,,,,,,,,,,,,,,,,,,up,1,1.0416,44,FALSE,TRUE,10,3,43,1,1,,,,,,,
,,,,,,0,2.235274371,#a3d0fb,"[""-0.25"",""0""]",right_blue.png,right,,,,,,,,right,right_blue.png,up_orange.png,up,left,down,55abb1a5fdf99b501fab62e3,2021-09-11_17h36.16.181,arrow_simon_vert,2021.1.2,Win32,59.95203837,,,,,,,,,,,,,,,,,,,,,right,1,1.8248,45,TRUE,FALSE,11,0,44,0,1,,,,,,,
,,,,,,0,2.291709168,#f3af84,"[""0"",""-0.25""]",up_orange.png,up,,,,,,,,right,right_blue.png,up_orange.png,up,left,down,55abb1a5fdf99b501fab62e3,2021-09-11_17h36.16.181,arrow_simon_vert,2021.1.2,Win32,59.95203837,,,,,,,,,,,,,,,,,,,,,up,1,1.8269,46,TRUE,FALSE,11,1,45,0,1,,,,,,,
,,,,,,0,2.465709427,#a3d0fb,"[""0.25"",""0""]",right_blue.png,right,,,,,,,,right,right_blue.png,up_orange.png,up,right,up,55abb1a5fdf99b501fab62e3,2021-09-11_17h36.16.181,arrow_simon_vert,2021.1.2,Win32,59.95203837,,,,,,,,,,,,,,,,,,,,,right,1,1.8996,47,TRUE,FALSE,11,2,46,1,1,,,,,,,
,,,,,,0,2.269073097,#f3af84,"[""0"",""0.25""]",up_orange.png,up,,,,,,,,right,right_blue.png,up_orange.png,up,right,up,55abb1a5fdf99b501fab62e3,2021-09-11_17h36.16.181,arrow_simon_vert,2021.1.2,Win32,59.95203837,,,,,,,,,,,,,,,,,,,,,up,1,1.6716,48,TRUE,FALSE,11,3,47,1,1,,,,,,,
,,,,,,0,2.055953674,#a3d0fb,"[""0.25"",""0""]",left_blue.png,left,,,,,,,,left,left_blue.png,down_orange.png,down,right,up,55abb1a5fdf99b501fab62e3,2021-09-11_17h36.16.181,arrow_simon_vert,2021.1.2,Win32,59.95203837,,,,,,,,,,,,,,,,,,,,,left,1,1.2456,49,FALSE,TRUE,12,0,48,3,1,,,,,,,
,,,,,,0,1.572543908,#f3af84,"[""0"",""-0.25""]",down_orange.png,down,,,,,,,,left,left_blue.png,down_orange.png,down,left,down,55abb1a5fdf99b501fab62e3,2021-09-11_17h36.16.181,arrow_simon_vert,2021.1.2,Win32,59.95203837,,,,,,,,,,,,,,,,,,,,,down,1,1.4844,50,FALSE,FALSE,12,1,49,2,1,,,,,,,
,,,,,,0,1.890347409,#a3d0fb,"[""-0.25"",""0""]",left_blue.png,left,,,,,,,,left,left_blue.png,down_orange.png,down,left,down,55abb1a5fdf99b501fab62e3,2021-09-11_17h36.16.181,arrow_simon_vert,2021.1.2,Win32,59.95203837,,,,,,,,,,,,,,,,,,,,,left,1,1.646,51,TRUE,FALSE,12,2,50,2,1,,,,,,,
,,,,,,0,2.094246428,#f3af84,"[""0"",""-0.25""]",down_orange.png,down,,,,,,,,left,left_blue.png,down_orange.png,down,left,down,55abb1a5fdf99b501fab62e3,2021-09-11_17h36.16.181,arrow_simon_vert,2021.1.2,Win32,59.95203837,,,,,,,,,,,,,,,,,,,,,down,1,1.6392,52,TRUE,FALSE,12,3,51,2,1,,,,,,,
,,,,,,0,2.498348825,#a3d0fb,"[""-0.25"",""0""]",right_blue.png,right,,,,,,,,right,right_blue.png,up_orange.png,up,left,down,55abb1a5fdf99b501fab62e3,2021-09-11_17h36.16.181,arrow_simon_vert,2021.1.2,Win32,59.95203837,,,,,,,,,,,,,,,,,,,,,left,0,1.8206,53,TRUE,FALSE,13,0,52,0,1,,,,,,,
,,,,,,0,1.556178914,#f3af84,"[""0"",""0.25""]",down_orange.png,down,,,,,,,,left,left_blue.png,down_orange.png,down,right,up,55abb1a5fdf99b501fab62e3,2021-09-11_17h36.16.181,arrow_simon_vert,2021.1.2,Win32,59.95203837,,,,,,,,,,,,,,,,,,,,,down,1,1.5391,54,FALSE,FALSE,13,1,53,3,1,,,,,,,
,,,,,,0,1.558374119,#a3d0fb,"[""-0.25"",""0""]",left_blue.png,left,,,,,,,,left,left_blue.png,down_orange.png,down,left,down,55abb1a5fdf99b501fab62e3,2021-09-11_17h36.16.181,arrow_simon_vert,2021.1.2,Win32,59.95203837,,,,,,,,,,,,,,,,,,,,,left,1,1.5204,55,FALSE,FALSE,13,2,54,2,1,,,,,,,
,,,,,,0,1.887606756,#f3af84,"[""0"",""0.25""]",down_orange.png,down,,,,,,,,left,left_blue.png,down_orange.png,down,right,up,55abb1a5fdf99b501fab62e3,2021-09-11_17h36.16.181,arrow_simon_vert,2021.1.2,Win32,59.95203837,,,,,,,,,,,,,,,,,,,,,down,1,1.6886,56,TRUE,FALSE,13,3,55,3,1,,,,,,,
,,,,,,0,1.603531447,#a3d0fb,"[""-0.25"",""0""]",right_blue.png,right,,,,,,,,right,right_blue.png,up_orange.png,up,left,down,55abb1a5fdf99b501fab62e3,2021-09-11_17h36.16.181,arrow_simon_vert,2021.1.2,Win32,59.95203837,,,,,,,,,,,,,,,,,,,,,right,1,1.4429,57,FALSE,FALSE,14,0,56,0,1,,,,,,,
,,,,,,0,1.591721656,#f3af84,"[""0"",""-0.25""]",up_orange.png,up,,,,,,,,right,right_blue.png,up_orange.png,up,left,down,55abb1a5fdf99b501fab62e3,2021-09-11_17h36.16.181,arrow_simon_vert,2021.1.2,Win32,59.95203837,,,,,,,,,,,,,,,,,,,,,up,1,1.5055,58,FALSE,FALSE,14,1,57,0,1,,,,,,,
,,,,,,0,2.119268683,#a3d0fb,"[""-0.25"",""0""]",right_blue.png,right,,,,,,,,right,right_blue.png,up_orange.png,up,left,down,55abb1a5fdf99b501fab62e3,2021-09-11_17h36.16.181,arrow_simon_vert,2021.1.2,Win32,59.95203837,,,,,,,,,,,,,,,,,,,,,right,1,1.7234,59,TRUE,FALSE,14,2,58,0,1,,,,,,,
,,,,,,0,1.598139288,#f3af84,"[""0"",""-0.25""]",up_orange.png,up,,,,,,,,right,right_blue.png,up_orange.png,up,left,down,55abb1a5fdf99b501fab62e3,2021-09-11_17h36.16.181,arrow_simon_vert,2021.1.2,Win32,59.95203837,,,,,,,,,,,,,,,,,,,,,up,1,1.3346,60,FALSE,TRUE,14,3,59,0,1,,,,,,,
,,,,,,,,,,,,,,,,,,,,,,,,,55abb1a5fdf99b501fab62e3,2021-09-11_17h36.16.181,arrow_simon_vert,2021.1.2,Win32,59.95203837,,,,,,,,,,,,,,,,,,,,,,,,,,,,,,,,space,24.2365,1,0,1,0,1
,,,,,,0,2.170115811,#a3d0fb,"[""0.25"",""0""]",right_blue.png,right,,,,,,,,right,right_blue.png,up_orange.png,up,right,up,55abb1a5fdf99b501fab62e3,2021-09-11_17h36.16.181,arrow_simon_vert,2021.1.2,Win32,59.95203837,,,,,,,,,,,,,,,,,,,,,right,1,1.6547,1,TRUE,FALSE,0,0,0,1,1,,,,,,,
,,,,,,0,2.308982051,#f3af84,"[""0"",""0.25""]",down_orange.png,down,,,,,,,,left,left_blue.png,down_orange.png,down,right,up,55abb1a5fdf99b501fab62e3,2021-09-11_17h36.16.181,arrow_simon_vert,2021.1.2,Win32,59.95203837,,,,,,,,,,,,,,,,,,,,,down,1,1.9359,2,TRUE,FALSE,0,1,1,3,1,,,,,,,
,,,,,,0,2.191787309,#a3d0fb,"[""-0.25"",""0""]",right_blue.png,right,,,,,,,,right,right_blue.png,up_orange.png,up,left,down,55abb1a5fdf99b501fab62e3,2021-09-11_17h36.16.181,arrow_simon_vert,2021.1.2,Win32,59.95203837,,,,,,,,,,,,,,,,,,,,,right,1,1.6615,3,TRUE,FALSE,0,2,2,0,1,,,,,,,
,,,,,,0,2.149301493,#f3af84,"[""0"",""0.25""]",down_orange.png,down,,,,,,,,left,left_blue.png,down_orange.png,down,right,up,55abb1a5fdf99b501fab62e3,2021-09-11_17h36.16.181,arrow_simon_vert,2021.1.2,Win32,59.95203837,,,,,,,,,,,,,,,,,,,,,down,1,1.6932,4,TRUE,FALSE,0,3,3,3,1,,,,,,,
,,,,,,0,1.879325892,#a3d0fb,"[""-0.25"",""0""]",right_blue.png,right,,,,,,,,right,right_blue.png,up_orange.png,up,left,down,55abb1a5fdf99b501fab62e3,2021-09-11_17h36.16.181,arrow_simon_vert,2021.1.2,Win32,59.95203837,,,,,,,,,,,,,,,,,,,,,right,1,1.3779,5,FALSE,TRUE,1,0,4,0,1,,,,,,,
,,,,,,0,1.79644644,#f3af84,"[""0"",""-0.25""]",down_orange.png,down,,,,,,,,left,left_blue.png,down_orange.png,down,left,down,55abb1a5fdf99b501fab62e3,2021-09-11_17h36.16.181,arrow_simon_vert,2021.1.2,Win32,59.95203837,,,,,,,,,,,,,,,,,,,,,down,1,1.2243,6,FALSE,TRUE,1,1,5,2,1,,,,,,,
,,,,,,0,1.742807226,#a3d0fb,"[""-0.25"",""0""]",left_blue.png,left,,,,,,,,left,left_blue.png,down_orange.png,down,left,down,55abb1a5fdf99b501fab62e3,2021-09-11_17h36.16.181,arrow_simon_vert,2021.1.2,Win32,59.95203837,,,,,,,,,,,,,,,,,,,,,left,1,1.1891,7,FALSE,TRUE,1,2,6,2,1,,,,,,,
,,,,,,0,1.59445329,#f3af84,"[""0"",""-0.25""]",up_orange.png,up,,,,,,,,right,right_blue.png,up_orange.png,up,left,down,55abb1a5fdf99b501fab62e3,2021-09-11_17h36.16.181,arrow_simon_vert,2021.1.2,Win32,59.95203837,,,,,,,,,,,,,,,,,,,,,up,1,1.2295,8,FALSE,TRUE,1,3,7,0,1,,,,,,,
,,,,,,0,2.094892987,#a3d0fb,"[""0.25"",""0""]",left_blue.png,left,,,,,,,,left,left_blue.png,down_orange.png,down,right,up,55abb1a5fdf99b501fab62e3,2021-09-11_17h36.16.181,arrow_simon_vert,2021.1.2,Win32,59.95203837,,,,,,,,,,,,,,,,,,,,,left,1,1.5683,9,FALSE,FALSE,2,0,8,3,1,,,,,,,
,,,,,,0,1.70757081,#f3af84,"[""0"",""0.25""]",down_orange.png,down,,,,,,,,left,left_blue.png,down_orange.png,down,right,up,55abb1a5fdf99b501fab62e3,2021-09-11_17h36.16.181,arrow_simon_vert,2021.1.2,Win32,59.95203837,,,,,,,,,,,,,,,,,,,,,down,1,1.7516,10,TRUE,FALSE,2,1,9,3,1,,,,,,,
,,,,,,0,1.689038128,#a3d0fb,"[""-0.25"",""0""]",left_blue.png,left,,,,,,,,left,left_blue.png,down_orange.png,down,left,down,55abb1a5fdf99b501fab62e3,2021-09-11_17h36.16.181,arrow_simon_vert,2021.1.2,Win32,59.95203837,,,,,,,,,,,,,,,,,,,,,left,1,1.4902,11,FALSE,FALSE,2,2,10,2,1,,,,,,,
,,,,,,0,1.837472966,#f3af84,"[""0"",""0.25""]",down_orange.png,down,,,,,,,,left,left_blue.png,down_orange.png,down,right,up,55abb1a5fdf99b501fab62e3,2021-09-11_17h36.16.181,arrow_simon_vert,2021.1.2,Win32,59.95203837,,,,,,,,,,,,,,,,,,,,,down,1,1.9622,12,TRUE,FALSE,2,3,11,3,1,,,,,,,
,,,,,,0,1.792972544,#a3d0fb,"[""-0.25"",""0""]",right_blue.png,right,,,,,,,,right,right_blue.png,up_orange.png,up,left,down,55abb1a5fdf99b501fab62e3,2021-09-11_17h36.16.181,arrow_simon_vert,2021.1.2,Win32,59.95203837,,,,,,,,,,,,,,,,,,,,,right,1,1.3524,13,FALSE,TRUE,3,0,12,0,1,,,,,,,
,,,,,,0,2.058571362,#f3af84,"[""0"",""0.25""]",down_orange.png,down,,,,,,,,left,left_blue.png,down_orange.png,down,right,up,55abb1a5fdf99b501fab62e3,2021-09-11_17h36.16.181,arrow_simon_vert,2021.1.2,Win32,59.95203837,,,,,,,,,,,,,,,,,,,,,down,1,1.7851,14,TRUE,FALSE,3,1,13,3,1,,,,,,,
,,,,,,0,1.528706807,#a3d0fb,"[""-0.25"",""0""]",left_blue.png,left,,,,,,,,left,left_blue.png,down_orange.png,down,left,down,55abb1a5fdf99b501fab62e3,2021-09-11_17h36.16.181,arrow_simon_vert,2021.1.2,Win32,59.95203837,,,,,,,,,,,,,,,,,,,,,left,1,1.3687,15,FALSE,TRUE,3,2,14,2,1,,,,,,,
,,,,,,0,1.98647027,#f3af84,"[""0"",""-0.25""]",down_orange.png,down,,,,,,,,left,left_blue.png,down_orange.png,down,left,down,55abb1a5fdf99b501fab62e3,2021-09-11_17h36.16.181,arrow_simon_vert,2021.1.2,Win32,59.95203837,,,,,,,,,,,,,,,,,,,,,down,1,1.7246,16,TRUE,FALSE,3,3,15,2,1,,,,,,,
,,,,,,0,1.881799071,#a3d0fb,"[""-0.25"",""0""]",left_blue.png,left,,,,,,,,left,left_blue.png,down_orange.png,down,left,down,55abb1a5fdf99b501fab62e3,2021-09-11_17h36.16.181,arrow_simon_vert,2021.1.2,Win32,59.95203837,,,,,,,,,,,,,,,,,,,,,left,1,1.6154,17,TRUE,FALSE,4,0,16,2,1,,,,,,,
,,,,,,0,1.961248885,#f3af84,"[""0"",""-0.25""]",up_orange.png,up,,,,,,,,right,right_blue.png,up_orange.png,up,left,down,55abb1a5fdf99b501fab62e3,2021-09-11_17h36.16.181,arrow_simon_vert,2021.1.2,Win32,59.95203837,,,,,,,,,,,,,,,,,,,,,up,1,1.6528,18,TRUE,FALSE,4,1,17,0,1,,,,,,,
,,,,,,0,2.441260447,#a3d0fb,"[""0.25"",""0""]",left_blue.png,left,,,,,,,,left,left_blue.png,down_orange.png,down,right,up,55abb1a5fdf99b501fab62e3,2021-09-11_17h36.16.181,arrow_simon_vert,2021.1.2,Win32,59.95203837,,,,,,,,,,,,,,,,,,,,,down,0,1.6182,19,TRUE,FALSE,4,2,18,3,1,,,,,,,
,,,,,,0,1.592952136,#f3af84,"[""0"",""0.25""]",up_orange.png,up,,,,,,,,right,right_blue.png,up_orange.png,up,right,up,55abb1a5fdf99b501fab62e3,2021-09-11_17h36.16.181,arrow_simon_vert,2021.1.2,Win32,59.95203837,,,,,,,,,,,,,,,,,,,,,up,1,1.3873,20,FALSE,TRUE,4,3,19,1,1,,,,,,,
,,,,,,0,1.786812348,#a3d0fb,"[""-0.25"",""0""]",left_blue.png,left,,,,,,,,left,left_blue.png,down_orange.png,down,left,down,55abb1a5fdf99b501fab62e3,2021-09-11_17h36.16.181,arrow_simon_vert,2021.1.2,Win32,59.95203837,,,,,,,,,,,,,,,,,,,,,left,1,1.4195,21,FALSE,FALSE,5,0,20,2,1,,,,,,,
,,,,,,0,2.136144176,#f3af84,"[""0"",""-0.25""]",down_orange.png,down,,,,,,,,left,left_blue.png,down_orange.png,down,left,down,55abb1a5fdf99b501fab62e3,2021-09-11_17h36.16.181,arrow_simon_vert,2021.1.2,Win32,59.95203837,,,,,,,,,,,,,,,,,,,,,down,1,1.6418,22,TRUE,FALSE,5,1,21,2,1,,,,,,,
,,,,,,0,1.607554051,#a3d0fb,"[""-0.25"",""0""]",right_blue.png,right,,,,,,,,right,right_blue.png,up_orange.png,up,left,down,55abb1a5fdf99b501fab62e3,2021-09-11_17h36.16.181,arrow_simon_vert,2021.1.2,Win32,59.95203837,,,,,,,,,,,,,,,,,,,,,right,1,1.2108,23,FALSE,TRUE,5,2,22,0,1,,,,,,,
,,,,,,0,2.476016497,#f3af84,"[""0"",""0.25""]",up_orange.png,up,,,,,,,,right,right_blue.png,up_orange.png,up,right,up,55abb1a5fdf99b501fab62e3,2021-09-11_17h36.16.181,arrow_simon_vert,2021.1.2,Win32,59.95203837,,,,,,,,,,,,,,,,,,,,,up,1,2.0695,24,TRUE,FALSE,5,3,23,1,1,,,,,,,
,,,,,,0,2.477656873,#a3d0fb,"[""-0.25"",""0""]",left_blue.png,left,,,,,,,,left,left_blue.png,down_orange.png,down,left,down,55abb1a5fdf99b501fab62e3,2021-09-11_17h36.16.181,arrow_simon_vert,2021.1.2,Win32,59.95203837,,,,,,,,,,,,,,,,,,,,,left,1,1.9401,25,TRUE,FALSE,6,0,24,2,1,,,,,,,
,,,,,,0,1.751725193,#f3af84,"[""0"",""-0.25""]",up_orange.png,up,,,,,,,,right,right_blue.png,up_orange.png,up,left,down,55abb1a5fdf99b501fab62e3,2021-09-11_17h36.16.181,arrow_simon_vert,2021.1.2,Win32,59.95203837,,,,,,,,,,,,,,,,,,,,,down,0,1.1025,26,FALSE,TRUE,6,1,25,0,1,,,,,,,
,,,,,,0,1.77798263,#a3d0fb,"[""0.25"",""0""]",left_blue.png,left,,,,,,,,left,left_blue.png,down_orange.png,down,right,up,55abb1a5fdf99b501fab62e3,2021-09-11_17h36.16.181,arrow_simon_vert,2021.1.2,Win32,59.95203837,,,,,,,,,,,,,,,,,,,,,left,1,1.2069,27,FALSE,TRUE,6,2,26,3,1,,,,,,,
,,,,,,0,2.289497258,#f3af84,"[""0"",""0.25""]",up_orange.png,up,,,,,,,,right,right_blue.png,up_orange.png,up,right,up,55abb1a5fdf99b501fab62e3,2021-09-11_17h36.16.181,arrow_simon_vert,2021.1.2,Win32,59.95203837,,,,,,,,,,,,,,,,,,,,,up,1,1.7119,28,TRUE,FALSE,6,3,27,1,1,,,,,,,
,,,,,,0,1.519282374,#a3d0fb,"[""-0.25"",""0""]",left_blue.png,left,,,,,,,,left,left_blue.png,down_orange.png,down,left,down,55abb1a5fdf99b501fab62e3,2021-09-11_17h36.16.181,arrow_simon_vert,2021.1.2,Win32,59.95203837,,,,,,,,,,,,,,,,,,,,,left,1,1.1885,29,FALSE,TRUE,7,0,28,2,1,,,,,,,
,,,,,,0,2.225231439,#f3af84,"[""0"",""0.25""]",down_orange.png,down,,,,,,,,left,left_blue.png,down_orange.png,down,right,up,55abb1a5fdf99b501fab62e3,2021-09-11_17h36.16.181,arrow_simon_vert,2021.1.2,Win32,59.95203837,,,,,,,,,,,,,,,,,,,,,down,1,1.8205,30,TRUE,FALSE,7,1,29,3,1,,,,,,,
,,,,,,0,2.031415468,#a3d0fb,"[""-0.25"",""0""]",right_blue.png,right,,,,,,,,right,right_blue.png,up_orange.png,up,left,down,55abb1a5fdf99b501fab62e3,2021-09-11_17h36.16.181,arrow_simon_vert,2021.1.2,Win32,59.95203837,,,,,,,,,,,,,,,,,,,,,left,0,1.3625,31,FALSE,TRUE,7,2,30,0,1,,,,,,,
,,,,,,0,2.28198099,#f3af84,"[""0"",""0.25""]",up_orange.png,up,,,,,,,,right,right_blue.png,up_orange.png,up,right,up,55abb1a5fdf99b501fab62e3,2021-09-11_17h36.16.181,arrow_simon_vert,2021.1.2,Win32,59.95203837,,,,,,,,,,,,,,,,,,,,,up,1,1.7016,32,TRUE,FALSE,7,3,31,1,1,,,,,,,
,,,,,,1,2.215948505,#a3d0fb,"[""-0.25"",""0""]",right_blue.png,right,,,,,,,,right,right_blue.png,up_orange.png,up,left,down,55abb1a5fdf99b501fab62e3,2021-09-11_17h36.16.181,arrow_simon_vert,2021.1.2,Win32,59.95203837,,,,,,,,,,,,,,,,,,,,,left,0,1.4624,33,FALSE,FALSE,8,0,32,0,1,,,,,,,
,,,,,,1,1.719501495,#f3af84,"[""0"",""-0.25""]",up_orange.png,up,,,,,,,,right,right_blue.png,up_orange.png,up,left,down,55abb1a5fdf99b501fab62e3,2021-09-11_17h36.16.181,arrow_simon_vert,2021.1.2,Win32,59.95203837,,,,,,,,,,,,,,,,,,,,,up,1,1.7344,34,TRUE,FALSE,8,1,33,0,1,,,,,,,
,,,,,,1,1.559920454,#a3d0fb,"[""0.25"",""0""]",left_blue.png,left,,,,,,,,left,left_blue.png,down_orange.png,down,right,up,55abb1a5fdf99b501fab62e3,2021-09-11_17h36.16.181,arrow_simon_vert,2021.1.2,Win32,59.95203837,,,,,,,,,,,,,,,,,,,,,left,1,1.0951,35,FALSE,TRUE,8,2,34,3,1,,,,,,,
,,,,,,1,2.459870146,#f3af84,"[""0"",""-0.25""]",up_orange.png,up,,,,,,,,right,right_blue.png,up_orange.png,up,left,down,55abb1a5fdf99b501fab62e3,2021-09-11_17h36.16.181,arrow_simon_vert,2021.1.2,Win32,59.95203837,,,,,,,,,,,,,,,,,,,,,down,0,1.7295,36,TRUE,FALSE,8,3,35,0,1,,,,,,,
,,,,,,1,2.065909019,#a3d0fb,"[""0.25"",""0""]",right_blue.png,right,,,,,,,,right,right_blue.png,up_orange.png,up,right,up,55abb1a5fdf99b501fab62e3,2021-09-11_17h36.16.181,arrow_simon_vert,2021.1.2,Win32,59.95203837,,,,,,,,,,,,,,,,,,,,,right,1,1.3593,37,FALSE,TRUE,9,0,36,1,1,,,,,,,
,,,,,,1,1.663657802,#f3af84,"[""0"",""0.25""]",down_orange.png,down,,,,,,,,left,left_blue.png,down_orange.png,down,right,up,55abb1a5fdf99b501fab62e3,2021-09-11_17h36.16.181,arrow_simon_vert,2021.1.2,Win32,59.95203837,,,,,,,,,,,,,,,,,,,,,down,1,1.7015,38,TRUE,FALSE,9,1,37,3,1,,,,,,,
,,,,,,1,1.741339028,#a3d0fb,"[""-0.25"",""0""]",left_blue.png,left,,,,,,,,left,left_blue.png,down_orange.png,down,left,down,55abb1a5fdf99b501fab62e3,2021-09-11_17h36.16.181,arrow_simon_vert,2021.1.2,Win32,59.95203837,,,,,,,,,,,,,,,,,,,,,left,1,0.5763,39,FALSE,TRUE,9,2,38,2,1,,,,,,,
,,,,,,1,2.408956999,#f3af84,"[""0"",""0.25""]",up_orange.png,up,,,,,,,,right,right_blue.png,up_orange.png,up,right,up,55abb1a5fdf99b501fab62e3,2021-09-11_17h36.16.181,arrow_simon_vert,2021.1.2,Win32,59.95203837,,,,,,,,,,,,,,,,,,,,,down,0,1.1374,40,FALSE,TRUE,9,3,39,1,1,,,,,,,
,,,,,,1,1.94063301,#a3d0fb,"[""0.25"",""0""]",right_blue.png,right,,,,,,,,right,right_blue.png,up_orange.png,up,right,up,55abb1a5fdf99b501fab62e3,2021-09-11_17h36.16.181,arrow_simon_vert,2021.1.2,Win32,59.95203837,,,,,,,,,,,,,,,,,,,,,right,1,1.3439,41,FALSE,TRUE,10,0,40,1,1,,,,,,,
,,,,,,1,1.840070735,#f3af84,"[""0"",""-0.25""]",up_orange.png,up,,,,,,,,right,right_blue.png,up_orange.png,up,left,down,55abb1a5fdf99b501fab62e3,2021-09-11_17h36.16.181,arrow_simon_vert,2021.1.2,Win32,59.95203837,,,,,,,,,,,,,,,,,,,,,up,1,1.3042,42,FALSE,TRUE,10,1,41,0,1,,,,,,,
,,,,,,1,1.587413016,#a3d0fb,"[""0.25"",""0""]",left_blue.png,left,,,,,,,,left,left_blue.png,down_orange.png,down,right,up,55abb1a5fdf99b501fab62e3,2021-09-11_17h36.16.181,arrow_simon_vert,2021.1.2,Win32,59.95203837,,,,,,,,,,,,,,,,,,,,,left,1,1.6777,43,TRUE,FALSE,10,2,42,3,1,,,,,,,
,,,,,,1,1.523990393,#f3af84,"[""0"",""0.25""]",up_orange.png,up,,,,,,,,right,right_blue.png,up_orange.png,up,right,up,55abb1a5fdf99b501fab62e3,2021-09-11_17h36.16.181,arrow_simon_vert,2021.1.2,Win32,59.95203837,,,,,,,,,,,,,,,,,,,,,up,1,1.267,44,FALSE,TRUE,10,3,43,1,1,,,,,,,
,,,,,,0,1.658350441,#a3d0fb,"[""0.25"",""0""]",right_blue.png,right,,,,,,,,right,right_blue.png,up_orange.png,up,right,up,55abb1a5fdf99b501fab62e3,2021-09-11_17h36.16.181,arrow_simon_vert,2021.1.2,Win32,59.95203837,,,,,,,,,,,,,,,,,,,,,right,1,1.51,45,FALSE,FALSE,11,0,44,1,1,,,,,,,
,,,,,,0,2.012496085,#f3af84,"[""0"",""-0.25""]",down_orange.png,down,,,,,,,,left,left_blue.png,down_orange.png,down,left,down,55abb1a5fdf99b501fab62e3,2021-09-11_17h36.16.181,arrow_simon_vert,2021.1.2,Win32,59.95203837,,,,,,,,,,,,,,,,,,,,,down,1,1.4361,46,FALSE,FALSE,11,1,45,2,1,,,,,,,
,,,,,,0,2.136631152,#a3d0fb,"[""-0.25"",""0""]",left_blue.png,left,,,,,,,,left,left_blue.png,down_orange.png,down,left,down,55abb1a5fdf99b501fab62e3,2021-09-11_17h36.16.181,arrow_simon_vert,2021.1.2,Win32,59.95203837,,,,,,,,,,,,,,,,,,,,,left,1,1.4254,47,FALSE,FALSE,11,2,46,2,1,,,,,,,
,,,,,,0,2.443250587,#f3af84,"[""0"",""-0.25""]",up_orange.png,up,,,,,,,,right,right_blue.png,up_orange.png,up,left,down,55abb1a5fdf99b501fab62e3,2021-09-11_17h36.16.181,arrow_simon_vert,2021.1.2,Win32,59.95203837,,,,,,,,,,,,,,,,,,,,,left,0,1.638,48,TRUE,FALSE,11,3,47,0,1,,,,,,,
,,,,,,0,1.750962161,#a3d0fb,"[""0.25"",""0""]",left_blue.png,left,,,,,,,,left,left_blue.png,down_orange.png,down,right,up,55abb1a5fdf99b501fab62e3,2021-09-11_17h36.16.181,arrow_simon_vert,2021.1.2,Win32,59.95203837,,,,,,,,,,,,,,,,,,,,,left,1,1.1961,49,FALSE,TRUE,12,0,48,3,1,,,,,,,
,,,,,,0,1.594314796,#f3af84,"[""0"",""-0.25""]",up_orange.png,up,,,,,,,,right,right_blue.png,up_orange.png,up,left,down,55abb1a5fdf99b501fab62e3,2021-09-11_17h36.16.181,arrow_simon_vert,2021.1.2,Win32,59.95203837,,,,,,,,,,,,,,,,,,,,,up,1,1.1233,50,FALSE,TRUE,12,1,49,0,1,,,,,,,
,,,,,,0,2.187916234,#a3d0fb,"[""0.25"",""0""]",right_blue.png,right,,,,,,,,right,right_blue.png,up_orange.png,up,right,up,55abb1a5fdf99b501fab62e3,2021-09-11_17h36.16.181,arrow_simon_vert,2021.1.2,Win32,59.95203837,,,,,,,,,,,,,,,,,,,,,right,1,1.6877,51,TRUE,FALSE,12,2,50,1,1,,,,,,,
,,,,,,0,2.405128573,#f3af84,"[""0"",""-0.25""]",down_orange.png,down,,,,,,,,left,left_blue.png,down_orange.png,down,left,down,55abb1a5fdf99b501fab62e3,2021-09-11_17h36.16.181,arrow_simon_vert,2021.1.2,Win32,59.95203837,,,,,,,,,,,,,,,,,,,,,down,1,1.8914,52,TRUE,FALSE,12,3,51,2,1,,,,,,,
,,,,,,0,2.005335414,#a3d0fb,"[""0.25"",""0""]",left_blue.png,left,,,,,,,,left,left_blue.png,down_orange.png,down,right,up,55abb1a5fdf99b501fab62e3,2021-09-11_17h36.16.181,arrow_simon_vert,2021.1.2,Win32,59.95203837,,,,,,,,,,,,,,,,,,,,,up,0,1.3882,53,FALSE,TRUE,13,0,52,3,1,,,,,,,
,,,,,,0,1.682479373,#f3af84,"[""0"",""0.25""]",up_orange.png,up,,,,,,,,right,right_blue.png,up_orange.png,up,right,up,55abb1a5fdf99b501fab62e3,2021-09-11_17h36.16.181,arrow_simon_vert,2021.1.2,Win32,59.95203837,,,,,,,,,,,,,,,,,,,,,up,1,1.5219,54,FALSE,FALSE,13,1,53,1,1,,,,,,,
,,,,,,0,2.06612141,#a3d0fb,"[""0.25"",""0""]",right_blue.png,right,,,,,,,,right,right_blue.png,up_orange.png,up,right,up,55abb1a5fdf99b501fab62e3,2021-09-11_17h36.16.181,arrow_simon_vert,2021.1.2,Win32,59.95203837,,,,,,,,,,,,,,,,,,,,,right,1,1.8229,55,TRUE,FALSE,13,2,54,1,1,,,,,,,
,,,,,,0,1.641312533,#f3af84,"[""0"",""-0.25""]",down_orange.png,down,,,,,,,,left,left_blue.png,down_orange.png,down,left,down,55abb1a5fdf99b501fab62e3,2021-09-11_17h36.16.181,arrow_simon_vert,2021.1.2,Win32,59.95203837,,,,,,,,,,,,,,,,,,,,,down,1,1.4358,56,FALSE,FALSE,13,3,55,2,1,,,,,,,
,,,,,,0,2.193212221,#a3d0fb,"[""0.25"",""0""]",left_blue.png,left,,,,,,,,left,left_blue.png,down_orange.png,down,right,up,55abb1a5fdf99b501fab62e3,2021-09-11_17h36.16.181,arrow_simon_vert,2021.1.2,Win32,59.95203837,,,,,,,,,,,,,,,,,,,,,left,1,1.6177,57,TRUE,FALSE,14,0,56,3,1,,,,,,,
,,,,,,0,2.432772917,#f3af84,"[""0"",""0.25""]",up_orange.png,up,,,,,,,,right,right_blue.png,up_orange.png,up,right,up,55abb1a5fdf99b501fab62e3,2021-09-11_17h36.16.181,arrow_simon_vert,2021.1.2,Win32,59.95203837,,,,,,,,,,,,,,,,,,,,,up,1,1.7342,58,TRUE,FALSE,14,1,57,1,1,,,,,,,
,,,,,,0,1.922987218,#a3d0fb,"[""-0.25"",""0""]",right_blue.png,right,,,,,,,,right,right_blue.png,up_orange.png,up,left,down,55abb1a5fdf99b501fab62e3,2021-09-11_17h36.16.181,arrow_simon_vert,2021.1.2,Win32,59.95203837,,,,,,,,,,,,,,,,,,,,,left,0,1.2005,59,FALSE,TRUE,14,2,58,0,1,,,,,,,
,,,,,,0,2.307514629,#f3af84,"[""0"",""0.25""]",up_orange.png,up,,,,,,,,right,right_blue.png,up_orange.png,up,right,up,55abb1a5fdf99b501fab62e3,2021-09-11_17h36.16.181,arrow_simon_vert,2021.1.2,Win32,59.95203837,,,,,,,,,,,,,,,,,,,,,down,0,1.3755,60,FALSE,TRUE,14,3,59,1,1,,,,,,,
,,,,,,,,,,,,,,,,,,,,,,,,,55abb1a5fdf99b501fab62e3,2021-09-11_17h36.16.181,arrow_simon_vert,2021.1.2,Win32,59.95203837,,,,,,,,,,,,,,,,,,,,,,,,,,,,,,,,space,22.4949,2,0,2,0,1
,,,,,,0,2.038500934,#a3d0fb,"[""-0.25"",""0""]",right_blue.png,right,,,,,,,,right,right_blue.png,up_orange.png,up,left,down,55abb1a5fdf99b501fab62e3,2021-09-11_17h36.16.181,arrow_simon_vert,2021.1.2,Win32,59.95203837,,,,,,,,,,,,,,,,,,,,,right,1,1.6368,1,TRUE,FALSE,0,0,0,0,1,,,,,,,
,,,,,,0,1.621182267,#f3af84,"[""0"",""0.25""]",down_orange.png,down,,,,,,,,left,left_blue.png,down_orange.png,down,right,up,55abb1a5fdf99b501fab62e3,2021-09-11_17h36.16.181,arrow_simon_vert,2021.1.2,Win32,59.95203837,,,,,,,,,,,,,,,,,,,,,down,1,1.1429,2,FALSE,TRUE,0,1,1,3,1,,,,,,,
,,,,,,0,1.731313164,#a3d0fb,"[""0.25"",""0""]",left_blue.png,left,,,,,,,,left,left_blue.png,down_orange.png,down,right,up,55abb1a5fdf99b501fab62e3,2021-09-11_17h36.16.181,arrow_simon_vert,2021.1.2,Win32,59.95203837,,,,,,,,,,,,,,,,,,,,,left,1,1.1266,3,FALSE,TRUE,0,2,2,3,1,,,,,,,
,,,,,,0,2.095795172,#f3af84,"[""0"",""0.25""]",down_orange.png,down,,,,,,,,left,left_blue.png,down_orange.png,down,right,up,55abb1a5fdf99b501fab62e3,2021-09-11_17h36.16.181,arrow_simon_vert,2021.1.2,Win32,59.95203837,,,,,,,,,,,,,,,,,,,,,up,0,1.3903,4,FALSE,TRUE,0,3,3,3,1,,,,,,,
,,,,,,0,2.248783501,#a3d0fb,"[""0.25"",""0""]",right_blue.png,right,,,,,,,,right,right_blue.png,up_orange.png,up,right,up,55abb1a5fdf99b501fab62e3,2021-09-11_17h36.16.181,arrow_simon_vert,2021.1.2,Win32,59.95203837,,,,,,,,,,,,,,,,,,,,,right,1,1.6413,5,TRUE,FALSE,1,0,4,1,1,,,,,,,
,,,,,,0,1.99123017,#f3af84,"[""0"",""0.25""]",up_orange.png,up,,,,,,,,right,right_blue.png,up_orange.png,up,right,up,55abb1a5fdf99b501fab62e3,2021-09-11_17h36.16.181,arrow_simon_vert,2021.1.2,Win32,59.95203837,,,,,,,,,,,,,,,,,,,,,down,0,1.0897,6,FALSE,TRUE,1,1,5,1,1,,,,,,,
,,,,,,0,2.035999919,#a3d0fb,"[""0.25"",""0""]",left_blue.png,left,,,,,,,,left,left_blue.png,down_orange.png,down,right,up,55abb1a5fdf99b501fab62e3,2021-09-11_17h36.16.181,arrow_simon_vert,2021.1.2,Win32,59.95203837,,,,,,,,,,,,,,,,,,,,,left,1,1.4373,7,FALSE,FALSE,1,2,6,3,1,,,,,,,
,,,,,,0,2.083515373,#f3af84,"[""0"",""0.25""]",down_orange.png,down,,,,,,,,left,left_blue.png,down_orange.png,down,right,up,55abb1a5fdf99b501fab62e3,2021-09-11_17h36.16.181,arrow_simon_vert,2021.1.2,Win32,59.95203837,,,,,,,,,,,,,,,,,,,,,down,1,1.6592,8,TRUE,FALSE,1,3,7,3,1,,,,,,,
,,,,,,0,1.841645583,#a3d0fb,"[""-0.25"",""0""]",left_blue.png,left,,,,,,,,left,left_blue.png,down_orange.png,down,left,down,55abb1a5fdf99b501fab62e3,2021-09-11_17h36.16.181,arrow_simon_vert,2021.1.2,Win32,59.95203837,,,,,,,,,,,,,,,,,,,,,left,1,1.2783,9,FALSE,TRUE,2,0,8,2,1,,,,,,,
,,,,,,0,2.268790246,#f3af84,"[""0"",""-0.25""]",up_orange.png,up,,,,,,,,right,right_blue.png,up_orange.png,up,left,down,55abb1a5fdf99b501fab62e3,2021-09-11_17h36.16.181,arrow_simon_vert,2021.1.2,Win32,59.95203837,,,,,,,,,,,,,,,,,,,,,up,1,1.8376,10,TRUE,FALSE,2,1,9,0,1,,,,,,,
,,,,,,0,2.060686194,#a3d0fb,"[""-0.25"",""0""]",right_blue.png,right,,,,,,,,right,right_blue.png,up_orange.png,up,left,down,55abb1a5fdf99b501fab62e3,2021-09-11_17h36.16.181,arrow_simon_vert,2021.1.2,Win32,59.95203837,,,,,,,,,,,,,,,,,,,,,right,1,1.6017,11,TRUE,FALSE,2,2,10,0,1,,,,,,,
,,,,,,0,2.058077398,#f3af84,"[""0"",""-0.25""]",up_orange.png,up,,,,,,,,right,right_blue.png,up_orange.png,up,left,down,55abb1a5fdf99b501fab62e3,2021-09-11_17h36.16.181,arrow_simon_vert,2021.1.2,Win32,59.95203837,,,,,,,,,,,,,,,,,,,,,up,1,1.5724,12,FALSE,FALSE,2,3,11,0,1,,,,,,,
,,,,,,0,1.804589263,#a3d0fb,"[""-0.25"",""0""]",left_blue.png,left,,,,,,,,left,left_blue.png,down_orange.png,down,left,down,55abb1a5fdf99b501fab62e3,2021-09-11_17h36.16.181,arrow_simon_vert,2021.1.2,Win32,59.95203837,,,,,,,,,,,,,,,,,,,,,left,1,1.2967,13,FALSE,TRUE,3,0,12,2,1,,,,,,,
,,,,,,0,1.88845837,#f3af84,"[""0"",""0.25""]",up_orange.png,up,,,,,,,,right,right_blue.png,up_orange.png,up,right,up,55abb1a5fdf99b501fab62e3,2021-09-11_17h36.16.181,arrow_simon_vert,2021.1.2,Win32,59.95203837,,,,,,,,,,,,,,,,,,,,,up,1,1.7094,14,TRUE,FALSE,3,1,13,1,1,,,,,,,
,,,,,,0,2.429142495,#a3d0fb,"[""0.25"",""0""]",right_blue.png,right,,,,,,,,right,right_blue.png,up_orange.png,up,right,up,55abb1a5fdf99b501fab62e3,2021-09-11_17h36.16.181,arrow_simon_vert,2021.1.2,Win32,59.95203837,,,,,,,,,,,,,,,,,,,,,right,1,1.7253,15,TRUE,FALSE,3,2,14,1,1,,,,,,,
,,,,,,0,1.552701905,#f3af84,"[""0"",""0.25""]",down_orange.png,down,,,,,,,,left,left_blue.png,down_orange.png,down,right,up,55abb1a5fdf99b501fab62e3,2021-09-11_17h36.16.181,arrow_simon_vert,2021.1.2,Win32,59.95203837,,,,,,,,,,,,,,,,,,,,,down,1,1.1328,16,FALSE,TRUE,3,3,15,3,1,,,,,,,
