instruct_resp_simon.keys,instruct_resp_simon.corr,instruct_resp_simon.rt,trial_resp_simon.keys,trial_resp_simon.corr,trial_resp_simon.rt,kerr,target_onset,target_color,target_pos,target_file,target_resp,trials_train_simon.thisRepN,trials_train_simon.thisTrialN,trials_train_simon.thisN,trials_train_simon.thisIndex,trials_train_simon.ran,odd_target_pos,even_target_pos,odd_target_resp,odd_target_file,even_target_file,even_target_resp,odd_target_side,even_target_side,participant,date,expName,psychopyVersion,OS,frameRate,train_block_note_resp.keys,train_block_note_resp.rt,blocks_train.thisRepN,blocks_train.thisTrialN,blocks_train.thisN,blocks_train.thisIndex,blocks_train.ran,instruct_resp_timing.keys,instruct_resp_timing.corr,instruct_resp_timing.rt,trial_resp_timing.keys,trial_resp_timing.rt,trials_train_timing.thisRepN,trials_train_timing.thisTrialN,trials_train_timing.thisN,trials_train_timing.thisIndex,trials_train_timing.ran,instruct_resp.keys,instruct_resp.corr,instruct_resp.rt,trial_resp.keys,trial_resp.corr,trial_resp.rt,trial_num,too_slow,too_soon,trials.thisRepN,trials.thisTrialN,trials.thisN,trials.thisIndex,trials.ran,block_note_resp.keys,block_note_resp.rt,blocks.thisRepN,blocks.thisTrialN,blocks.thisN,blocks.thisIndex,blocks.ran
space,0,89.4775,left,1,1.8163,0,0.603512717,#a3d0fb,"[""0.25"",""0""]",left_blue.png,left,0,0,0,3,1,,,left,left_blue.png,down_orange.png,down,right,up,574ce0a57fd0ec000db73aa6,2021-09-11_16h34.39.923,arrow_simon_vert,2021.1.2,Win32,59.9880024,,,,,,,,,,,,,,,,,,,,,,,,,,,,,,,,,,,,,,
,,,up,1,1.0937,0,0.55293741,#f3af84,"[""0"",""0.25""]",up_orange.png,up,0,1,1,1,1,,,right,right_blue.png,up_orange.png,up,right,up,574ce0a57fd0ec000db73aa6,2021-09-11_16h34.39.923,arrow_simon_vert,2021.1.2,Win32,59.9880024,,,,,,,,,,,,,,,,,,,,,,,,,,,,,,,,,,,,,,
,,,left,1,1.5704,0,0.934404967,#a3d0fb,"[""-0.25"",""0""]",left_blue.png,left,0,2,2,2,1,,,left,left_blue.png,down_orange.png,down,left,down,574ce0a57fd0ec000db73aa6,2021-09-11_16h34.39.923,arrow_simon_vert,2021.1.2,Win32,59.9880024,,,,,,,,,,,,,,,,,,,,,,,,,,,,,,,,,,,,,,
,,,up,1,1.5353,0,0.86298684,#f3af84,"[""0"",""-0.25""]",up_orange.png,up,0,3,3,0,1,,,right,right_blue.png,up_orange.png,up,left,down,574ce0a57fd0ec000db73aa6,2021-09-11_16h34.39.923,arrow_simon_vert,2021.1.2,Win32,59.9880024,,,,,,,,,,,,,,,,,,,,,,,,,,,,,,,,,,,,,,
,,,right,1,1.5629,0,0.966013295,#a3d0fb,"[""0.25"",""0""]",right_blue.png,right,1,0,4,1,1,,,right,right_blue.png,up_orange.png,up,right,up,574ce0a57fd0ec000db73aa6,2021-09-11_16h34.39.923,arrow_simon_vert,2021.1.2,Win32,59.9880024,,,,,,,,,,,,,,,,,,,,,,,,,,,,,,,,,,,,,,
,,,down,1,1.1562,0,0.623251527,#f3af84,"[""0"",""-0.25""]",down_orange.png,down,1,1,5,2,1,,,left,left_blue.png,down_orange.png,down,left,down,574ce0a57fd0ec000db73aa6,2021-09-11_16h34.39.923,arrow_simon_vert,2021.1.2,Win32,59.9880024,,,,,,,,,,,,,,,,,,,,,,,,,,,,,,,,,,,,,,
,,,left,1,1.6855,0,0.571118684,#a3d0fb,"[""-0.25"",""0""]",left_blue.png,left,1,2,6,2,1,,,left,left_blue.png,down_orange.png,down,left,down,574ce0a57fd0ec000db73aa6,2021-09-11_16h34.39.923,arrow_simon_vert,2021.1.2,Win32,59.9880024,,,,,,,,,,,,,,,,,,,,,,,,,,,,,,,,,,,,,,
,,,down,1,1.6103,0,0.853797837,#f3af84,"[""0"",""0.25""]",down_orange.png,down,1,3,7,3,1,,,left,left_blue.png,down_orange.png,down,right,up,574ce0a57fd0ec000db73aa6,2021-09-11_16h34.39.923,arrow_simon_vert,2021.1.2,Win32,59.9880024,,,,,,,,,,,,,,,,,,,,,,,,,,,,,,,,,,,,,,
,,,left,1,1.7969,0,0.697574273,#a3d0fb,"[""-0.25"",""0""]",left_blue.png,left,2,0,8,2,1,,,left,left_blue.png,down_orange.png,down,left,down,574ce0a57fd0ec000db73aa6,2021-09-11_16h34.39.923,arrow_simon_vert,2021.1.2,Win32,59.9880024,,,,,,,,,,,,,,,,,,,,,,,,,,,,,,,,,,,,,,
,,,up,1,1.2846,0,0.512317715,#f3af84,"[""0"",""-0.25""]",up_orange.png,up,2,1,9,0,1,,,right,right_blue.png,up_orange.png,up,left,down,574ce0a57fd0ec000db73aa6,2021-09-11_16h34.39.923,arrow_simon_vert,2021.1.2,Win32,59.9880024,,,,,,,,,,,,,,,,,,,,,,,,,,,,,,,,,,,,,,
,,,right,1,0.8129,0,0.018566144,#a3d0fb,"[""0.25"",""0""]",right_blue.png,right,2,2,10,1,1,,,right,right_blue.png,up_orange.png,up,right,up,574ce0a57fd0ec000db73aa6,2021-09-11_16h34.39.923,arrow_simon_vert,2021.1.2,Win32,59.9880024,,,,,,,,,,,,,,,,,,,,,,,,,,,,,,,,,,,,,,
,,,down,1,1.1388,0,0.273097439,#f3af84,"[""0"",""0.25""]",down_orange.png,down,2,3,11,3,1,,,left,left_blue.png,down_orange.png,down,right,up,574ce0a57fd0ec000db73aa6,2021-09-11_16h34.39.923,arrow_simon_vert,2021.1.2,Win32,59.9880024,,,,,,,,,,,,,,,,,,,,,,,,,,,,,,,,,,,,,,
,,,left,1,1.4255,0,0.728909123,#a3d0fb,"[""0.25"",""0""]",left_blue.png,left,3,0,12,3,1,,,left,left_blue.png,down_orange.png,down,right,up,574ce0a57fd0ec000db73aa6,2021-09-11_16h34.39.923,arrow_simon_vert,2021.1.2,Win32,59.9880024,,,,,,,,,,,,,,,,,,,,,,,,,,,,,,,,,,,,,,
,,,up,1,1.5588,0,0.872798649,#f3af84,"[""0"",""0.25""]",up_orange.png,up,3,1,13,1,1,,,right,right_blue.png,up_orange.png,up,right,up,574ce0a57fd0ec000db73aa6,2021-09-11_16h34.39.923,arrow_simon_vert,2021.1.2,Win32,59.9880024,,,,,,,,,,,,,,,,,,,,,,,,,,,,,,,,,,,,,,
,,,right,1,0.7531,0,0.195775455,#a3d0fb,"[""0.25"",""0""]",right_blue.png,right,3,2,14,1,1,,,right,right_blue.png,up_orange.png,up,right,up,574ce0a57fd0ec000db73aa6,2021-09-11_16h34.39.923,arrow_simon_vert,2021.1.2,Win32,59.9880024,,,,,,,,,,,,,,,,,,,,,,,,,,,,,,,,,,,,,,
,,,down,1,1.1514,0,0.380487986,#f3af84,"[""0"",""-0.25""]",down_orange.png,down,3,3,15,2,1,,,left,left_blue.png,down_orange.png,down,left,down,574ce0a57fd0ec000db73aa6,2021-09-11_16h34.39.923,arrow_simon_vert,2021.1.2,Win32,59.9880024,,,,,,,,,,,,,,,,,,,,,,,,,,,,,,,,,,,,,,
,,,left,1,1.6363,0,0.96846508,#a3d0fb,"[""-0.25"",""0""]",left_blue.png,left,4,0,16,2,1,,,left,left_blue.png,down_orange.png,down,left,down,574ce0a57fd0ec000db73aa6,2021-09-11_16h34.39.923,arrow_simon_vert,2021.1.2,Win32,59.9880024,,,,,,,,,,,,,,,,,,,,,,,,,,,,,,,,,,,,,,
,,,up,1,0.7507,0,0.069901876,#f3af84,"[""0"",""0.25""]",up_orange.png,up,4,1,17,1,1,,,right,right_blue.png,up_orange.png,up,right,up,574ce0a57fd0ec000db73aa6,2021-09-11_16h34.39.923,arrow_simon_vert,2021.1.2,Win32,59.9880024,,,,,,,,,,,,,,,,,,,,,,,,,,,,,,,,,,,,,,
,,,right,1,1.002,0,0.339168317,#a3d0fb,"[""-0.25"",""0""]",right_blue.png,right,4,2,18,0,1,,,right,right_blue.png,up_orange.png,up,left,down,574ce0a57fd0ec000db73aa6,2021-09-11_16h34.39.923,arrow_simon_vert,2021.1.2,Win32,59.9880024,,,,,,,,,,,,,,,,,,,,,,,,,,,,,,,,,,,,,,
,,,up,1,1.2977,0,0.646876206,#f3af84,"[""0"",""-0.25""]",up_orange.png,up,4,3,19,0,1,,,right,right_blue.png,up_orange.png,up,left,down,574ce0a57fd0ec000db73aa6,2021-09-11_16h34.39.923,arrow_simon_vert,2021.1.2,Win32,59.9880024,,,,,,,,,,,,,,,,,,,,,,,,,,,,,,,,,,,,,,
,,,right,1,0.7372,0,0.126853852,#a3d0fb,"[""-0.25"",""0""]",right_blue.png,right,5,0,20,0,1,,,right,right_blue.png,up_orange.png,up,left,down,574ce0a57fd0ec000db73aa6,2021-09-11_16h34.39.923,arrow_simon_vert,2021.1.2,Win32,59.9880024,,,,,,,,,,,,,,,,,,,,,,,,,,,,,,,,,,,,,,
,,,down,1,1.4949,0,0.801324418,#f3af84,"[""0"",""-0.25""]",down_orange.png,down,5,1,21,2,1,,,left,left_blue.png,down_orange.png,down,left,down,574ce0a57fd0ec000db73aa6,2021-09-11_16h34.39.923,arrow_simon_vert,2021.1.2,Win32,59.9880024,,,,,,,,,,,,,,,,,,,,,,,,,,,,,,,,,,,,,,
,,,left,1,1.8786,0,0.870316959,#a3d0fb,"[""0.25"",""0""]",left_blue.png,left,5,2,22,3,1,,,left,left_blue.png,down_orange.png,down,right,up,574ce0a57fd0ec000db73aa6,2021-09-11_16h34.39.923,arrow_simon_vert,2021.1.2,Win32,59.9880024,,,,,,,,,,,,,,,,,,,,,,,,,,,,,,,,,,,,,,
,,,up,1,1.2116,0,0.565652028,#f3af84,"[""0"",""-0.25""]",up_orange.png,up,5,3,23,0,1,,,right,right_blue.png,up_orange.png,up,left,down,574ce0a57fd0ec000db73aa6,2021-09-11_16h34.39.923,arrow_simon_vert,2021.1.2,Win32,59.9880024,,,,,,,,,,,,,,,,,,,,,,,,,,,,,,,,,,,,,,
,,,left,1,0.8513,0,0.07011606,#a3d0fb,"[""0.25"",""0""]",left_blue.png,left,6,0,24,3,1,,,left,left_blue.png,down_orange.png,down,right,up,574ce0a57fd0ec000db73aa6,2021-09-11_16h34.39.923,arrow_simon_vert,2021.1.2,Win32,59.9880024,,,,,,,,,,,,,,,,,,,,,,,,,,,,,,,,,,,,,,
,,,down,1,1.1523,0,0.440736579,#f3af84,"[""0"",""0.25""]",down_orange.png,down,6,1,25,3,1,,,left,left_blue.png,down_orange.png,down,right,up,574ce0a57fd0ec000db73aa6,2021-09-11_16h34.39.923,arrow_simon_vert,2021.1.2,Win32,59.9880024,,,,,,,,,,,,,,,,,,,,,,,,,,,,,,,,,,,,,,
,,,right,1,0.8251,0,0.331739708,#a3d0fb,"[""0.25"",""0""]",right_blue.png,right,6,2,26,1,1,,,right,right_blue.png,up_orange.png,up,right,up,574ce0a57fd0ec000db73aa6,2021-09-11_16h34.39.923,arrow_simon_vert,2021.1.2,Win32,59.9880024,,,,,,,,,,,,,,,,,,,,,,,,,,,,,,,,,,,,,,
,,,up,1,1.2023,0,0.564356378,#f3af84,"[""0"",""0.25""]",up_orange.png,up,6,3,27,1,1,,,right,right_blue.png,up_orange.png,up,right,up,574ce0a57fd0ec000db73aa6,2021-09-11_16h34.39.923,arrow_simon_vert,2021.1.2,Win32,59.9880024,,,,,,,,,,,,,,,,,,,,,,,,,,,,,,,,,,,,,,
,,,right,1,0.993,0,0.41283956,#a3d0fb,"[""-0.25"",""0""]",right_blue.png,right,7,0,28,0,1,,,right,right_blue.png,up_orange.png,up,left,down,574ce0a57fd0ec000db73aa6,2021-09-11_16h34.39.923,arrow_simon_vert,2021.1.2,Win32,59.9880024,,,,,,,,,,,,,,,,,,,,,,,,,,,,,,,,,,,,,,
,,,up,1,1.3566,0,0.750929895,#f3af84,"[""0"",""-0.25""]",up_orange.png,up,7,1,29,0,1,,,right,right_blue.png,up_orange.png,up,left,down,574ce0a57fd0ec000db73aa6,2021-09-11_16h34.39.923,arrow_simon_vert,2021.1.2,Win32,59.9880024,,,,,,,,,,,,,,,,,,,,,,,,,,,,,,,,,,,,,,
,,,left,1,1.5783,0,0.890738689,#a3d0fb,"[""-0.25"",""0""]",left_blue.png,left,7,2,30,2,1,,,left,left_blue.png,down_orange.png,down,left,down,574ce0a57fd0ec000db73aa6,2021-09-11_16h34.39.923,arrow_simon_vert,2021.1.2,Win32,59.9880024,,,,,,,,,,,,,,,,,,,,,,,,,,,,,,,,,,,,,,
,,,down,1,1.3368,0,0.676941248,#f3af84,"[""0"",""0.25""]",down_orange.png,down,7,3,31,3,1,,,left,left_blue.png,down_orange.png,down,right,up,574ce0a57fd0ec000db73aa6,2021-09-11_16h34.39.923,arrow_simon_vert,2021.1.2,Win32,59.9880024,,,,,,,,,,,,,,,,,,,,,,,,,,,,,,,,,,,,,,
,,,left,1,1.1407,0,0.512723322,#a3d0fb,"[""-0.25"",""0""]",left_blue.png,left,8,0,32,2,1,,,left,left_blue.png,down_orange.png,down,left,down,574ce0a57fd0ec000db73aa6,2021-09-11_16h34.39.923,arrow_simon_vert,2021.1.2,Win32,59.9880024,,,,,,,,,,,,,,,,,,,,,,,,,,,,,,,,,,,,,,
,,,up,1,1.4599,0,0.815064774,#f3af84,"[""0"",""-0.25""]",up_orange.png,up,8,1,33,0,1,,,right,right_blue.png,up_orange.png,up,left,down,574ce0a57fd0ec000db73aa6,2021-09-11_16h34.39.923,arrow_simon_vert,2021.1.2,Win32,59.9880024,,,,,,,,,,,,,,,,,,,,,,,,,,,,,,,,,,,,,,
,,,right,1,1.1512,0,0.577800382,#a3d0fb,"[""0.25"",""0""]",right_blue.png,right,8,2,34,1,1,,,right,right_blue.png,up_orange.png,up,right,up,574ce0a57fd0ec000db73aa6,2021-09-11_16h34.39.923,arrow_simon_vert,2021.1.2,Win32,59.9880024,,,,,,,,,,,,,,,,,,,,,,,,,,,,,,,,,,,,,,
,,,up,1,0.9516,0,0.324080426,#f3af84,"[""0"",""0.25""]",up_orange.png,up,8,3,35,1,1,,,right,right_blue.png,up_orange.png,up,right,up,574ce0a57fd0ec000db73aa6,2021-09-11_16h34.39.923,arrow_simon_vert,2021.1.2,Win32,59.9880024,,,,,,,,,,,,,,,,,,,,,,,,,,,,,,,,,,,,,,
,,,left,1,1.3589,0,0.628464887,#a3d0fb,"[""0.25"",""0""]",left_blue.png,left,9,0,36,3,1,,,left,left_blue.png,down_orange.png,down,right,up,574ce0a57fd0ec000db73aa6,2021-09-11_16h34.39.923,arrow_simon_vert,2021.1.2,Win32,59.9880024,,,,,,,,,,,,,,,,,,,,,,,,,,,,,,,,,,,,,,
,,,up,1,1.0224,0,0.410674127,#f3af84,"[""0"",""-0.25""]",up_orange.png,up,9,1,37,0,1,,,right,right_blue.png,up_orange.png,up,left,down,574ce0a57fd0ec000db73aa6,2021-09-11_16h34.39.923,arrow_simon_vert,2021.1.2,Win32,59.9880024,,,,,,,,,,,,,,,,,,,,,,,,,,,,,,,,,,,,,,
,,,left,1,0.9966,0,0.312271588,#a3d0fb,"[""0.25"",""0""]",left_blue.png,left,9,2,38,3,1,,,left,left_blue.png,down_orange.png,down,right,up,574ce0a57fd0ec000db73aa6,2021-09-11_16h34.39.923,arrow_simon_vert,2021.1.2,Win32,59.9880024,,,,,,,,,,,,,,,,,,,,,,,,,,,,,,,,,,,,,,
,,,down,1,0.7675,0,0.056464556,#f3af84,"[""0"",""-0.25""]",down_orange.png,down,9,3,39,2,1,,,left,left_blue.png,down_orange.png,down,left,down,574ce0a57fd0ec000db73aa6,2021-09-11_16h34.39.923,arrow_simon_vert,2021.1.2,Win32,59.9880024,,,,,,,,,,,,,,,,,,,,,,,,,,,,,,,,,,,,,,
,,,right,1,0.9762,0,0.438572856,#a3d0fb,"[""0.25"",""0""]",right_blue.png,right,10,0,40,1,1,,,right,right_blue.png,up_orange.png,up,right,up,574ce0a57fd0ec000db73aa6,2021-09-11_16h34.39.923,arrow_simon_vert,2021.1.2,Win32,59.9880024,,,,,,,,,,,,,,,,,,,,,,,,,,,,,,,,,,,,,,
,,,up,1,1.5292,0,0.958020723,#f3af84,"[""0"",""-0.25""]",up_orange.png,up,10,1,41,0,1,,,right,right_blue.png,up_orange.png,up,left,down,574ce0a57fd0ec000db73aa6,2021-09-11_16h34.39.923,arrow_simon_vert,2021.1.2,Win32,59.9880024,,,,,,,,,,,,,,,,,,,,,,,,,,,,,,,,,,,,,,
,,,left,1,1.1514,0,0.696514885,#a3d0fb,"[""-0.25"",""0""]",left_blue.png,left,10,2,42,2,1,,,left,left_blue.png,down_orange.png,down,left,down,574ce0a57fd0ec000db73aa6,2021-09-11_16h34.39.923,arrow_simon_vert,2021.1.2,Win32,59.9880024,,,,,,,,,,,,,,,,,,,,,,,,,,,,,,,,,,,,,,
,,,down,1,0.8061,0,0.147571111,#f3af84,"[""0"",""0.25""]",down_orange.png,down,10,3,43,3,1,,,left,left_blue.png,down_orange.png,down,right,up,574ce0a57fd0ec000db73aa6,2021-09-11_16h34.39.923,arrow_simon_vert,2021.1.2,Win32,59.9880024,,,,,,,,,,,,,,,,,,,,,,,,,,,,,,,,,,,,,,
,,,left,1,1.3473,0,0.703243715,#a3d0fb,"[""0.25"",""0""]",left_blue.png,left,11,0,44,3,1,,,left,left_blue.png,down_orange.png,down,right,up,574ce0a57fd0ec000db73aa6,2021-09-11_16h34.39.923,arrow_simon_vert,2021.1.2,Win32,59.9880024,,,,,,,,,,,,,,,,,,,,,,,,,,,,,,,,,,,,,,
,,,down,1,1.1799,0,0.500315012,#f3af84,"[""0"",""-0.25""]",down_orange.png,down,11,1,45,2,1,,,left,left_blue.png,down_orange.png,down,left,down,574ce0a57fd0ec000db73aa6,2021-09-11_16h34.39.923,arrow_simon_vert,2021.1.2,Win32,59.9880024,,,,,,,,,,,,,,,,,,,,,,,,,,,,,,,,,,,,,,
,,,right,1,1.4121,0,0.880788027,#a3d0fb,"[""-0.25"",""0""]",right_blue.png,right,11,2,46,0,1,,,right,right_blue.png,up_orange.png,up,left,down,574ce0a57fd0ec000db73aa6,2021-09-11_16h34.39.923,arrow_simon_vert,2021.1.2,Win32,59.9880024,,,,,,,,,,,,,,,,,,,,,,,,,,,,,,,,,,,,,,
,,,up,1,0.6845,0,0.095963139,#f3af84,"[""0"",""-0.25""]",up_orange.png,up,11,3,47,0,1,,,right,right_blue.png,up_orange.png,up,left,down,574ce0a57fd0ec000db73aa6,2021-09-11_16h34.39.923,arrow_simon_vert,2021.1.2,Win32,59.9880024,,,,,,,,,,,,,,,,,,,,,,,,,,,,,,,,,,,,,,
,,,right,1,0.9517,0,0.510222928,#a3d0fb,"[""0.25"",""0""]",right_blue.png,right,12,0,48,1,1,,,right,right_blue.png,up_orange.png,up,right,up,574ce0a57fd0ec000db73aa6,2021-09-11_16h34.39.923,arrow_simon_vert,2021.1.2,Win32,59.9880024,,,,,,,,,,,,,,,,,,,,,,,,,,,,,,,,,,,,,,
,,,down,1,0.636,0,0.029947832,#f3af84,"[""0"",""-0.25""]",down_orange.png,down,12,1,49,2,1,,,left,left_blue.png,down_orange.png,down,left,down,574ce0a57fd0ec000db73aa6,2021-09-11_16h34.39.923,arrow_simon_vert,2021.1.2,Win32,59.9880024,,,,,,,,,,,,,,,,,,,,,,,,,,,,,,,,,,,,,,
,,,left,1,0.9293,0,0.13417997,#a3d0fb,"[""0.25"",""0""]",left_blue.png,left,12,2,50,3,1,,,left,left_blue.png,down_orange.png,down,right,up,574ce0a57fd0ec000db73aa6,2021-09-11_16h34.39.923,arrow_simon_vert,2021.1.2,Win32,59.9880024,,,,,,,,,,,,,,,,,,,,,,,,,,,,,,,,,,,,,,
,,,down,1,1.0517,0,0.499704178,#f3af84,"[""0"",""-0.25""]",down_orange.png,down,12,3,51,2,1,,,left,left_blue.png,down_orange.png,down,left,down,574ce0a57fd0ec000db73aa6,2021-09-11_16h34.39.923,arrow_simon_vert,2021.1.2,Win32,59.9880024,,,,,,,,,,,,,,,,,,,,,,,,,,,,,,,,,,,,,,
,,,left,1,0.9454,0,0.296405482,#a3d0fb,"[""-0.25"",""0""]",left_blue.png,left,13,0,52,2,1,,,left,left_blue.png,down_orange.png,down,left,down,574ce0a57fd0ec000db73aa6,2021-09-11_16h34.39.923,arrow_simon_vert,2021.1.2,Win32,59.9880024,,,,,,,,,,,,,,,,,,,,,,,,,,,,,,,,,,,,,,
,,,up,1,0.6052,0,0.054048725,#f3af84,"[""0"",""0.25""]",up_orange.png,up,13,1,53,1,1,,,right,right_blue.png,up_orange.png,up,right,up,574ce0a57fd0ec000db73aa6,2021-09-11_16h34.39.923,arrow_simon_vert,2021.1.2,Win32,59.9880024,,,,,,,,,,,,,,,,,,,,,,,,,,,,,,,,,,,,,,
,,,left,1,1.0274,0,0.379506335,#a3d0fb,"[""0.25"",""0""]",left_blue.png,left,13,2,54,3,1,,,left,left_blue.png,down_orange.png,down,right,up,574ce0a57fd0ec000db73aa6,2021-09-11_16h34.39.923,arrow_simon_vert,2021.1.2,Win32,59.9880024,,,,,,,,,,,,,,,,,,,,,,,,,,,,,,,,,,,,,,
,,,up,1,0.7343,0,0.212578884,#f3af84,"[""0"",""0.25""]",up_orange.png,up,13,3,55,1,1,,,right,right_blue.png,up_orange.png,up,right,up,574ce0a57fd0ec000db73aa6,2021-09-11_16h34.39.923,arrow_simon_vert,2021.1.2,Win32,59.9880024,,,,,,,,,,,,,,,,,,,,,,,,,,,,,,,,,,,,,,
,,,right,1,1.4788,0,0.98481975,#a3d0fb,"[""-0.25"",""0""]",right_blue.png,right,14,0,56,0,1,,,right,right_blue.png,up_orange.png,up,left,down,574ce0a57fd0ec000db73aa6,2021-09-11_16h34.39.923,arrow_simon_vert,2021.1.2,Win32,59.9880024,,,,,,,,,,,,,,,,,,,,,,,,,,,,,,,,,,,,,,
,,,down,1,1.1895,0,0.624403094,#f3af84,"[""0"",""0.25""]",down_orange.png,down,14,1,57,3,1,,,left,left_blue.png,down_orange.png,down,right,up,574ce0a57fd0ec000db73aa6,2021-09-11_16h34.39.923,arrow_simon_vert,2021.1.2,Win32,59.9880024,,,,,,,,,,,,,,,,,,,,,,,,,,,,,,,,,,,,,,
,,,right,1,0.5431,0,0.112967903,#a3d0fb,"[""0.25"",""0""]",right_blue.png,right,14,2,58,1,1,,,right,right_blue.png,up_orange.png,up,right,up,574ce0a57fd0ec000db73aa6,2021-09-11_16h34.39.923,arrow_simon_vert,2021.1.2,Win32,59.9880024,,,,,,,,,,,,,,,,,,,,,,,,,,,,,,,,,,,,,,
,,,up,1,1.5182,0,0.972888021,#f3af84,"[""0"",""-0.25""]",up_orange.png,up,14,3,59,0,1,,,right,right_blue.png,up_orange.png,up,left,down,574ce0a57fd0ec000db73aa6,2021-09-11_16h34.39.923,arrow_simon_vert,2021.1.2,Win32,59.9880024,,,,,,,,,,,,,,,,,,,,,,,,,,,,,,,,,,,,,,
,,,,,,,,,,,,,,,,,,,,,,,,,574ce0a57fd0ec000db73aa6,2021-09-11_16h34.39.923,arrow_simon_vert,2021.1.2,Win32,59.9880024,space,19.3356,0,0,0,0,1,,,,,,,,,,,,,,,,,,,,,,,,,,,,,,,
,,,left,1,1.3582,0,0.880286858,#a3d0fb,"[""0.25"",""0""]",left_blue.png,left,0,0,0,3,1,,,left,left_blue.png,down_orange.png,down,right,up,574ce0a57fd0ec000db73aa6,2021-09-11_16h34.39.923,arrow_simon_vert,2021.1.2,Win32,59.9880024,,,,,,,,,,,,,,,,,,,,,,,,,,,,,,,,,,,,,,
,,,down,1,1.3104,0,0.813378683,#f3af84,"[""0"",""-0.25""]",down_orange.png,down,0,1,1,2,1,,,left,left_blue.png,down_orange.png,down,left,down,574ce0a57fd0ec000db73aa6,2021-09-11_16h34.39.923,arrow_simon_vert,2021.1.2,Win32,59.9880024,,,,,,,,,,,,,,,,,,,,,,,,,,,,,,,,,,,,,,
,,,left,1,1.2551,0,0.811210116,#a3d0fb,"[""-0.25"",""0""]",left_blue.png,left,0,2,2,2,1,,,left,left_blue.png,down_orange.png,down,left,down,574ce0a57fd0ec000db73aa6,2021-09-11_16h34.39.923,arrow_simon_vert,2021.1.2,Win32,59.9880024,,,,,,,,,,,,,,,,,,,,,,,,,,,,,,,,,,,,,,
,,,down,1,0.7062,0,0.051715532,#f3af84,"[""0"",""-0.25""]",down_orange.png,down,0,3,3,2,1,,,left,left_blue.png,down_orange.png,down,left,down,574ce0a57fd0ec000db73aa6,2021-09-11_16h34.39.923,arrow_simon_vert,2021.1.2,Win32,59.9880024,,,,,,,,,,,,,,,,,,,,,,,,,,,,,,,,,,,,,,
,,,left,1,1.0412,0,0.497895799,#a3d0fb,"[""0.25"",""0""]",left_blue.png,left,1,0,4,3,1,,,left,left_blue.png,down_orange.png,down,right,up,574ce0a57fd0ec000db73aa6,2021-09-11_16h34.39.923,arrow_simon_vert,2021.1.2,Win32,59.9880024,,,,,,,,,,,,,,,,,,,,,,,,,,,,,,,,,,,,,,
,,,up,1,1.3744,0,0.75657707,#f3af84,"[""0"",""0.25""]",up_orange.png,up,1,1,5,1,1,,,right,right_blue.png,up_orange.png,up,right,up,574ce0a57fd0ec000db73aa6,2021-09-11_16h34.39.923,arrow_simon_vert,2021.1.2,Win32,59.9880024,,,,,,,,,,,,,,,,,,,,,,,,,,,,,,,,,,,,,,
,,,left,1,1.1934,0,0.576230273,#a3d0fb,"[""0.25"",""0""]",left_blue.png,left,1,2,6,3,1,,,left,left_blue.png,down_orange.png,down,right,up,574ce0a57fd0ec000db73aa6,2021-09-11_16h34.39.923,arrow_simon_vert,2021.1.2,Win32,59.9880024,,,,,,,,,,,,,,,,,,,,,,,,,,,,,,,,,,,,,,
,,,up,1,1.5582,0,0.995709137,#f3af84,"[""0"",""-0.25""]",up_orange.png,up,1,3,7,0,1,,,right,right_blue.png,up_orange.png,up,left,down,574ce0a57fd0ec000db73aa6,2021-09-11_16h34.39.923,arrow_simon_vert,2021.1.2,Win32,59.9880024,,,,,,,,,,,,,,,,,,,,,,,,,,,,,,,,,,,,,,
,,,left,1,1.3516,0,0.767955252,#a3d0fb,"[""-0.25"",""0""]",left_blue.png,left,2,0,8,2,1,,,left,left_blue.png,down_orange.png,down,left,down,574ce0a57fd0ec000db73aa6,2021-09-11_16h34.39.923,arrow_simon_vert,2021.1.2,Win32,59.9880024,,,,,,,,,,,,,,,,,,,,,,,,,,,,,,,,,,,,,,
,,,up,1,0.7404,0,0.174735825,#f3af84,"[""0"",""0.25""]",up_orange.png,up,2,1,9,1,1,,,right,right_blue.png,up_orange.png,up,right,up,574ce0a57fd0ec000db73aa6,2021-09-11_16h34.39.923,arrow_simon_vert,2021.1.2,Win32,59.9880024,,,,,,,,,,,,,,,,,,,,,,,,,,,,,,,,,,,,,,
,,,right,1,0.8184,0,0.339055335,#a3d0fb,"[""0.25"",""0""]",right_blue.png,right,2,2,10,1,1,,,right,right_blue.png,up_orange.png,up,right,up,574ce0a57fd0ec000db73aa6,2021-09-11_16h34.39.923,arrow_simon_vert,2021.1.2,Win32,59.9880024,,,,,,,,,,,,,,,,,,,,,,,,,,,,,,,,,,,,,,
,,,up,1,1.1843,0,0.65841663,#f3af84,"[""0"",""-0.25""]",up_orange.png,up,2,3,11,0,1,,,right,right_blue.png,up_orange.png,up,left,down,574ce0a57fd0ec000db73aa6,2021-09-11_16h34.39.923,arrow_simon_vert,2021.1.2,Win32,59.9880024,,,,,,,,,,,,,,,,,,,,,,,,,,,,,,,,,,,,,,
,,,right,1,0.9799,0,0.423607256,#a3d0fb,"[""-0.25"",""0""]",right_blue.png,right,3,0,12,0,1,,,right,right_blue.png,up_orange.png,up,left,down,574ce0a57fd0ec000db73aa6,2021-09-11_16h34.39.923,arrow_simon_vert,2021.1.2,Win32,59.9880024,,,,,,,,,,,,,,,,,,,,,,,,,,,,,,,,,,,,,,
,,,up,1,0.5572,0,0.024024721,#f3af84,"[""0"",""-0.25""]",up_orange.png,up,3,1,13,0,1,,,right,right_blue.png,up_orange.png,up,left,down,574ce0a57fd0ec000db73aa6,2021-09-11_16h34.39.923,arrow_simon_vert,2021.1.2,Win32,59.9880024,,,,,,,,,,,,,,,,,,,,,,,,,,,,,,,,,,,,,,
,,,left,1,0.701,0,0.07198428,#a3d0fb,"[""-0.25"",""0""]",left_blue.png,left,3,2,14,2,1,,,left,left_blue.png,down_orange.png,down,left,down,574ce0a57fd0ec000db73aa6,2021-09-11_16h34.39.923,arrow_simon_vert,2021.1.2,Win32,59.9880024,,,,,,,,,,,,,,,,,,,,,,,,,,,,,,,,,,,,,,
,,,down,1,1.3601,0,0.76504035,#f3af84,"[""0"",""0.25""]",down_orange.png,down,3,3,15,3,1,,,left,left_blue.png,down_orange.png,down,right,up,574ce0a57fd0ec000db73aa6,2021-09-11_16h34.39.923,arrow_simon_vert,2021.1.2,Win32,59.9880024,,,,,,,,,,,,,,,,,,,,,,,,,,,,,,,,,,,,,,
,,,left,1,0.7216,0,0.071248359,#a3d0fb,"[""0.25"",""0""]",left_blue.png,left,4,0,16,3,1,,,left,left_blue.png,down_orange.png,down,right,up,574ce0a57fd0ec000db73aa6,2021-09-11_16h34.39.923,arrow_simon_vert,2021.1.2,Win32,59.9880024,,,,,,,,,,,,,,,,,,,,,,,,,,,,,,,,,,,,,,
,,,down,1,1.3405,0,0.548757267,#f3af84,"[""0"",""-0.25""]",down_orange.png,down,4,1,17,2,1,,,left,left_blue.png,down_orange.png,down,left,down,574ce0a57fd0ec000db73aa6,2021-09-11_16h34.39.923,arrow_simon_vert,2021.1.2,Win32,59.9880024,,,,,,,,,,,,,,,,,,,,,,,,,,,,,,,,,,,,,,
,,,right,1,1.2176,0,0.536485041,#a3d0fb,"[""0.25"",""0""]",right_blue.png,right,4,2,18,1,1,,,right,right_blue.png,up_orange.png,up,right,up,574ce0a57fd0ec000db73aa6,2021-09-11_16h34.39.923,arrow_simon_vert,2021.1.2,Win32,59.9880024,,,,,,,,,,,,,,,,,,,,,,,,,,,,,,,,,,,,,,
,,,up,1,1.0509,0,0.400069519,#f3af84,"[""0"",""0.25""]",up_orange.png,up,4,3,19,1,1,,,right,right_blue.png,up_orange.png,up,right,up,574ce0a57fd0ec000db73aa6,2021-09-11_16h34.39.923,arrow_simon_vert,2021.1.2,Win32,59.9880024,,,,,,,,,,,,,,,,,,,,,,,,,,,,,,,,,,,,,,
,,,right,1,1.2606,0,0.638578335,#a3d0fb,"[""-0.25"",""0""]",right_blue.png,right,5,0,20,0,1,,,right,right_blue.png,up_orange.png,up,left,down,574ce0a57fd0ec000db73aa6,2021-09-11_16h34.39.923,arrow_simon_vert,2021.1.2,Win32,59.9880024,,,,,,,,,,,,,,,,,,,,,,,,,,,,,,,,,,,,,,
,,,down,1,1.3092,0,0.606403279,#f3af84,"[""0"",""0.25""]",down_orange.png,down,5,1,21,3,1,,,left,left_blue.png,down_orange.png,down,right,up,574ce0a57fd0ec000db73aa6,2021-09-11_16h34.39.923,arrow_simon_vert,2021.1.2,Win32,59.9880024,,,,,,,,,,,,,,,,,,,,,,,,,,,,,,,,,,,,,,
,,,left,1,1.1395,0,0.51826905,#a3d0fb,"[""-0.25"",""0""]",left_blue.png,left,5,2,22,2,1,,,left,left_blue.png,down_orange.png,down,left,down,574ce0a57fd0ec000db73aa6,2021-09-11_16h34.39.923,arrow_simon_vert,2021.1.2,Win32,59.9880024,,,,,,,,,,,,,,,,,,,,,,,,,,,,,,,,,,,,,,
,,,up,1,0.6509,0,0.046807212,#f3af84,"[""0"",""-0.25""]",up_orange.png,up,5,3,23,0,1,,,right,right_blue.png,up_orange.png,up,left,down,574ce0a57fd0ec000db73aa6,2021-09-11_16h34.39.923,arrow_simon_vert,2021.1.2,Win32,59.9880024,,,,,,,,,,,,,,,,,,,,,,,,,,,,,,,,,,,,,,
,,,right,1,0.9219,0,0.435031569,#a3d0fb,"[""-0.25"",""0""]",right_blue.png,right,6,0,24,0,1,,,right,right_blue.png,up_orange.png,up,left,down,574ce0a57fd0ec000db73aa6,2021-09-11_16h34.39.923,arrow_simon_vert,2021.1.2,Win32,59.9880024,,,,,,,,,,,,,,,,,,,,,,,,,,,,,,,,,,,,,,
,,,down,1,1.0196,0,0.473712751,#f3af84,"[""0"",""-0.25""]",down_orange.png,down,6,1,25,2,1,,,left,left_blue.png,down_orange.png,down,left,down,574ce0a57fd0ec000db73aa6,2021-09-11_16h34.39.923,arrow_simon_vert,2021.1.2,Win32,59.9880024,,,,,,,,,,,,,,,,,,,,,,,,,,,,,,,,,,,,,,
,,,left,1,1.4761,0,0.829079095,#a3d0fb,"[""0.25"",""0""]",left_blue.png,left,6,2,26,3,1,,,left,left_blue.png,down_orange.png,down,right,up,574ce0a57fd0ec000db73aa6,2021-09-11_16h34.39.923,arrow_simon_vert,2021.1.2,Win32,59.9880024,,,,,,,,,,,,,,,,,,,,,,,,,,,,,,,,,,,,,,
,,,up,1,1.0009,0,0.315394046,#f3af84,"[""0"",""-0.25""]",up_orange.png,up,6,3,27,0,1,,,right,right_blue.png,up_orange.png,up,left,down,574ce0a57fd0ec000db73aa6,2021-09-11_16h34.39.923,arrow_simon_vert,2021.1.2,Win32,59.9880024,,,,,,,,,,,,,,,,,,,,,,,,,,,,,,,,,,,,,,
,,,right,1,1.185,0,0.633099645,#a3d0fb,"[""0.25"",""0""]",right_blue.png,right,7,0,28,1,1,,,right,right_blue.png,up_orange.png,up,right,up,574ce0a57fd0ec000db73aa6,2021-09-11_16h34.39.923,arrow_simon_vert,2021.1.2,Win32,59.9880024,,,,,,,,,,,,,,,,,,,,,,,,,,,,,,,,,,,,,,
,,,up,1,1.3575,0,0.855233673,#f3af84,"[""0"",""0.25""]",up_orange.png,up,7,1,29,1,1,,,right,right_blue.png,up_orange.png,up,right,up,574ce0a57fd0ec000db73aa6,2021-09-11_16h34.39.923,arrow_simon_vert,2021.1.2,Win32,59.9880024,,,,,,,,,,,,,,,,,,,,,,,,,,,,,,,,,,,,,,
,,,right,1,1.2288,0,0.770729819,#a3d0fb,"[""0.25"",""0""]",right_blue.png,right,7,2,30,1,1,,,right,right_blue.png,up_orange.png,up,right,up,574ce0a57fd0ec000db73aa6,2021-09-11_16h34.39.923,arrow_simon_vert,2021.1.2,Win32,59.9880024,,,,,,,,,,,,,,,,,,,,,,,,,,,,,,,,,,,,,,
,,,down,1,1.0862,0,0.4549743,#f3af84,"[""0"",""0.25""]",down_orange.png,down,7,3,31,3,1,,,left,left_blue.png,down_orange.png,down,right,up,574ce0a57fd0ec000db73aa6,2021-09-11_16h34.39.923,arrow_simon_vert,2021.1.2,Win32,59.9880024,,,,,,,,,,,,,,,,,,,,,,,,,,,,,,,,,,,,,,
,,,left,1,1.2682,0,0.747791528,#a3d0fb,"[""-0.25"",""0""]",left_blue.png,left,8,0,32,2,1,,,left,left_blue.png,down_orange.png,down,left,down,574ce0a57fd0ec000db73aa6,2021-09-11_16h34.39.923,arrow_simon_vert,2021.1.2,Win32,59.9880024,,,,,,,,,,,,,,,,,,,,,,,,,,,,,,,,,,,,,,
,,,up,1,1.1571,0,0.587628331,#f3af84,"[""0"",""-0.25""]",up_orange.png,up,8,1,33,0,1,,,right,right_blue.png,up_orange.png,up,left,down,574ce0a57fd0ec000db73aa6,2021-09-11_16h34.39.923,arrow_simon_vert,2021.1.2,Win32,59.9880024,,,,,,,,,,,,,,,,,,,,,,,,,,,,,,,,,,,,,,
,,,right,1,1.0845,0,0.647334887,#a3d0fb,"[""-0.25"",""0""]",right_blue.png,right,8,2,34,0,1,,,right,right_blue.png,up_orange.png,up,left,down,574ce0a57fd0ec000db73aa6,2021-09-11_16h34.39.923,arrow_simon_vert,2021.1.2,Win32,59.9880024,,,,,,,,,,,,,,,,,,,,,,,,,,,,,,,,,,,,,,
,,,down,1,1.0363,0,0.140603164,#f3af84,"[""0"",""0.25""]",down_orange.png,down,8,3,35,3,1,,,left,left_blue.png,down_orange.png,down,right,up,574ce0a57fd0ec000db73aa6,2021-09-11_16h34.39.923,arrow_simon_vert,2021.1.2,Win32,59.9880024,,,,,,,,,,,,,,,,,,,,,,,,,,,,,,,,,,,,,,
,,,left,1,0.8817,0,0.094438949,#a3d0fb,"[""0.25"",""0""]",left_blue.png,left,9,0,36,3,1,,,left,left_blue.png,down_orange.png,down,right,up,574ce0a57fd0ec000db73aa6,2021-09-11_16h34.39.923,arrow_simon_vert,2021.1.2,Win32,59.9880024,,,,,,,,,,,,,,,,,,,,,,,,,,,,,,,,,,,,,,
,,,down,1,0.7079,0,0.056326261,#f3af84,"[""0"",""-0.25""]",down_orange.png,down,9,1,37,2,1,,,left,left_blue.png,down_orange.png,down,left,down,574ce0a57fd0ec000db73aa6,2021-09-11_16h34.39.923,arrow_simon_vert,2021.1.2,Win32,59.9880024,,,,,,,,,,,,,,,,,,,,,,,,,,,,,,,,,,,,,,
,,,left,1,0.6001,0,0.098968589,#a3d0fb,"[""0.25"",""0""]",left_blue.png,left,9,2,38,3,1,,,left,left_blue.png,down_orange.png,down,right,up,574ce0a57fd0ec000db73aa6,2021-09-11_16h34.39.923,arrow_simon_vert,2021.1.2,Win32,59.9880024,,,,,,,,,,,,,,,,,,,,,,,,,,,,,,,,,,,,,,
,,,down,1,1.4359,0,0.810226536,#f3af84,"[""0"",""0.25""]",down_orange.png,down,9,3,39,3,1,,,left,left_blue.png,down_orange.png,down,right,up,574ce0a57fd0ec000db73aa6,2021-09-11_16h34.39.923,arrow_simon_vert,2021.1.2,Win32,59.9880024,,,,,,,,,,,,,,,,,,,,,,,,,,,,,,,,,,,,,,
,,,right,1,0.8465,0,0.401084149,#a3d0fb,"[""0.25"",""0""]",right_blue.png,right,10,0,40,1,1,,,right,right_blue.png,up_orange.png,up,right,up,574ce0a57fd0ec000db73aa6,2021-09-11_16h34.39.923,arrow_simon_vert,2021.1.2,Win32,59.9880024,,,,,,,,,,,,,,,,,,,,,,,,,,,,,,,,,,,,,,
,,,up,1,0.793,0,0.11923931,#f3af84,"[""0"",""0.25""]",up_orange.png,up,10,1,41,1,1,,,right,right_blue.png,up_orange.png,up,right,up,574ce0a57fd0ec000db73aa6,2021-09-11_16h34.39.923,arrow_simon_vert,2021.1.2,Win32,59.9880024,,,,,,,,,,,,,,,,,,,,,,,,,,,,,,,,,,,,,,
,,,right,1,0.7533,0,0.281181945,#a3d0fb,"[""-0.25"",""0""]",right_blue.png,right,10,2,42,0,1,,,right,right_blue.png,up_orange.png,up,left,down,574ce0a57fd0ec000db73aa6,2021-09-11_16h34.39.923,arrow_simon_vert,2021.1.2,Win32,59.9880024,,,,,,,,,,,,,,,,,,,,,,,,,,,,,,,,,,,,,,
,,,up,1,0.8863,0,0.289329234,#f3af84,"[""0"",""0.25""]",up_orange.png,up,10,3,43,1,1,,,right,right_blue.png,up_orange.png,up,right,up,574ce0a57fd0ec000db73aa6,2021-09-11_16h34.39.923,arrow_simon_vert,2021.1.2,Win32,59.9880024,,,,,,,,,,,,,,,,,,,,,,,,,,,,,,,,,,,,,,
,,,right,1,0.8007,0,0.414344378,#a3d0fb,"[""0.25"",""0""]",right_blue.png,right,11,0,44,1,1,,,right,right_blue.png,up_orange.png,up,right,up,574ce0a57fd0ec000db73aa6,2021-09-11_16h34.39.923,arrow_simon_vert,2021.1.2,Win32,59.9880024,,,,,,,,,,,,,,,,,,,,,,,,,,,,,,,,,,,,,,
,,,up,1,0.6346,0,0.14025506,#f3af84,"[""0"",""0.25""]",up_orange.png,up,11,1,45,1,1,,,right,right_blue.png,up_orange.png,up,right,up,574ce0a57fd0ec000db73aa6,2021-09-11_16h34.39.923,arrow_simon_vert,2021.1.2,Win32,59.9880024,,,,,,,,,,,,,,,,,,,,,,,,,,,,,,,,,,,,,,
,,,right,1,0.81,0,0.383409379,#a3d0fb,"[""-0.25"",""0""]",right_blue.png,right,11,2,46,0,1,,,right,right_blue.png,up_orange.png,up,left,down,574ce0a57fd0ec000db73aa6,2021-09-11_16h34.39.923,arrow_simon_vert,2021.1.2,Win32,59.9880024,,,,,,,,,,,,,,,,,,,,,,,,,,,,,,,,,,,,,,
,,,down,1,1.5218,0,0.849517998,#f3af84,"[""0"",""0.25""]",down_orange.png,down,11,3,47,3,1,,,left,left_blue.png,down_orange.png,down,right,up,574ce0a57fd0ec000db73aa6,2021-09-11_16h34.39.923,arrow_simon_vert,2021.1.2,Win32,59.9880024,,,,,,,,,,,,,,,,,,,,,,,,,,,,,,,,,,,,,,
,,,right,1,0.5057,0,0.005237831,#a3d0fb,"[""-0.25"",""0""]",right_blue.png,right,12,0,48,0,1,,,right,right_blue.png,up_orange.png,up,left,down,574ce0a57fd0ec000db73aa6,2021-09-11_16h34.39.923,arrow_simon_vert,2021.1.2,Win32,59.9880024,,,,,,,,,,,,,,,,,,,,,,,,,,,,,,,,,,,,,,
,,,up,1,1.1285,0,0.594771729,#f3af84,"[""0"",""-0.25""]",up_orange.png,up,12,1,49,0,1,,,right,right_blue.png,up_orange.png,up,left,down,574ce0a57fd0ec000db73aa6,2021-09-11_16h34.39.923,arrow_simon_vert,2021.1.2,Win32,59.9880024,,,,,,,,,,,,,,,,,,,,,,,,,,,,,,,,,,,,,,
,,,left,1,0.7459,0,0.285396934,#a3d0fb,"[""-0.25"",""0""]",left_blue.png,left,12,2,50,2,1,,,left,left_blue.png,down_orange.png,down,left,down,574ce0a57fd0ec000db73aa6,2021-09-11_16h34.39.923,arrow_simon_vert,2021.1.2,Win32,59.9880024,,,,,,,,,,,,,,,,,,,,,,,,,,,,,,,,,,,,,,
,,,down,1,1.368,0,0.730532735,#f3af84,"[""0"",""0.25""]",down_orange.png,down,12,3,51,3,1,,,left,left_blue.png,down_orange.png,down,right,up,574ce0a57fd0ec000db73aa6,2021-09-11_16h34.39.923,arrow_simon_vert,2021.1.2,Win32,59.9880024,,,,,,,,,,,,,,,,,,,,,,,,,,,,,,,,,,,,,,
,,,right,1,1.1223,0,0.639664204,#a3d0fb,"[""-0.25"",""0""]",right_blue.png,right,13,0,52,0,1,,,right,right_blue.png,up_orange.png,up,left,down,574ce0a57fd0ec000db73aa6,2021-09-11_16h34.39.923,arrow_simon_vert,2021.1.2,Win32,59.9880024,,,,,,,,,,,,,,,,,,,,,,,,,,,,,,,,,,,,,,
,,,down,1,1.2235,0,0.65688971,#f3af84,"[""0"",""-0.25""]",down_orange.png,down,13,1,53,2,1,,,left,left_blue.png,down_orange.png,down,left,down,574ce0a57fd0ec000db73aa6,2021-09-11_16h34.39.923,arrow_simon_vert,2021.1.2,Win32,59.9880024,,,,,,,,,,,,,,,,,,,,,,,,,,,,,,,,,,,,,,
,,,left,1,0.8945,0,0.425856389,#a3d0fb,"[""-0.25"",""0""]",left_blue.png,left,13,2,54,2,1,,,left,left_blue.png,down_orange.png,down,left,down,574ce0a57fd0ec000db73aa6,2021-09-11_16h34.39.923,arrow_simon_vert,2021.1.2,Win32,59.9880024,,,,,,,,,,,,,,,,,,,,,,,,,,,,,,,,,,,,,,
,,,down,1,1.3062,0,0.733317415,#f3af84,"[""0"",""-0.25""]",down_orange.png,down,13,3,55,2,1,,,left,left_blue.png,down_orange.png,down,left,down,574ce0a57fd0ec000db73aa6,2021-09-11_16h34.39.923,arrow_simon_vert,2021.1.2,Win32,59.9880024,,,,,,,,,,,,,,,,,,,,,,,,,,,,,,,,,,,,,,
,,,left,1,1.3933,0,0.874142177,#a3d0fb,"[""0.25"",""0""]",left_blue.png,left,14,0,56,3,1,,,left,left_blue.png,down_orange.png,down,right,up,574ce0a57fd0ec000db73aa6,2021-09-11_16h34.39.923,arrow_simon_vert,2021.1.2,Win32,59.9880024,,,,,,,,,,,,,,,,,,,,,,,,,,,,,,,,,,,,,,
,,,up,1,1.1887,0,0.635947964,#f3af84,"[""0"",""0.25""]",up_orange.png,up,14,1,57,1,1,,,right,right_blue.png,up_orange.png,up,right,up,574ce0a57fd0ec000db73aa6,2021-09-11_16h34.39.923,arrow_simon_vert,2021.1.2,Win32,59.9880024,,,,,,,,,,,,,,,,,,,,,,,,,,,,,,,,,,,,,,
,,,left,1,1.0521,0,0.618968536,#a3d0fb,"[""-0.25"",""0""]",left_blue.png,left,14,2,58,2,1,,,left,left_blue.png,down_orange.png,down,left,down,574ce0a57fd0ec000db73aa6,2021-09-11_16h34.39.923,arrow_simon_vert,2021.1.2,Win32,59.9880024,,,,,,,,,,,,,,,,,,,,,,,,,,,,,,,,,,,,,,
,,,up,1,0.6515,0,0.019002422,#f3af84,"[""0"",""0.25""]",up_orange.png,up,14,3,59,1,1,,,right,right_blue.png,up_orange.png,up,right,up,574ce0a57fd0ec000db73aa6,2021-09-11_16h34.39.923,arrow_simon_vert,2021.1.2,Win32,59.9880024,,,,,,,,,,,,,,,,,,,,,,,,,,,,,,,,,,,,,,
,,,,,,,,,,,,,,,,,,,,,,,,,574ce0a57fd0ec000db73aa6,2021-09-11_16h34.39.923,arrow_simon_vert,2021.1.2,Win32,59.9880024,space,103.2958,1,0,1,0,1,,,,,,,,,,,,,,,,,,,,,,,,,,,,,,,
,,,,,,,,,,,,,,,,,,,,,,,,,574ce0a57fd0ec000db73aa6,2021-09-11_16h34.39.923,arrow_simon_vert,2021.1.2,Win32,59.9880024,,,,,,,,space,0,42.744,left,4.1233,0,0,0,0,1,,,,,,,,,,,,,,,,,,,,,
,,,,,,,,,,,,,,,,,,,,,,,,,574ce0a57fd0ec000db73aa6,2021-09-11_16h34.39.923,arrow_simon_vert,2021.1.2,Win32,59.9880024,,,,,,,,,,,up,3.7437,1,0,1,0,1,,,,,,,,,,,,,,,,,,,,,
,,,,,,,,,,,,,,,,,,,,,,,,,574ce0a57fd0ec000db73aa6,2021-09-11_16h34.39.923,arrow_simon_vert,2021.1.2,Win32,59.9880024,,,,,,,,,,,right,2.8534,2,0,2,0,1,,,,,,,,,,,,,,,,,,,,,
,,,,,,,,,,,,,,,,,,,,,,,,,574ce0a57fd0ec000db73aa6,2021-09-11_16h34.39.923,arrow_simon_vert,2021.1.2,Win32,59.9880024,,,,,,,,,,,down,2.6252,3,0,3,0,1,,,,,,,,,,,,,,,,,,,,,
,,,,,,,,,,,,,,,,,,,,,,,,,574ce0a57fd0ec000db73aa6,2021-09-11_16h34.39.923,arrow_simon_vert,2021.1.2,Win32,59.9880024,,,,,,,,,,,left,2.5697,4,0,4,0,1,,,,,,,,,,,,,,,,,,,,,
,,,,,,,,,,,,,,,,,,,,,,,,,574ce0a57fd0ec000db73aa6,2021-09-11_16h34.39.923,arrow_simon_vert,2021.1.2,Win32,59.9880024,,,,,,,,,,,up,2.7915,5,0,5,0,1,,,,,,,,,,,,,,,,,,,,,
,,,,,,,,,,,,,,,,,,,,,,,,,574ce0a57fd0ec000db73aa6,2021-09-11_16h34.39.923,arrow_simon_vert,2021.1.2,Win32,59.9880024,,,,,,,,,,,left,2.6889,6,0,6,0,1,,,,,,,,,,,,,,,,,,,,,
,,,,,,,,,,,,,,,,,,,,,,,,,574ce0a57fd0ec000db73aa6,2021-09-11_16h34.39.923,arrow_simon_vert,2021.1.2,Win32,59.9880024,,,,,,,,,,,up,2.4204,7,0,7,0,1,,,,,,,,,,,,,,,,,,,,,
,,,,,,,,,,,,,,,,,,,,,,,,,574ce0a57fd0ec000db73aa6,2021-09-11_16h34.39.923,arrow_simon_vert,2021.1.2,Win32,59.9880024,,,,,,,,,,,left,2.3621,8,0,8,0,1,,,,,,,,,,,,,,,,,,,,,
,,,,,,,,,,,,,,,,,,,,,,,,,574ce0a57fd0ec000db73aa6,2021-09-11_16h34.39.923,arrow_simon_vert,2021.1.2,Win32,59.9880024,,,,,,,,,,,up,2.555,9,0,9,0,1,,,,,,,,,,,,,,,,,,,,,
,,,,,,,,,,,,,,,,,,,,,,,,,574ce0a57fd0ec000db73aa6,2021-09-11_16h34.39.923,arrow_simon_vert,2021.1.2,Win32,59.9880024,,,,,,,,,,,left,3.1091,10,0,10,0,1,,,,,,,,,,,,,,,,,,,,,
,,,,,,,,,,,,,,,,,,,,,,,,,574ce0a57fd0ec000db73aa6,2021-09-11_16h34.39.923,arrow_simon_vert,2021.1.2,Win32,59.9880024,,,,,,,,,,,up,2.4037,11,0,11,0,1,,,,,,,,,,,,,,,,,,,,,
,,,,,,,,,,,,,,,,,,,,,,,,,574ce0a57fd0ec000db73aa6,2021-09-11_16h34.39.923,arrow_simon_vert,2021.1.2,Win32,59.9880024,,,,,,,,,,,left,2.3699,12,0,12,0,1,,,,,,,,,,,,,,,,,,,,,
,,,,,,,,,,,,,,,,,,,,,,,,,574ce0a57fd0ec000db73aa6,2021-09-11_16h34.39.923,arrow_simon_vert,2021.1.2,Win32,59.9880024,,,,,,,,,,,up,2.4184,13,0,13,0,1,,,,,,,,,,,,,,,,,,,,,
,,,,,,,,,,,,,,,,,,,,,,,,,574ce0a57fd0ec000db73aa6,2021-09-11_16h34.39.923,arrow_simon_vert,2021.1.2,Win32,59.9880024,,,,,,,,,,,left,2.4194,14,0,14,0,1,,,,,,,,,,,,,,,,,,,,,
,,,,,,,,,,,,,,,,,,,,,,,,,574ce0a57fd0ec000db73aa6,2021-09-11_16h34.39.923,arrow_simon_vert,2021.1.2,Win32,59.9880024,,,,,,,,,,,up,2.4427,15,0,15,0,1,,,,,,,,,,,,,,,,,,,,,
,,,,,,,,,,,,,,,,,,,,,,,,,574ce0a57fd0ec000db73aa6,2021-09-11_16h34.39.923,arrow_simon_vert,2021.1.2,Win32,59.9880024,,,,,,,,,,,left,2.4512,16,0,16,0,1,,,,,,,,,,,,,,,,,,,,,
,,,,,,,,,,,,,,,,,,,,,,,,,574ce0a57fd0ec000db73aa6,2021-09-11_16h34.39.923,arrow_simon_vert,2021.1.2,Win32,59.9880024,,,,,,,,,,,up,2.4958,17,0,17,0,1,,,,,,,,,,,,,,,,,,,,,
,,,,,,,,,,,,,,,,,,,,,,,,,574ce0a57fd0ec000db73aa6,2021-09-11_16h34.39.923,arrow_simon_vert,2021.1.2,Win32,59.9880024,,,,,,,,,,,left,2.4471,18,0,18,0,1,,,,,,,,,,,,,,,,,,,,,
,,,,,,,,,,,,,,,,,,,,,,,,,574ce0a57fd0ec000db73aa6,2021-09-11_16h34.39.923,arrow_simon_vert,2021.1.2,Win32,59.9880024,,,,,,,,,,,up,2.3916,19,0,19,0,1,,,,,,,,,,,,,,,,,,,,,
,,,,,,,,,,,,,,,,,,,,,,,,,574ce0a57fd0ec000db73aa6,2021-09-11_16h34.39.923,arrow_simon_vert,2021.1.2,Win32,59.9880024,,,,,,,,,,,left,2.3571,20,0,20,0,1,,,,,,,,,,,,,,,,,,,,,
,,,,,,,,,,,,,,,,,,,,,,,,,574ce0a57fd0ec000db73aa6,2021-09-11_16h34.39.923,arrow_simon_vert,2021.1.2,Win32,59.9880024,,,,,,,,,,,up,2.2955,21,0,21,0,1,,,,,,,,,,,,,,,,,,,,,
,,,,,,,,,,,,,,,,,,,,,,,,,574ce0a57fd0ec000db73aa6,2021-09-11_16h34.39.923,arrow_simon_vert,2021.1.2,Win32,59.9880024,,,,,,,,,,,left,2.3782,22,0,22,0,1,,,,,,,,,,,,,,,,,,,,,
,,,,,,,,,,,,,,,,,,,,,,,,,574ce0a57fd0ec000db73aa6,2021-09-11_16h34.39.923,arrow_simon_vert,2021.1.2,Win32,59.9880024,,,,,,,,,,,up,2.4694,23,0,23,0,1,,,,,,,,,,,,,,,,,,,,,
,,,,,,,,,,,,,,,,,,,,,,,,,574ce0a57fd0ec000db73aa6,2021-09-11_16h34.39.923,arrow_simon_vert,2021.1.2,Win32,59.9880024,,,,,,,,,,,left,2.4013,24,0,24,0,1,,,,,,,,,,,,,,,,,,,,,
,,,,,,,,,,,,,,,,,,,,,,,,,574ce0a57fd0ec000db73aa6,2021-09-11_16h34.39.923,arrow_simon_vert,2021.1.2,Win32,59.9880024,,,,,,,,,,,up,2.4111,25,0,25,0,1,,,,,,,,,,,,,,,,,,,,,
,,,,,,,,,,,,,,,,,,,,,,,,,574ce0a57fd0ec000db73aa6,2021-09-11_16h34.39.923,arrow_simon_vert,2021.1.2,Win32,59.9880024,,,,,,,,,,,left,2.5713,26,0,26,0,1,,,,,,,,,,,,,,,,,,,,,
,,,,,,,,,,,,,,,,,,,,,,,,,574ce0a57fd0ec000db73aa6,2021-09-11_16h34.39.923,arrow_simon_vert,2021.1.2,Win32,59.9880024,,,,,,,,,,,up,2.3446,27,0,27,0,1,,,,,,,,,,,,,,,,,,,,,
,,,,,,,,,,,,,,,,,,,,,,,,,574ce0a57fd0ec000db73aa6,2021-09-11_16h34.39.923,arrow_simon_vert,2021.1.2,Win32,59.9880024,,,,,,,,,,,left,2.4523,28,0,28,0,1,,,,,,,,,,,,,,,,,,,,,
,,,,,,,,,,,,,,,,,,,,,,,,,574ce0a57fd0ec000db73aa6,2021-09-11_16h34.39.923,arrow_simon_vert,2021.1.2,Win32,59.9880024,,,,,,,,,,,up,2.5913,29,0,29,0,1,,,,,,,,,,,,,,,,,,,,,
,,,,,,,,,,,,,,,,,,,,,,,,,574ce0a57fd0ec000db73aa6,2021-09-11_16h34.39.923,arrow_simon_vert,2021.1.2,Win32,59.9880024,,,,,,,,,,,left,2.5035,30,0,30,0,1,,,,,,,,,,,,,,,,,,,,,
,,,,,,,,,,,,,,,,,,,,,,,,,574ce0a57fd0ec000db73aa6,2021-09-11_16h34.39.923,arrow_simon_vert,2021.1.2,Win32,59.9880024,,,,,,,,,,,up,2.4446,31,0,31,0,1,,,,,,,,,,,,,,,,,,,,,
,,,,,,,,,,,,,,,,,,,,,,,,,574ce0a57fd0ec000db73aa6,2021-09-11_16h34.39.923,arrow_simon_vert,2021.1.2,Win32,59.9880024,,,,,,,,,,,left,2.3759,32,0,32,0,1,,,,,,,,,,,,,,,,,,,,,
,,,,,,,,,,,,,,,,,,,,,,,,,574ce0a57fd0ec000db73aa6,2021-09-11_16h34.39.923,arrow_simon_vert,2021.1.2,Win32,59.9880024,,,,,,,,,,,up,2.4587,33,0,33,0,1,,,,,,,,,,,,,,,,,,,,,
,,,,,,,,,,,,,,,,,,,,,,,,,574ce0a57fd0ec000db73aa6,2021-09-11_16h34.39.923,arrow_simon_vert,2021.1.2,Win32,59.9880024,,,,,,,,,,,left,2.4063,34,0,34,0,1,,,,,,,,,,,,,,,,,,,,,
,,,,,,,,,,,,,,,,,,,,,,,,,574ce0a57fd0ec000db73aa6,2021-09-11_16h34.39.923,arrow_simon_vert,2021.1.2,Win32,59.9880024,,,,,,,,,,,up,2.3356,35,0,35,0,1,,,,,,,,,,,,,,,,,,,,,
,,,,,,,,,,,,,,,,,,,,,,,,,574ce0a57fd0ec000db73aa6,2021-09-11_16h34.39.923,arrow_simon_vert,2021.1.2,Win32,59.9880024,,,,,,,,,,,left,2.4852,36,0,36,0,1,,,,,,,,,,,,,,,,,,,,,
,,,,,,,,,,,,,,,,,,,,,,,,,574ce0a57fd0ec000db73aa6,2021-09-11_16h34.39.923,arrow_simon_vert,2021.1.2,Win32,59.9880024,,,,,,,,,,,up,2.5762,37,0,37,0,1,,,,,,,,,,,,,,,,,,,,,
,,,,,,,,,,,,,,,,,,,,,,,,,574ce0a57fd0ec000db73aa6,2021-09-11_16h34.39.923,arrow_simon_vert,2021.1.2,Win32,59.9880024,,,,,,,,,,,left,2.4861,38,0,38,0,1,,,,,,,,,,,,,,,,,,,,,
,,,,,,,,,,,,,,,,,,,,,,,,,574ce0a57fd0ec000db73aa6,2021-09-11_16h34.39.923,arrow_simon_vert,2021.1.2,Win32,59.9880024,,,,,,,,,,,up,2.5229,39,0,39,0,1,,,,,,,,,,,,,,,,,,,,,
,,,,,,,,,,,,,,,,,,,,,,,,,574ce0a57fd0ec000db73aa6,2021-09-11_16h34.39.923,arrow_simon_vert,2021.1.2,Win32,59.9880024,,,,,,,,,,,left,2.5087,40,0,40,0,1,,,,,,,,,,,,,,,,,,,,,
,,,,,,,,,,,,,,,,,,,,,,,,,574ce0a57fd0ec000db73aa6,2021-09-11_16h34.39.923,arrow_simon_vert,2021.1.2,Win32,59.9880024,,,,,,,,,,,up,2.5857,41,0,41,0,1,,,,,,,,,,,,,,,,,,,,,
,,,,,,,,,,,,,,,,,,,,,,,,,574ce0a57fd0ec000db73aa6,2021-09-11_16h34.39.923,arrow_simon_vert,2021.1.2,Win32,59.9880024,,,,,,,,,,,left,2.4032,42,0,42,0,1,,,,,,,,,,,,,,,,,,,,,
,,,,,,,,,,,,,,,,,,,,,,,,,574ce0a57fd0ec000db73aa6,2021-09-11_16h34.39.923,arrow_simon_vert,2021.1.2,Win32,59.9880024,,,,,,,,,,,up,2.3682,43,0,43,0,1,,,,,,,,,,,,,,,,,,,,,
,,,,,,,,,,,,,,,,,,,,,,,,,574ce0a57fd0ec000db73aa6,2021-09-11_16h34.39.923,arrow_simon_vert,2021.1.2,Win32,59.9880024,,,,,,,,,,,left,2.4271,44,0,44,0,1,,,,,,,,,,,,,,,,,,,,,
,,,,,,,,,,,,,,,,,,,,,,,,,574ce0a57fd0ec000db73aa6,2021-09-11_16h34.39.923,arrow_simon_vert,2021.1.2,Win32,59.9880024,,,,,,,,,,,up,2.4346,45,0,45,0,1,,,,,,,,,,,,,,,,,,,,,
,,,,,,,,,,,,,,,,,,,,,,,,,574ce0a57fd0ec000db73aa6,2021-09-11_16h34.39.923,arrow_simon_vert,2021.1.2,Win32,59.9880024,,,,,,,,,,,up,2.5896,46,0,46,0,1,,,,,,,,,,,,,,,,,,,,,
,,,,,,,,,,,,,,,,,,,,,,,,,574ce0a57fd0ec000db73aa6,2021-09-11_16h34.39.923,arrow_simon_vert,2021.1.2,Win32,59.9880024,,,,,,,,,,,up,2.4525,47,0,47,0,1,,,,,,,,,,,,,,,,,,,,,
,,,,,,,,,,,,,,,,,,,,,,,,,574ce0a57fd0ec000db73aa6,2021-09-11_16h34.39.923,arrow_simon_vert,2021.1.2,Win32,59.9880024,,,,,,,,,,,left,2.4589,48,0,48,0,1,,,,,,,,,,,,,,,,,,,,,
,,,,,,,,,,,,,,,,,,,,,,,,,574ce0a57fd0ec000db73aa6,2021-09-11_16h34.39.923,arrow_simon_vert,2021.1.2,Win32,59.9880024,,,,,,,,,,,up,2.6182,49,0,49,0,1,,,,,,,,,,,,,,,,,,,,,
,,,,,,,,,,,,,,,,,,,,,,,,,574ce0a57fd0ec000db73aa6,2021-09-11_16h34.39.923,arrow_simon_vert,2021.1.2,Win32,59.9880024,,,,,,,,,,,left,2.4015,50,0,50,0,1,,,,,,,,,,,,,,,,,,,,,
,,,,,,,,,,,,,,,,,,,,,,,,,574ce0a57fd0ec000db73aa6,2021-09-11_16h34.39.923,arrow_simon_vert,2021.1.2,Win32,59.9880024,,,,,,,,,,,up,2.4349,51,0,51,0,1,,,,,,,,,,,,,,,,,,,,,
,,,,,,,,,,,,,,,,,,,,,,,,,574ce0a57fd0ec000db73aa6,2021-09-11_16h34.39.923,arrow_simon_vert,2021.1.2,Win32,59.9880024,,,,,,,,,,,left,2.4733,52,0,52,0,1,,,,,,,,,,,,,,,,,,,,,
,,,,,,,,,,,,,,,,,,,,,,,,,574ce0a57fd0ec000db73aa6,2021-09-11_16h34.39.923,arrow_simon_vert,2021.1.2,Win32,59.9880024,,,,,,,,,,,up,2.4036,53,0,53,0,1,,,,,,,,,,,,,,,,,,,,,
,,,,,,,,,,,,,,,,,,,,,,,,,574ce0a57fd0ec000db73aa6,2021-09-11_16h34.39.923,arrow_simon_vert,2021.1.2,Win32,59.9880024,,,,,,,,,,,left,2.5526,54,0,54,0,1,,,,,,,,,,,,,,,,,,,,,
,,,,,,,,,,,,,,,,,,,,,,,,,574ce0a57fd0ec000db73aa6,2021-09-11_16h34.39.923,arrow_simon_vert,2021.1.2,Win32,59.9880024,,,,,,,,,,,up,2.4017,55,0,55,0,1,,,,,,,,,,,,,,,,,,,,,
,,,,,,,,,,,,,,,,,,,,,,,,,574ce0a57fd0ec000db73aa6,2021-09-11_16h34.39.923,arrow_simon_vert,2021.1.2,Win32,59.9880024,,,,,,,,,,,left,2.2036,56,0,56,0,1,,,,,,,,,,,,,,,,,,,,,
,,,,,,,,,,,,,,,,,,,,,,,,,574ce0a57fd0ec000db73aa6,2021-09-11_16h34.39.923,arrow_simon_vert,2021.1.2,Win32,59.9880024,,,,,,,,,,,up,2.2353,57,0,57,0,1,,,,,,,,,,,,,,,,,,,,,
,,,,,,,,,,,,,,,,,,,,,,,,,574ce0a57fd0ec000db73aa6,2021-09-11_16h34.39.923,arrow_simon_vert,2021.1.2,Win32,59.9880024,,,,,,,,,,,left,2.4228,58,0,58,0,1,,,,,,,,,,,,,,,,,,,,,
,,,,,,,,,,,,,,,,,,,,,,,,,574ce0a57fd0ec000db73aa6,2021-09-11_16h34.39.923,arrow_simon_vert,2021.1.2,Win32,59.9880024,,,,,,,,,,,up,2.5719,59,0,59,0,1,,,,,,,,,,,,,,,,,,,,,
,,,,,,0,2.468569941,#a3d0fb,"[""0.25"",""0""]",left_blue.png,left,,,,,,,,left,left_blue.png,down_orange.png,down,right,up,574ce0a57fd0ec000db73aa6,2021-09-11_16h34.39.923,arrow_simon_vert,2021.1.2,Win32,59.9880024,,,,,,,,,,,,,,,,,,space,0,44.0196,left,1,1.5715,1,FALSE,FALSE,0,0,0,3,1,,,,,,,
,,,,,,0,1.590613606,#f3af84,"[""0"",""0.25""]",up_orange.png,up,,,,,,,,right,right_blue.png,up_orange.png,up,right,up,574ce0a57fd0ec000db73aa6,2021-09-11_16h34.39.923,arrow_simon_vert,2021.1.2,Win32,59.9880024,,,,,,,,,,,,,,,,,,,,,up,1,1.0846,2,FALSE,TRUE,0,1,1,1,1,,,,,,,
,,,,,,0,2.248187462,#a3d0fb,"[""0.25"",""0""]",left_blue.png,left,,,,,,,,left,left_blue.png,down_orange.png,down,right,up,574ce0a57fd0ec000db73aa6,2021-09-11_16h34.39.923,arrow_simon_vert,2021.1.2,Win32,59.9880024,,,,,,,,,,,,,,,,,,,,,left,1,1.6059,3,TRUE,FALSE,0,2,2,3,1,,,,,,,
,,,,,,0,2.123383189,#f3af84,"[""0"",""0.25""]",up_orange.png,up,,,,,,,,right,right_blue.png,up_orange.png,up,right,up,574ce0a57fd0ec000db73aa6,2021-09-11_16h34.39.923,arrow_simon_vert,2021.1.2,Win32,59.9880024,,,,,,,,,,,,,,,,,,,,,up,1,1.5971,4,FALSE,FALSE,0,3,3,1,1,,,,,,,
,,,,,,0,2.469641621,#a3d0fb,"[""0.25"",""0""]",left_blue.png,left,,,,,,,,left,left_blue.png,down_orange.png,down,right,up,574ce0a57fd0ec000db73aa6,2021-09-11_16h34.39.923,arrow_simon_vert,2021.1.2,Win32,59.9880024,,,,,,,,,,,,,,,,,,,,,left,1,1.9348,5,TRUE,FALSE,1,0,4,3,1,,,,,,,
,,,,,,0,2.309142818,#f3af84,"[""0"",""-0.25""]",up_orange.png,up,,,,,,,,right,right_blue.png,up_orange.png,up,left,down,574ce0a57fd0ec000db73aa6,2021-09-11_16h34.39.923,arrow_simon_vert,2021.1.2,Win32,59.9880024,,,,,,,,,,,,,,,,,,,,,down,0,1.7345,6,TRUE,FALSE,1,1,5,0,1,,,,,,,
,,,,,,0,2.086598524,#a3d0fb,"[""0.25"",""0""]",right_blue.png,right,,,,,,,,right,right_blue.png,up_orange.png,up,right,up,574ce0a57fd0ec000db73aa6,2021-09-11_16h34.39.923,arrow_simon_vert,2021.1.2,Win32,59.9880024,,,,,,,,,,,,,,,,,,,,,right,1,1.5216,7,FALSE,FALSE,1,2,6,1,1,,,,,,,
,,,,,,0,1.871745573,#f3af84,"[""0"",""-0.25""]",up_orange.png,up,,,,,,,,right,right_blue.png,up_orange.png,up,left,down,574ce0a57fd0ec000db73aa6,2021-09-11_16h34.39.923,arrow_simon_vert,2021.1.2,Win32,59.9880024,,,,,,,,,,,,,,,,,,,,,up,1,1.2931,8,FALSE,TRUE,1,3,7,0,1,,,,,,,
,,,,,,0,2.466096613,#a3d0fb,"[""0.25"",""0""]",left_blue.png,left,,,,,,,,left,left_blue.png,down_orange.png,down,right,up,574ce0a57fd0ec000db73aa6,2021-09-11_16h34.39.923,arrow_simon_vert,2021.1.2,Win32,59.9880024,,,,,,,,,,,,,,,,,,,,,left,1,1.835,9,TRUE,FALSE,2,0,8,3,1,,,,,,,
,,,,,,0,1.9909697,#f3af84,"[""0"",""-0.25""]",down_orange.png,down,,,,,,,,left,left_blue.png,down_orange.png,down,left,down,574ce0a57fd0ec000db73aa6,2021-09-11_16h34.39.923,arrow_simon_vert,2021.1.2,Win32,59.9880024,,,,,,,,,,,,,,,,,,,,,right,0,1.7181,10,TRUE,FALSE,2,1,9,2,1,,,,,,,
,,,,,,0,1.51367761,#a3d0fb,"[""0.25"",""0""]",left_blue.png,left,,,,,,,,left,left_blue.png,down_orange.png,down,right,up,574ce0a57fd0ec000db73aa6,2021-09-11_16h34.39.923,arrow_simon_vert,2021.1.2,Win32,59.9880024,,,,,,,,,,,,,,,,,,,,,left,1,1.4901,11,FALSE,FALSE,2,2,10,3,1,,,,,,,
,,,,,,0,1.633996126,#f3af84,"[""0"",""0.25""]",up_orange.png,up,,,,,,,,right,right_blue.png,up_orange.png,up,right,up,574ce0a57fd0ec000db73aa6,2021-09-11_16h34.39.923,arrow_simon_vert,2021.1.2,Win32,59.9880024,,,,,,,,,,,,,,,,,,,,,up,1,1.5847,12,FALSE,FALSE,2,3,11,1,1,,,,,,,
,,,,,,0,2.250377823,#a3d0fb,"[""-0.25"",""0""]",right_blue.png,right,,,,,,,,right,right_blue.png,up_orange.png,up,left,down,574ce0a57fd0ec000db73aa6,2021-09-11_16h34.39.923,arrow_simon_vert,2021.1.2,Win32,59.9880024,,,,,,,,,,,,,,,,,,,,,right,1,1.6691,13,TRUE,FALSE,3,0,12,0,1,,,,,,,
,,,,,,0,2.460528184,#f3af84,"[""0"",""-0.25""]",up_orange.png,up,,,,,,,,right,right_blue.png,up_orange.png,up,left,down,574ce0a57fd0ec000db73aa6,2021-09-11_16h34.39.923,arrow_simon_vert,2021.1.2,Win32,59.9880024,,,,,,,,,,,,,,,,,,,,,up,1,1.9219,14,TRUE,FALSE,3,1,13,0,1,,,,,,,
,,,,,,0,2.263865928,#a3d0fb,"[""-0.25"",""0""]",right_blue.png,right,,,,,,,,right,right_blue.png,up_orange.png,up,left,down,574ce0a57fd0ec000db73aa6,2021-09-11_16h34.39.923,arrow_simon_vert,2021.1.2,Win32,59.9880024,,,,,,,,,,,,,,,,,,,,,right,1,1.7236,15,TRUE,FALSE,3,2,14,0,1,,,,,,,
,,,,,,0,1.913154638,#f3af84,"[""0"",""-0.25""]",down_orange.png,down,,,,,,,,left,left_blue.png,down_orange.png,down,left,down,574ce0a57fd0ec000db73aa6,2021-09-11_16h34.39.923,arrow_simon_vert,2021.1.2,Win32,59.9880024,,,,,,,,,,,,,,,,,,,,,right,0,1.6512,16,TRUE,FALSE,3,3,15,2,1,,,,,,,
,,,,,,0,2.130039254,#a3d0fb,"[""-0.25"",""0""]",left_blue.png,left,,,,,,,,left,left_blue.png,down_orange.png,down,left,down,574ce0a57fd0ec000db73aa6,2021-09-11_16h34.39.923,arrow_simon_vert,2021.1.2,Win32,59.9880024,,,,,,,,,,,,,,,,,,,,,left,1,1.7596,17,TRUE,FALSE,4,0,16,2,1,,,,,,,
,,,,,,0,1.755433912,#f3af84,"[""0"",""0.25""]",down_orange.png,down,,,,,,,,left,left_blue.png,down_orange.png,down,right,up,574ce0a57fd0ec000db73aa6,2021-09-11_16h34.39.923,arrow_simon_vert,2021.1.2,Win32,59.9880024,,,,,,,,,,,,,,,,,,,,,right,0,1.373,18,FALSE,TRUE,4,1,17,3,1,,,,,,,
,,,,,,0,1.646045368,#a3d0fb,"[""-0.25"",""0""]",left_blue.png,left,,,,,,,,left,left_blue.png,down_orange.png,down,left,down,574ce0a57fd0ec000db73aa6,2021-09-11_16h34.39.923,arrow_simon_vert,2021.1.2,Win32,59.9880024,,,,,,,,,,,,,,,,,,,,,left,1,1.4055,19,FALSE,FALSE,4,2,18,2,1,,,,,,,
,,,,,,0,2.062229278,#f3af84,"[""0"",""-0.25""]",down_orange.png,down,,,,,,,,left,left_blue.png,down_orange.png,down,left,down,574ce0a57fd0ec000db73aa6,2021-09-11_16h34.39.923,arrow_simon_vert,2021.1.2,Win32,59.9880024,,,,,,,,,,,,,,,,,,,,,down,1,1.6508,20,TRUE,FALSE,4,3,19,2,1,,,,,,,
,,,,,,0,2.432606697,#a3d0fb,"[""-0.25"",""0""]",right_blue.png,right,,,,,,,,right,right_blue.png,up_orange.png,up,left,down,574ce0a57fd0ec000db73aa6,2021-09-11_16h34.39.923,arrow_simon_vert,2021.1.2,Win32,59.9880024,,,,,,,,,,,,,,,,,,,,,right,1,1.8053,21,TRUE,FALSE,5,0,20,0,1,,,,,,,
,,,,,,0,1.755299547,#f3af84,"[""0"",""0.25""]",down_orange.png,down,,,,,,,,left,left_blue.png,down_orange.png,down,right,up,574ce0a57fd0ec000db73aa6,2021-09-11_16h34.39.923,arrow_simon_vert,2021.1.2,Win32,59.9880024,,,,,,,,,,,,,,,,,,,,,down,1,1.5223,22,FALSE,FALSE,5,1,21,3,1,,,,,,,
,,,,,,0,2.07992328,#a3d0fb,"[""0.25"",""0""]",right_blue.png,right,,,,,,,,right,right_blue.png,up_orange.png,up,right,up,574ce0a57fd0ec000db73aa6,2021-09-11_16h34.39.923,arrow_simon_vert,2021.1.2,Win32,59.9880024,,,,,,,,,,,,,,,,,,,,,right,1,1.4512,23,FALSE,FALSE,5,2,22,1,1,,,,,,,
,,,,,,0,1.849214013,#f3af84,"[""0"",""0.25""]",down_orange.png,down,,,,,,,,left,left_blue.png,down_orange.png,down,right,up,574ce0a57fd0ec000db73aa6,2021-09-11_16h34.39.923,arrow_simon_vert,2021.1.2,Win32,59.9880024,,,,,,,,,,,,,,,,,,,,,down,1,1.5236,24,FALSE,FALSE,5,3,23,3,1,,,,,,,
,,,,,,0,2.209231057,#a3d0fb,"[""-0.25"",""0""]",left_blue.png,left,,,,,,,,left,left_blue.png,down_orange.png,down,left,down,574ce0a57fd0ec000db73aa6,2021-09-11_16h34.39.923,arrow_simon_vert,2021.1.2,Win32,59.9880024,,,,,,,,,,,,,,,,,,,,,left,1,1.6959,25,TRUE,FALSE,6,0,24,2,1,,,,,,,
,,,,,,0,2.33601628,#f3af84,"[""0"",""-0.25""]",down_orange.png,down,,,,,,,,left,left_blue.png,down_orange.png,down,left,down,574ce0a57fd0ec000db73aa6,2021-09-11_16h34.39.923,arrow_simon_vert,2021.1.2,Win32,59.9880024,,,,,,,,,,,,,,,,,,,,,down,1,1.7342,26,TRUE,FALSE,6,1,25,2,1,,,,,,,
,,,,,,0,1.584994536,#a3d0fb,"[""-0.25"",""0""]",left_blue.png,left,,,,,,,,left,left_blue.png,down_orange.png,down,left,down,574ce0a57fd0ec000db73aa6,2021-09-11_16h34.39.923,arrow_simon_vert,2021.1.2,Win32,59.9880024,,,,,,,,,,,,,,,,,,,,,left,1,1.513,27,FALSE,FALSE,6,2,26,2,1,,,,,,,
,,,,,,0,2.269803735,#f3af84,"[""0"",""-0.25""]",down_orange.png,down,,,,,,,,left,left_blue.png,down_orange.png,down,left,down,574ce0a57fd0ec000db73aa6,2021-09-11_16h34.39.923,arrow_simon_vert,2021.1.2,Win32,59.9880024,,,,,,,,,,,,,,,,,,,,,down,1,1.6844,28,TRUE,FALSE,6,3,27,2,1,,,,,,,
,,,,,,0,1.970752754,#a3d0fb,"[""-0.25"",""0""]",right_blue.png,right,,,,,,,,right,right_blue.png,up_orange.png,up,left,down,574ce0a57fd0ec000db73aa6,2021-09-11_16h34.39.923,arrow_simon_vert,2021.1.2,Win32,59.9880024,,,,,,,,,,,,,,,,,,,,,right,1,1.4765,29,FALSE,FALSE,7,0,28,0,1,,,,,,,
,,,,,,0,1.778261684,#f3af84,"[""0"",""0.25""]",down_orange.png,down,,,,,,,,left,left_blue.png,down_orange.png,down,right,up,574ce0a57fd0ec000db73aa6,2021-09-11_16h34.39.923,arrow_simon_vert,2021.1.2,Win32,59.9880024,,,,,,,,,,,,,,,,,,,,,down,1,1.436,30,FALSE,FALSE,7,1,29,3,1,,,,,,,
,,,,,,0,2.281044789,#a3d0fb,"[""0.25"",""0""]",right_blue.png,right,,,,,,,,right,right_blue.png,up_orange.png,up,right,up,574ce0a57fd0ec000db73aa6,2021-09-11_16h34.39.923,arrow_simon_vert,2021.1.2,Win32,59.9880024,,,,,,,,,,,,,,,,,,,,,right,1,1.7525,31,TRUE,FALSE,7,2,30,1,1,,,,,,,
,,,,,,0,2.318345755,#f3af84,"[""0"",""-0.25""]",down_orange.png,down,,,,,,,,left,left_blue.png,down_orange.png,down,left,down,574ce0a57fd0ec000db73aa6,2021-09-11_16h34.39.923,arrow_simon_vert,2021.1.2,Win32,59.9880024,,,,,,,,,,,,,,,,,,,,,down,1,1.6717,32,TRUE,FALSE,7,3,31,2,1,,,,,,,
,,,,,,0,2.18888545,#a3d0fb,"[""-0.25"",""0""]",left_blue.png,left,,,,,,,,left,left_blue.png,down_orange.png,down,left,down,574ce0a57fd0ec000db73aa6,2021-09-11_16h34.39.923,arrow_simon_vert,2021.1.2,Win32,59.9880024,,,,,,,,,,,,,,,,,,,,,left,1,1.8246,33,TRUE,FALSE,8,0,32,2,1,,,,,,,
,,,,,,0,2.247631713,#f3af84,"[""0"",""0.25""]",down_orange.png,down,,,,,,,,left,left_blue.png,down_orange.png,down,right,up,574ce0a57fd0ec000db73aa6,2021-09-11_16h34.39.923,arrow_simon_vert,2021.1.2,Win32,59.9880024,,,,,,,,,,,,,,,,,,,,,down,1,1.7342,34,TRUE,FALSE,8,1,33,3,1,,,,,,,
,,,,,,0,1.880587592,#a3d0fb,"[""0.25"",""0""]",right_blue.png,right,,,,,,,,right,right_blue.png,up_orange.png,up,right,up,574ce0a57fd0ec000db73aa6,2021-09-11_16h34.39.923,arrow_simon_vert,2021.1.2,Win32,59.9880024,,,,,,,,,,,,,,,,,,,,,right,1,1.4178,35,FALSE,FALSE,8,2,34,1,1,,,,,,,
,,,,,,0,2.192923507,#f3af84,"[""0"",""-0.25""]",up_orange.png,up,,,,,,,,right,right_blue.png,up_orange.png,up,left,down,574ce0a57fd0ec000db73aa6,2021-09-11_16h34.39.923,arrow_simon_vert,2021.1.2,Win32,59.9880024,,,,,,,,,,,,,,,,,,,,,up,1,1.6523,36,TRUE,FALSE,8,3,35,0,1,,,,,,,
,,,,,,0,2.455223187,#a3d0fb,"[""-0.25"",""0""]",left_blue.png,left,,,,,,,,left,left_blue.png,down_orange.png,down,left,down,574ce0a57fd0ec000db73aa6,2021-09-11_16h34.39.923,arrow_simon_vert,2021.1.2,Win32,59.9880024,,,,,,,,,,,,,,,,,,,,,left,1,1.8192,37,TRUE,FALSE,9,0,36,2,1,,,,,,,
,,,,,,0,2.479361011,#f3af84,"[""0"",""0.25""]",down_orange.png,down,,,,,,,,left,left_blue.png,down_orange.png,down,right,up,574ce0a57fd0ec000db73aa6,2021-09-11_16h34.39.923,arrow_simon_vert,2021.1.2,Win32,59.9880024,,,,,,,,,,,,,,,,,,,,,down,1,1.9056,38,TRUE,FALSE,9,1,37,3,1,,,,,,,
,,,,,,0,2.47604958,#a3d0fb,"[""-0.25"",""0""]",right_blue.png,right,,,,,,,,right,right_blue.png,up_orange.png,up,left,down,574ce0a57fd0ec000db73aa6,2021-09-11_16h34.39.923,arrow_simon_vert,2021.1.2,Win32,59.9880024,,,,,,,,,,,,,,,,,,,,,left,0,1.7686,39,TRUE,FALSE,9,2,38,0,1,,,,,,,
,,,,,,0,2.011120323,#f3af84,"[""0"",""0.25""]",down_orange.png,down,,,,,,,,left,left_blue.png,down_orange.png,down,right,up,574ce0a57fd0ec000db73aa6,2021-09-11_16h34.39.923,arrow_simon_vert,2021.1.2,Win32,59.9880024,,,,,,,,,,,,,,,,,,,,,down,1,1.4898,40,FALSE,FALSE,9,3,39,3,1,,,,,,,
,,,,,,0,2.370851483,#a3d0fb,"[""0.25"",""0""]",right_blue.png,right,,,,,,,,right,right_blue.png,up_orange.png,up,right,up,574ce0a57fd0ec000db73aa6,2021-09-11_16h34.39.923,arrow_simon_vert,2021.1.2,Win32,59.9880024,,,,,,,,,,,,,,,,,,,,,right,1,1.8071,41,TRUE,FALSE,10,0,40,1,1,,,,,,,
,,,,,,0,1.837232123,#f3af84,"[""0"",""-0.25""]",up_orange.png,up,,,,,,,,right,right_blue.png,up_orange.png,up,left,down,574ce0a57fd0ec000db73aa6,2021-09-11_16h34.39.923,arrow_simon_vert,2021.1.2,Win32,59.9880024,,,,,,,,,,,,,,,,,,,,,up,1,1.2522,42,FALSE,TRUE,10,1,41,0,1,,,,,,,
,,,,,,0,1.802641963,#a3d0fb,"[""-0.25"",""0""]",left_blue.png,left,,,,,,,,left,left_blue.png,down_orange.png,down,left,down,574ce0a57fd0ec000db73aa6,2021-09-11_16h34.39.923,arrow_simon_vert,2021.1.2,Win32,59.9880024,,,,,,,,,,,,,,,,,,,,,left,1,1.4042,43,FALSE,FALSE,10,2,42,2,1,,,,,,,
,,,,,,0,2.413138748,#f3af84,"[""0"",""0.25""]",up_orange.png,up,,,,,,,,right,right_blue.png,up_orange.png,up,right,up,574ce0a57fd0ec000db73aa6,2021-09-11_16h34.39.923,arrow_simon_vert,2021.1.2,Win32,59.9880024,,,,,,,,,,,,,,,,,,,,,down,0,1.7885,44,TRUE,FALSE,10,3,43,1,1,,,,,,,
,,,,,,0,1.980391053,#a3d0fb,"[""0.25"",""0""]",left_blue.png,left,,,,,,,,left,left_blue.png,down_orange.png,down,right,up,574ce0a57fd0ec000db73aa6,2021-09-11_16h34.39.923,arrow_simon_vert,2021.1.2,Win32,59.9880024,,,,,,,,,,,,,,,,,,,,,left,1,1.5563,45,FALSE,FALSE,11,0,44,3,1,,,,,,,
,,,,,,0,1.684472675,#f3af84,"[""0"",""-0.25""]",down_orange.png,down,,,,,,,,left,left_blue.png,down_orange.png,down,left,down,574ce0a57fd0ec000db73aa6,2021-09-11_16h34.39.923,arrow_simon_vert,2021.1.2,Win32,59.9880024,,,,,,,,,,,,,,,,,,,,,down,1,1.5297,46,FALSE,FALSE,11,1,45,2,1,,,,,,,
,,,,,,0,2.450839917,#a3d0fb,"[""0.25"",""0""]",right_blue.png,right,,,,,,,,right,right_blue.png,up_orange.png,up,right,up,574ce0a57fd0ec000db73aa6,2021-09-11_16h34.39.923,arrow_simon_vert,2021.1.2,Win32,59.9880024,,,,,,,,,,,,,,,,,,,,,right,1,1.834,47,TRUE,FALSE,11,2,46,1,1,,,,,,,
,,,,,,0,2.354381036,#f3af84,"[""0"",""0.25""]",up_orange.png,up,,,,,,,,right,right_blue.png,up_orange.png,up,right,up,574ce0a57fd0ec000db73aa6,2021-09-11_16h34.39.923,arrow_simon_vert,2021.1.2,Win32,59.9880024,,,,,,,,,,,,,,,,,,,,,up,1,1.7414,48,TRUE,FALSE,11,3,47,1,1,,,,,,,
,,,,,,0,1.638134279,#a3d0fb,"[""0.25"",""0""]",left_blue.png,left,,,,,,,,left,left_blue.png,down_orange.png,down,right,up,574ce0a57fd0ec000db73aa6,2021-09-11_16h34.39.923,arrow_simon_vert,2021.1.2,Win32,59.9880024,,,,,,,,,,,,,,,,,,,,,left,1,1.3515,49,FALSE,TRUE,12,0,48,3,1,,,,,,,
,,,,,,0,2.188024311,#f3af84,"[""0"",""-0.25""]",up_orange.png,up,,,,,,,,right,right_blue.png,up_orange.png,up,left,down,574ce0a57fd0ec000db73aa6,2021-09-11_16h34.39.923,arrow_simon_vert,2021.1.2,Win32,59.9880024,,,,,,,,,,,,,,,,,,,,,up,1,1.6741,50,TRUE,FALSE,12,1,49,0,1,,,,,,,
,,,,,,0,2.494558227,#a3d0fb,"[""-0.25"",""0""]",right_blue.png,right,,,,,,,,right,right_blue.png,up_orange.png,up,left,down,574ce0a57fd0ec000db73aa6,2021-09-11_16h34.39.923,arrow_simon_vert,2021.1.2,Win32,59.9880024,,,,,,,,,,,,,,,,,,,,,right,1,1.7777,51,TRUE,FALSE,12,2,50,0,1,,,,,,,
,,,,,,0,2.145564945,#f3af84,"[""0"",""0.25""]",down_orange.png,down,,,,,,,,left,left_blue.png,down_orange.png,down,right,up,574ce0a57fd0ec000db73aa6,2021-09-11_16h34.39.923,arrow_simon_vert,2021.1.2,Win32,59.9880024,,,,,,,,,,,,,,,,,,,,,down,1,1.5603,52,FALSE,FALSE,12,3,51,3,1,,,,,,,
,,,,,,0,1.883254657,#a3d0fb,"[""0.25"",""0""]",right_blue.png,right,,,,,,,,right,right_blue.png,up_orange.png,up,right,up,574ce0a57fd0ec000db73aa6,2021-09-11_16h34.39.923,arrow_simon_vert,2021.1.2,Win32,59.9880024,,,,,,,,,,,,,,,,,,,,,right,1,1.3458,53,FALSE,TRUE,13,0,52,1,1,,,,,,,
,,,,,,0,2.170906927,#f3af84,"[""0"",""0.25""]",up_orange.png,up,,,,,,,,right,right_blue.png,up_orange.png,up,right,up,574ce0a57fd0ec000db73aa6,2021-09-11_16h34.39.923,arrow_simon_vert,2021.1.2,Win32,59.9880024,,,,,,,,,,,,,,,,,,,,,up,1,1.6443,54,TRUE,FALSE,13,1,53,1,1,,,,,,,
,,,,,,0,1.960391252,#a3d0fb,"[""0.25"",""0""]",right_blue.png,right,,,,,,,,right,right_blue.png,up_orange.png,up,right,up,574ce0a57fd0ec000db73aa6,2021-09-11_16h34.39.923,arrow_simon_vert,2021.1.2,Win32,59.9880024,,,,,,,,,,,,,,,,,,,,,right,1,1.5009,55,FALSE,FALSE,13,2,54,1,1,,,,,,,
,,,,,,0,2.176840294,#f3af84,"[""0"",""-0.25""]",down_orange.png,down,,,,,,,,left,left_blue.png,down_orange.png,down,left,down,574ce0a57fd0ec000db73aa6,2021-09-11_16h34.39.923,arrow_simon_vert,2021.1.2,Win32,59.9880024,,,,,,,,,,,,,,,,,,,,,down,1,1.5527,56,FALSE,FALSE,13,3,55,2,1,,,,,,,
,,,,,,0,1.927818997,#a3d0fb,"[""-0.25"",""0""]",right_blue.png,right,,,,,,,,right,right_blue.png,up_orange.png,up,left,down,574ce0a57fd0ec000db73aa6,2021-09-11_16h34.39.923,arrow_simon_vert,2021.1.2,Win32,59.9880024,,,,,,,,,,,,,,,,,,,,,right,1,1.5343,57,FALSE,FALSE,14,0,56,0,1,,,,,,,
,,,,,,0,2.270780229,#f3af84,"[""0"",""0.25""]",up_orange.png,up,,,,,,,,right,right_blue.png,up_orange.png,up,right,up,574ce0a57fd0ec000db73aa6,2021-09-11_16h34.39.923,arrow_simon_vert,2021.1.2,Win32,59.9880024,,,,,,,,,,,,,,,,,,,,,up,1,1.6195,58,TRUE,FALSE,14,1,57,1,1,,,,,,,
,,,,,,0,1.704589367,#a3d0fb,"[""-0.25"",""0""]",right_blue.png,right,,,,,,,,right,right_blue.png,up_orange.png,up,left,down,574ce0a57fd0ec000db73aa6,2021-09-11_16h34.39.923,arrow_simon_vert,2021.1.2,Win32,59.9880024,,,,,,,,,,,,,,,,,,,,,right,1,1.4184,59,FALSE,FALSE,14,2,58,0,1,,,,,,,
,,,,,,0,1.596549497,#f3af84,"[""0"",""-0.25""]",up_orange.png,up,,,,,,,,right,right_blue.png,up_orange.png,up,left,down,574ce0a57fd0ec000db73aa6,2021-09-11_16h34.39.923,arrow_simon_vert,2021.1.2,Win32,59.9880024,,,,,,,,,,,,,,,,,,,,,up,1,1.4175,60,FALSE,FALSE,14,3,59,0,1,,,,,,,
,,,,,,,,,,,,,,,,,,,,,,,,,574ce0a57fd0ec000db73aa6,2021-09-11_16h34.39.923,arrow_simon_vert,2021.1.2,Win32,59.9880024,,,,,,,,,,,,,,,,,,,,,,,,,,,,,,,,space,74.6374,0,0,0,0,1
,,,,,,0,2.385600902,#a3d0fb,"[""0.25"",""0""]",left_blue.png,left,,,,,,,,left,left_blue.png,down_orange.png,down,right,up,574ce0a57fd0ec000db73aa6,2021-09-11_16h34.39.923,arrow_simon_vert,2021.1.2,Win32,59.9880024,,,,,,,,,,,,,,,,,,,,,right,0,1.6338,1,TRUE,FALSE,0,0,0,3,1,,,,,,,
,,,,,,0,1.509198074,#f3af84,"[""0"",""0.25""]",down_orange.png,down,,,,,,,,left,left_blue.png,down_orange.png,down,right,up,574ce0a57fd0ec000db73aa6,2021-09-11_16h34.39.923,arrow_simon_vert,2021.1.2,Win32,59.9880024,,,,,,,,,,,,,,,,,,,,,down,1,1.4174,2,FALSE,FALSE,0,1,1,3,1,,,,,,,
,,,,,,0,2.161065579,#a3d0fb,"[""-0.25"",""0""]",right_blue.png,right,,,,,,,,right,right_blue.png,up_orange.png,up,left,down,574ce0a57fd0ec000db73aa6,2021-09-11_16h34.39.923,arrow_simon_vert,2021.1.2,Win32,59.9880024,,,,,,,,,,,,,,,,,,,,,right,1,1.586,3,FALSE,FALSE,0,2,2,0,1,,,,,,,
,,,,,,0,2.259513846,#f3af84,"[""0"",""0.25""]",down_orange.png,down,,,,,,,,left,left_blue.png,down_orange.png,down,right,up,574ce0a57fd0ec000db73aa6,2021-09-11_16h34.39.923,arrow_simon_vert,2021.1.2,Win32,59.9880024,,,,,,,,,,,,,,,,,,,,,up,0,1.601,4,TRUE,FALSE,0,3,3,3,1,,,,,,,
,,,,,,0,2.244288523,#a3d0fb,"[""-0.25"",""0""]",left_blue.png,left,,,,,,,,left,left_blue.png,down_orange.png,down,left,down,574ce0a57fd0ec000db73aa6,2021-09-11_16h34.39.923,arrow_simon_vert,2021.1.2,Win32,59.9880024,,,,,,,,,,,,,,,,,,,,,left,1,1.7241,5,TRUE,FALSE,1,0,4,2,1,,,,,,,
,,,,,,0,2.36219149,#f3af84,"[""0"",""0.25""]",up_orange.png,up,,,,,,,,right,right_blue.png,up_orange.png,up,right,up,574ce0a57fd0ec000db73aa6,2021-09-11_16h34.39.923,arrow_simon_vert,2021.1.2,Win32,59.9880024,,,,,,,,,,,,,,,,,,,,,up,1,1.7514,6,TRUE,FALSE,1,1,5,1,1,,,,,,,
,,,,,,0,1.698905177,#a3d0fb,"[""-0.25"",""0""]",left_blue.png,left,,,,,,,,left,left_blue.png,down_orange.png,down,left,down,574ce0a57fd0ec000db73aa6,2021-09-11_16h34.39.923,arrow_simon_vert,2021.1.2,Win32,59.9880024,,,,,,,,,,,,,,,,,,,,,left,1,1.453,7,FALSE,FALSE,1,2,6,2,1,,,,,,,
,,,,,,0,2.1330449,#f3af84,"[""0"",""-0.25""]",down_orange.png,down,,,,,,,,left,left_blue.png,down_orange.png,down,left,down,574ce0a57fd0ec000db73aa6,2021-09-11_16h34.39.923,arrow_simon_vert,2021.1.2,Win32,59.9880024,,,,,,,,,,,,,,,,,,,,,down,1,1.4605,8,FALSE,FALSE,1,3,7,2,1,,,,,,,
,,,,,,0,2.124500599,#a3d0fb,"[""-0.25"",""0""]",right_blue.png,right,,,,,,,,right,right_blue.png,up_orange.png,up,left,down,574ce0a57fd0ec000db73aa6,2021-09-11_16h34.39.923,arrow_simon_vert,2021.1.2,Win32,59.9880024,,,,,,,,,,,,,,,,,,,,,right,1,1.5511,9,FALSE,FALSE,2,0,8,0,1,,,,,,,
,,,,,,0,1.914644552,#f3af84,"[""0"",""0.25""]",up_orange.png,up,,,,,,,,right,right_blue.png,up_orange.png,up,right,up,574ce0a57fd0ec000db73aa6,2021-09-11_16h34.39.923,arrow_simon_vert,2021.1.2,Win32,59.9880024,,,,,,,,,,,,,,,,,,,,,up,1,1.4872,10,FALSE,FALSE,2,1,9,1,1,,,,,,,
,,,,,,0,1.502332121,#a3d0fb,"[""0.25"",""0""]",left_blue.png,left,,,,,,,,left,left_blue.png,down_orange.png,down,right,up,574ce0a57fd0ec000db73aa6,2021-09-11_16h34.39.923,arrow_simon_vert,2021.1.2,Win32,59.9880024,,,,,,,,,,,,,,,,,,,,,left,1,1.4185,11,FALSE,FALSE,2,2,10,3,1,,,,,,,
,,,,,,0,1.800692064,#f3af84,"[""0"",""-0.25""]",up_orange.png,up,,,,,,,,right,right_blue.png,up_orange.png,up,left,down,574ce0a57fd0ec000db73aa6,2021-09-11_16h34.39.923,arrow_simon_vert,2021.1.2,Win32,59.9880024,,,,,,,,,,,,,,,,,,,,,up,1,1.4021,12,FALSE,FALSE,2,3,11,0,1,,,,,,,
,,,,,,0,2.382018193,#a3d0fb,"[""0.25"",""0""]",right_blue.png,right,,,,,,,,right,right_blue.png,up_orange.png,up,right,up,574ce0a57fd0ec000db73aa6,2021-09-11_16h34.39.923,arrow_simon_vert,2021.1.2,Win32,59.9880024,,,,,,,,,,,,,,,,,,,,,right,1,1.6461,13,TRUE,FALSE,3,0,12,1,1,,,,,,,
,,,,,,0,2.145062423,#f3af84,"[""0"",""0.25""]",up_orange.png,up,,,,,,,,right,right_blue.png,up_orange.png,up,right,up,574ce0a57fd0ec000db73aa6,2021-09-11_16h34.39.923,arrow_simon_vert,2021.1.2,Win32,59.9880024,,,,,,,,,,,,,,,,,,,,,up,1,1.5847,14,FALSE,FALSE,3,1,13,1,1,,,,,,,
,,,,,,1,2.255748027,#a3d0fb,"[""0.25"",""0""]",right_blue.png,right,,,,,,,,right,right_blue.png,up_orange.png,up,right,up,574ce0a57fd0ec000db73aa6,2021-09-11_16h34.39.923,arrow_simon_vert,2021.1.2,Win32,59.9880024,,,,,,,,,,,,,,,,,,,,,down,0,1.5674,15,FALSE,FALSE,3,2,14,1,1,,,,,,,
,,,,,,0,1.984762416,#f3af84,"[""0"",""-0.25""]",up_orange.png,up,,,,,,,,right,right_blue.png,up_orange.png,up,left,down,574ce0a57fd0ec000db73aa6,2021-09-11_16h34.39.923,arrow_simon_vert,2021.1.2,Win32,59.9880024,,,,,,,,,,,,,,,,,,,,,up,1,1.4684,16,FALSE,FALSE,3,3,15,0,1,,,,,,,
,,,,,,0,1.632858914,#a3d0fb,"[""0.25"",""0""]",left_blue.png,left,,,,,,,,left,left_blue.png,down_orange.png,down,right,up,574ce0a57fd0ec000db73aa6,2021-09-11_16h34.39.923,arrow_simon_vert,2021.1.2,Win32,59.9880024,,,,,,,,,,,,,,,,,,,,,left,1,1.3751,17,FALSE,TRUE,4,0,16,3,1,,,,,,,
,,,,,,0,1.968691795,#f3af84,"[""0"",""0.25""]",up_orange.png,up,,,,,,,,right,right_blue.png,up_orange.png,up,right,up,574ce0a57fd0ec000db73aa6,2021-09-11_16h34.39.923,arrow_simon_vert,2021.1.2,Win32,59.9880024,,,,,,,,,,,,,,,,,,,,,up,1,1.469,18,FALSE,FALSE,4,1,17,1,1,,,,,,,
,,,,,,0,2.180063479,#a3d0fb,"[""-0.25"",""0""]",left_blue.png,left,,,,,,,,left,left_blue.png,down_orange.png,down,left,down,574ce0a57fd0ec000db73aa6,2021-09-11_16h34.39.923,arrow_simon_vert,2021.1.2,Win32,59.9880024,,,,,,,,,,,,,,,,,,,,,left,1,1.5863,19,FALSE,FALSE,4,2,18,2,1,,,,,,,
,,,,,,0,2.480132415,#f3af84,"[""0"",""0.25""]",down_orange.png,down,,,,,,,,left,left_blue.png,down_orange.png,down,right,up,574ce0a57fd0ec000db73aa6,2021-09-11_16h34.39.923,arrow_simon_vert,2021.1.2,Win32,59.9880024,,,,,,,,,,,,,,,,,,,,,up,0,1.7347,20,TRUE,FALSE,4,3,19,3,1,,,,,,,
,,,,,,0,1.824779687,#a3d0fb,"[""-0.25"",""0""]",right_blue.png,right,,,,,,,,right,right_blue.png,up_orange.png,up,left,down,574ce0a57fd0ec000db73aa6,2021-09-11_16h34.39.923,arrow_simon_vert,2021.1.2,Win32,59.9880024,,,,,,,,,,,,,,,,,,,,,right,1,1.4074,21,FALSE,FALSE,5,0,20,0,1,,,,,,,
,,,,,,0,1.684743635,#f3af84,"[""0"",""0.25""]",down_orange.png,down,,,,,,,,left,left_blue.png,down_orange.png,down,right,up,574ce0a57fd0ec000db73aa6,2021-09-11_16h34.39.923,arrow_simon_vert,2021.1.2,Win32,59.9880024,,,,,,,,,,,,,,,,,,,,,down,1,1.5565,22,FALSE,FALSE,5,1,21,3,1,,,,,,,
,,,,,,0,1.935717711,#a3d0fb,"[""-0.25"",""0""]",right_blue.png,right,,,,,,,,right,right_blue.png,up_orange.png,up,left,down,574ce0a57fd0ec000db73aa6,2021-09-11_16h34.39.923,arrow_simon_vert,2021.1.2,Win32,59.9880024,,,,,,,,,,,,,,,,,,,,,right,1,1.4506,23,FALSE,FALSE,5,2,22,0,1,,,,,,,
,,,,,,0,1.724055594,#f3af84,"[""0"",""-0.25""]",down_orange.png,down,,,,,,,,left,left_blue.png,down_orange.png,down,left,down,574ce0a57fd0ec000db73aa6,2021-09-11_16h34.39.923,arrow_simon_vert,2021.1.2,Win32,59.9880024,,,,,,,,,,,,,,,,,,,,,down,1,1.1936,24,FALSE,TRUE,5,3,23,2,1,,,,,,,
,,,,,,1,2.396159854,#a3d0fb,"[""0.25"",""0""]",right_blue.png,right,,,,,,,,right,right_blue.png,up_orange.png,up,right,up,574ce0a57fd0ec000db73aa6,2021-09-11_16h34.39.923,arrow_simon_vert,2021.1.2,Win32,59.9880024,,,,,,,,,,,,,,,,,,,,,left,0,1.568,25,FALSE,FALSE,6,0,24,1,1,,,,,,,
,,,,,,1,2.083275701,#f3af84,"[""0"",""0.25""]",up_orange.png,up,,,,,,,,right,right_blue.png,up_orange.png,up,right,up,574ce0a57fd0ec000db73aa6,2021-09-11_16h34.39.923,arrow_simon_vert,2021.1.2,Win32,59.9880024,,,,,,,,,,,,,,,,,,,,,up,1,1.0129,26,FALSE,TRUE,6,1,25,1,1,,,,,,,
,,,,,,0,1.893498019,#a3d0fb,"[""0.25"",""0""]",right_blue.png,right,,,,,,,,right,right_blue.png,up_orange.png,up,right,up,574ce0a57fd0ec000db73aa6,2021-09-11_16h34.39.923,arrow_simon_vert,2021.1.2,Win32,59.9880024,,,,,,,,,,,,,,,,,,,,,right,1,1.5614,27,FALSE,FALSE,6,2,26,1,1,,,,,,,
,,,,,,0,2.378585313,#f3af84,"[""0"",""-0.25""]",down_orange.png,down,,,,,,,,left,left_blue.png,down_orange.png,down,left,down,574ce0a57fd0ec000db73aa6,2021-09-11_16h34.39.923,arrow_simon_vert,2021.1.2,Win32,59.9880024,,,,,,,,,,,,,,,,,,,,,down,1,1.6375,28,TRUE,FALSE,6,3,27,2,1,,,,,,,
,,,,,,0,2.487753796,#a3d0fb,"[""-0.25"",""0""]",left_blue.png,left,,,,,,,,left,left_blue.png,down_orange.png,down,left,down,574ce0a57fd0ec000db73aa6,2021-09-11_16h34.39.923,arrow_simon_vert,2021.1.2,Win32,59.9880024,,,,,,,,,,,,,,,,,,,,,left,1,1.7515,29,TRUE,FALSE,7,0,28,2,1,,,,,,,
,,,,,,0,2.087731049,#f3af84,"[""0"",""-0.25""]",up_orange.png,up,,,,,,,,right,right_blue.png,up_orange.png,up,left,down,574ce0a57fd0ec000db73aa6,2021-09-11_16h34.39.923,arrow_simon_vert,2021.1.2,Win32,59.9880024,,,,,,,,,,,,,,,,,,,,,up,1,1.5785,30,FALSE,FALSE,7,1,29,0,1,,,,,,,
,,,,,,1,2.401943352,#a3d0fb,"[""0.25"",""0""]",left_blue.png,left,,,,,,,,left,left_blue.png,down_orange.png,down,right,up,574ce0a57fd0ec000db73aa6,2021-09-11_16h34.39.923,arrow_simon_vert,2021.1.2,Win32,59.9880024,,,,,,,,,,,,,,,,,,,,,right,0,1.4174,31,FALSE,FALSE,7,2,30,3,1,,,,,,,
,,,,,,1,1.574166345,#f3af84,"[""0"",""-0.25""]",up_orange.png,up,,,,,,,,right,right_blue.png,up_orange.png,up,left,down,574ce0a57fd0ec000db73aa6,2021-09-11_16h34.39.923,arrow_simon_vert,2021.1.2,Win32,59.9880024,,,,,,,,,,,,,,,,,,,,,up,1,1.2246,32,FALSE,TRUE,7,3,31,0,1,,,,,,,
,,,,,,0,2.125777968,#a3d0fb,"[""0.25"",""0""]",left_blue.png,left,,,,,,,,left,left_blue.png,down_orange.png,down,right,up,574ce0a57fd0ec000db73aa6,2021-09-11_16h34.39.923,arrow_simon_vert,2021.1.2,Win32,59.9880024,,,,,,,,,,,,,,,,,,,,,left,1,1.5893,33,FALSE,FALSE,8,0,32,3,1,,,,,,,
,,,,,,0,1.945755613,#f3af84,"[""0"",""0.25""]",down_orange.png,down,,,,,,,,left,left_blue.png,down_orange.png,down,right,up,574ce0a57fd0ec000db73aa6,2021-09-11_16h34.39.923,arrow_simon_vert,2021.1.2,Win32,59.9880024,,,,,,,,,,,,,,,,,,,,,down,1,1.438,34,FALSE,FALSE,8,1,33,3,1,,,,,,,
,,,,,,0,2.262234061,#a3d0fb,"[""-0.25"",""0""]",right_blue.png,right,,,,,,,,right,right_blue.png,up_orange.png,up,left,down,574ce0a57fd0ec000db73aa6,2021-09-11_16h34.39.923,arrow_simon_vert,2021.1.2,Win32,59.9880024,,,,,,,,,,,,,,,,,,,,,right,1,1.6141,35,TRUE,FALSE,8,2,34,0,1,,,,,,,
,,,,,,0,1.541711405,#f3af84,"[""0"",""0.25""]",up_orange.png,up,,,,,,,,right,right_blue.png,up_orange.png,up,right,up,574ce0a57fd0ec000db73aa6,2021-09-11_16h34.39.923,arrow_simon_vert,2021.1.2,Win32,59.9880024,,,,,,,,,,,,,,,,,,,,,up,1,1.4067,36,FALSE,FALSE,8,3,35,1,1,,,,,,,
,,,,,,0,2.311693898,#a3d0fb,"[""0.25"",""0""]",right_blue.png,right,,,,,,,,right,right_blue.png,up_orange.png,up,right,up,574ce0a57fd0ec000db73aa6,2021-09-11_16h34.39.923,arrow_simon_vert,2021.1.2,Win32,59.9880024,,,,,,,,,,,,,,,,,,,,,right,1,1.5198,37,FALSE,FALSE,9,0,36,1,1,,,,,,,
,,,,,,0,1.595978775,#f3af84,"[""0"",""0.25""]",down_orange.png,down,,,,,,,,left,left_blue.png,down_orange.png,down,right,up,574ce0a57fd0ec000db73aa6,2021-09-11_16h34.39.923,arrow_simon_vert,2021.1.2,Win32,59.9880024,,,,,,,,,,,,,,,,,,,,,down,1,1.5626,38,FALSE,FALSE,9,1,37,3,1,,,,,,,
,,,,,,0,1.685419117,#a3d0fb,"[""0.25"",""0""]",right_blue.png,right,,,,,,,,right,right_blue.png,up_orange.png,up,right,up,574ce0a57fd0ec000db73aa6,2021-09-11_16h34.39.923,arrow_simon_vert,2021.1.2,Win32,59.9880024,,,,,,,,,,,,,,,,,,,,,right,1,1.477,39,FALSE,FALSE,9,2,38,1,1,,,,,,,
,,,,,,0,2.039057831,#f3af84,"[""0"",""-0.25""]",down_orange.png,down,,,,,,,,left,left_blue.png,down_orange.png,down,left,down,574ce0a57fd0ec000db73aa6,2021-09-11_16h34.39.923,arrow_simon_vert,2021.1.2,Win32,59.9880024,,,,,,,,,,,,,,,,,,,,,down,1,1.4194,40,FALSE,FALSE,9,3,39,2,1,,,,,,,
,,,,,,0,2.066600104,#a3d0fb,"[""-0.25"",""0""]",left_blue.png,left,,,,,,,,left,left_blue.png,down_orange.png,down,left,down,574ce0a57fd0ec000db73aa6,2021-09-11_16h34.39.923,arrow_simon_vert,2021.1.2,Win32,59.9880024,,,,,,,,,,,,,,,,,,,,,left,1,1.4389,41,FALSE,FALSE,10,0,40,2,1,,,,,,,
,,,,,,0,2.445875127,#f3af84,"[""0"",""-0.25""]",down_orange.png,down,,,,,,,,left,left_blue.png,down_orange.png,down,left,down,574ce0a57fd0ec000db73aa6,2021-09-11_16h34.39.923,arrow_simon_vert,2021.1.2,Win32,59.9880024,,,,,,,,,,,,,,,,,,,,,down,1,1.4787,42,FALSE,FALSE,10,1,41,2,1,,,,,,,
,,,,,,0,2.22771035,#a3d0fb,"[""-0.25"",""0""]",right_blue.png,right,,,,,,,,right,right_blue.png,up_orange.png,up,left,down,574ce0a57fd0ec000db73aa6,2021-09-11_16h34.39.923,arrow_simon_vert,2021.1.2,Win32,59.9880024,,,,,,,,,,,,,,,,,,,,,right,1,1.6296,43,TRUE,FALSE,10,2,42,0,1,,,,,,,
,,,,,,0,1.941571792,#f3af84,"[""0"",""-0.25""]",up_orange.png,up,,,,,,,,right,right_blue.png,up_orange.png,up,left,down,574ce0a57fd0ec000db73aa6,2021-09-11_16h34.39.923,arrow_simon_vert,2021.1.2,Win32,59.9880024,,,,,,,,,,,,,,,,,,,,,down,0,1.336,44,FALSE,TRUE,10,3,43,0,1,,,,,,,
,,,,,,0,1.572406934,#a3d0fb,"[""0.25"",""0""]",left_blue.png,left,,,,,,,,left,left_blue.png,down_orange.png,down,right,up,574ce0a57fd0ec000db73aa6,2021-09-11_16h34.39.923,arrow_simon_vert,2021.1.2,Win32,59.9880024,,,,,,,,,,,,,,,,,,,,,left,1,1.3037,45,FALSE,TRUE,11,0,44,3,1,,,,,,,
,,,,,,0,1.812493582,#f3af84,"[""0"",""-0.25""]",up_orange.png,up,,,,,,,,right,right_blue.png,up_orange.png,up,left,down,574ce0a57fd0ec000db73aa6,2021-09-11_16h34.39.923,arrow_simon_vert,2021.1.2,Win32,59.9880024,,,,,,,,,,,,,,,,,,,,,up,1,1.411,46,FALSE,FALSE,11,1,45,0,1,,,,,,,
,,,,,,0,1.52370975,#a3d0fb,"[""-0.25"",""0""]",left_blue.png,left,,,,,,,,left,left_blue.png,down_orange.png,down,left,down,574ce0a57fd0ec000db73aa6,2021-09-11_16h34.39.923,arrow_simon_vert,2021.1.2,Win32,59.9880024,,,,,,,,,,,,,,,,,,,,,left,1,1.4761,47,FALSE,FALSE,11,2,46,2,1,,,,,,,
,,,,,,0,2.16400268,#f3af84,"[""0"",""-0.25""]",down_orange.png,down,,,,,,,,left,left_blue.png,down_orange.png,down,left,down,574ce0a57fd0ec000db73aa6,2021-09-11_16h34.39.923,arrow_simon_vert,2021.1.2,Win32,59.9880024,,,,,,,,,,,,,,,,,,,,,down,1,1.6855,48,TRUE,FALSE,11,3,47,2,1,,,,,,,
,,,,,,0,1.531121159,#a3d0fb,"[""-0.25"",""0""]",right_blue.png,right,,,,,,,,right,right_blue.png,up_orange.png,up,left,down,574ce0a57fd0ec000db73aa6,2021-09-11_16h34.39.923,arrow_simon_vert,2021.1.2,Win32,59.9880024,,,,,,,,,,,,,,,,,,,,,right,1,1.1886,49,FALSE,TRUE,12,0,48,0,1,,,,,,,
,,,,,,0,2.10252847,#f3af84,"[""0"",""-0.25""]",down_orange.png,down,,,,,,,,left,left_blue.png,down_orange.png,down,left,down,574ce0a57fd0ec000db73aa6,2021-09-11_16h34.39.923,arrow_simon_vert,2021.1.2,Win32,59.9880024,,,,,,,,,,,,,,,,,,,,,down,1,1.6712,50,TRUE,FALSE,12,1,49,2,1,,,,,,,
,,,,,,0,2.086009896,#a3d0fb,"[""-0.25"",""0""]",left_blue.png,left,,,,,,,,left,left_blue.png,down_orange.png,down,left,down,574ce0a57fd0ec000db73aa6,2021-09-11_16h34.39.923,arrow_simon_vert,2021.1.2,Win32,59.9880024,,,,,,,,,,,,,,,,,,,,,up,0,1.3916,51,FALSE,TRUE,12,2,50,2,1,,,,,,,
,,,,,,0,1.62303124,#f3af84,"[""0"",""-0.25""]",up_orange.png,up,,,,,,,,right,right_blue.png,up_orange.png,up,left,down,574ce0a57fd0ec000db73aa6,2021-09-11_16h34.39.923,arrow_simon_vert,2021.1.2,Win32,59.9880024,,,,,,,,,,,,,,,,,,,,,up,1,1.3182,52,FALSE,TRUE,12,3,51,0,1,,,,,,,
,,,,,,0,1.872924413,#a3d0fb,"[""0.25"",""0""]",right_blue.png,right,,,,,,,,right,right_blue.png,up_orange.png,up,right,up,574ce0a57fd0ec000db73aa6,2021-09-11_16h34.39.923,arrow_simon_vert,2021.1.2,Win32,59.9880024,,,,,,,,,,,,,,,,,,,,,right,1,1.4868,53,FALSE,FALSE,13,0,52,1,1,,,,,,,
,,,,,,0,2.434874188,#f3af84,"[""0"",""0.25""]",up_orange.png,up,,,,,,,,right,right_blue.png,up_orange.png,up,right,up,574ce0a57fd0ec000db73aa6,2021-09-11_16h34.39.923,arrow_simon_vert,2021.1.2,Win32,59.9880024,,,,,,,,,,,,,,,,,,,,,up,1,1.7691,54,TRUE,FALSE,13,1,53,1,1,,,,,,,
,,,,,,1,2.160698919,#a3d0fb,"[""-0.25"",""0""]",right_blue.png,right,,,,,,,,right,right_blue.png,up_orange.png,up,left,down,574ce0a57fd0ec000db73aa6,2021-09-11_16h34.39.923,arrow_simon_vert,2021.1.2,Win32,59.9880024,,,,,,,,,,,,,,,,,,,,,left,0,1.4632,55,FALSE,FALSE,13,2,54,0,1,,,,,,,
,,,,,,1,1.96331582,#f3af84,"[""0"",""0.25""]",down_orange.png,down,,,,,,,,left,left_blue.png,down_orange.png,down,right,up,574ce0a57fd0ec000db73aa6,2021-09-11_16h34.39.923,arrow_simon_vert,2021.1.2,Win32,59.9880024,,,,,,,,,,,,,,,,,,,,,down,1,1.3612,56,FALSE,TRUE,13,3,55,3,1,,,,,,,
,,,,,,0,1.913120337,#a3d0fb,"[""0.25"",""0""]",left_blue.png,left,,,,,,,,left,left_blue.png,down_orange.png,down,right,up,574ce0a57fd0ec000db73aa6,2021-09-11_16h34.39.923,arrow_simon_vert,2021.1.2,Win32,59.9880024,,,,,,,,,,,,,,,,,,,,,left,1,1.4118,57,FALSE,FALSE,14,0,56,3,1,,,,,,,
,,,,,,0,2.303482927,#f3af84,"[""0"",""0.25""]",up_orange.png,up,,,,,,,,right,right_blue.png,up_orange.png,up,right,up,574ce0a57fd0ec000db73aa6,2021-09-11_16h34.39.923,arrow_simon_vert,2021.1.2,Win32,59.9880024,,,,,,,,,,,,,,,,,,,,,up,1,1.6279,58,TRUE,FALSE,14,1,57,1,1,,,,,,,
,,,,,,0,1.667346792,#a3d0fb,"[""0.25"",""0""]",left_blue.png,left,,,,,,,,left,left_blue.png,down_orange.png,down,right,up,574ce0a57fd0ec000db73aa6,2021-09-11_16h34.39.923,arrow_simon_vert,2021.1.2,Win32,59.9880024,,,,,,,,,,,,,,,,,,,,,left,1,1.4848,59,FALSE,FALSE,14,2,58,3,1,,,,,,,
,,,,,,0,1.808063802,#f3af84,"[""0"",""-0.25""]",down_orange.png,down,,,,,,,,left,left_blue.png,down_orange.png,down,left,down,574ce0a57fd0ec000db73aa6,2021-09-11_16h34.39.923,arrow_simon_vert,2021.1.2,Win32,59.9880024,,,,,,,,,,,,,,,,,,,,,down,1,1.3011,60,FALSE,TRUE,14,3,59,2,1,,,,,,,
,,,,,,,,,,,,,,,,,,,,,,,,,574ce0a57fd0ec000db73aa6,2021-09-11_16h34.39.923,arrow_simon_vert,2021.1.2,Win32,59.9880024,,,,,,,,,,,,,,,,,,,,,,,,,,,,,,,,space,45.6699,1,0,1,0,1
,,,,,,0,1.522459963,#a3d0fb,"[""0.25"",""0""]",left_blue.png,left,,,,,,,,left,left_blue.png,down_orange.png,down,right,up,574ce0a57fd0ec000db73aa6,2021-09-11_16h34.39.923,arrow_simon_vert,2021.1.2,Win32,59.9880024,,,,,,,,,,,,,,,,,,,,,left,1,1.468,1,FALSE,FALSE,0,0,0,3,1,,,,,,,
,,,,,,0,2.172388019,#f3af84,"[""0"",""-0.25""]",down_orange.png,down,,,,,,,,left,left_blue.png,down_orange.png,down,left,down,574ce0a57fd0ec000db73aa6,2021-09-11_16h34.39.923,arrow_simon_vert,2021.1.2,Win32,59.9880024,,,,,,,,,,,,,,,,,,,,,down,1,1.5346,2,FALSE,FALSE,0,1,1,2,1,,,,,,,
,,,,,,0,1.835563028,#a3d0fb,"[""-0.25"",""0""]",left_blue.png,left,,,,,,,,left,left_blue.png,down_orange.png,down,left,down,574ce0a57fd0ec000db73aa6,2021-09-11_16h34.39.923,arrow_simon_vert,2021.1.2,Win32,59.9880024,,,,,,,,,,,,,,,,,,,,,left,1,1.5842,3,FALSE,FALSE,0,2,2,2,1,,,,,,,
,,,,,,0,1.549068102,#f3af84,"[""0"",""-0.25""]",up_orange.png,up,,,,,,,,right,right_blue.png,up_orange.png,up,left,down,574ce0a57fd0ec000db73aa6,2021-09-11_16h34.39.923,arrow_simon_vert,2021.1.2,Win32,59.9880024,,,,,,,,,,,,,,,,,,,,,up,1,1.3523,4,FALSE,TRUE,0,3,3,0,1,,,,,,,
,,,,,,0,1.867590591,#a3d0fb,"[""-0.25"",""0""]",left_blue.png,left,,,,,,,,left,left_blue.png,down_orange.png,down,left,down,574ce0a57fd0ec000db73aa6,2021-09-11_16h34.39.923,arrow_simon_vert,2021.1.2,Win32,59.9880024,,,,,,,,,,,,,,,,,,,,,left,1,1.4757,5,FALSE,FALSE,1,0,4,2,1,,,,,,,
,,,,,,0,2.21104028,#f3af84,"[""0"",""-0.25""]",up_orange.png,up,,,,,,,,right,right_blue.png,up_orange.png,up,left,down,574ce0a57fd0ec000db73aa6,2021-09-11_16h34.39.923,arrow_simon_vert,2021.1.2,Win32,59.9880024,,,,,,,,,,,,,,,,,,,,,up,1,1.7517,6,TRUE,FALSE,1,1,5,0,1,,,,,,,
,,,,,,0,1.744303934,#a3d0fb,"[""0.25"",""0""]",left_blue.png,left,,,,,,,,left,left_blue.png,down_orange.png,down,right,up,574ce0a57fd0ec000db73aa6,2021-09-11_16h34.39.923,arrow_simon_vert,2021.1.2,Win32,59.9880024,,,,,,,,,,,,,,,,,,,,,left,1,1.5005,7,FALSE,FALSE,1,2,6,3,1,,,,,,,
,,,,,,0,1.671898761,#f3af84,"[""0"",""-0.25""]",up_orange.png,up,,,,,,,,right,right_blue.png,up_orange.png,up,left,down,574ce0a57fd0ec000db73aa6,2021-09-11_16h34.39.923,arrow_simon_vert,2021.1.2,Win32,59.9880024,,,,,,,,,,,,,,,,,,,,,up,1,1.2531,8,FALSE,TRUE,1,3,7,0,1,,,,,,,
,,,,,,0,1.973298312,#a3d0fb,"[""0.25"",""0""]",left_blue.png,left,,,,,,,,left,left_blue.png,down_orange.png,down,right,up,574ce0a57fd0ec000db73aa6,2021-09-11_16h34.39.923,arrow_simon_vert,2021.1.2,Win32,59.9880024,,,,,,,,,,,,,,,,,,,,,left,1,1.4781,9,FALSE,FALSE,2,0,8,3,1,,,,,,,
,,,,,,0,1.888046761,#f3af84,"[""0"",""0.25""]",up_orange.png,up,,,,,,,,right,right_blue.png,up_orange.png,up,right,up,574ce0a57fd0ec000db73aa6,2021-09-11_16h34.39.923,arrow_simon_vert,2021.1.2,Win32,59.9880024,,,,,,,,,,,,,,,,,,,,,up,1,1.4913,10,FALSE,FALSE,2,1,9,1,1,,,,,,,
,,,,,,0,2.170993862,#a3d0fb,"[""-0.25"",""0""]",left_blue.png,left,,,,,,,,left,left_blue.png,down_orange.png,down,left,down,574ce0a57fd0ec000db73aa6,2021-09-11_16h34.39.923,arrow_simon_vert,2021.1.2,Win32,59.9880024,,,,,,,,,,,,,,,,,,,,,left,1,1.5948,11,FALSE,FALSE,2,2,10,2,1,,,,,,,
,,,,,,0,1.931586527,#f3af84,"[""0"",""-0.25""]",down_orange.png,down,,,,,,,,left,left_blue.png,down_orange.png,down,left,down,574ce0a57fd0ec000db73aa6,2021-09-11_16h34.39.923,arrow_simon_vert,2021.1.2,Win32,59.9880024,,,,,,,,,,,,,,,,,,,,,down,1,1.5183,12,FALSE,FALSE,2,3,11,2,1,,,,,,,
,,,,,,0,1.559226977,#a3d0fb,"[""-0.25"",""0""]",left_blue.png,left,,,,,,,,left,left_blue.png,down_orange.png,down,left,down,574ce0a57fd0ec000db73aa6,2021-09-11_16h34.39.923,arrow_simon_vert,2021.1.2,Win32,59.9880024,,,,,,,,,,,,,,,,,,,,,left,1,1.5856,13,FALSE,FALSE,3,0,12,2,1,,,,,,,
,,,,,,0,2.415264782,#f3af84,"[""0"",""0.25""]",up_orange.png,up,,,,,,,,right,right_blue.png,up_orange.png,up,right,up,574ce0a57fd0ec000db73aa6,2021-09-11_16h34.39.923,arrow_simon_vert,2021.1.2,Win32,59.9880024,,,,,,,,,,,,,,,,,,,,,up,1,1.7132,14,TRUE,FALSE,3,1,13,1,1,,,,,,,
,,,,,,0,2.378923257,#a3d0fb,"[""-0.25"",""0""]",right_blue.png,right,,,,,,,,right,right_blue.png,up_orange.png,up,left,down,574ce0a57fd0ec000db73aa6,2021-09-11_16h34.39.923,arrow_simon_vert,2021.1.2,Win32,59.9880024,,,,,,,,,,,,,,,,,,,,,down,0,1.7448,15,TRUE,FALSE,3,2,14,0,1,,,,,,,
,,,,,,0,2.078002468,#f3af84,"[""0"",""0.25""]",up_orange.png,up,,,,,,,,right,right_blue.png,up_orange.png,up,right,up,574ce0a57fd0ec000db73aa6,2021-09-11_16h34.39.923,arrow_simon_vert,2021.1.2,Win32,59.9880024,,,,,,,,,,,,,,,,,,,,,up,1,1.4547,16,FALSE,FALSE,3,3,15,1,1,,,,,,,
,,,,,,0,2.358211615,#a3d0fb,"[""-0.25"",""0""]",right_blue.png,right,,,,,,,,right,right_blue.png,up_orange.png,up,left,down,574ce0a57fd0ec000db73aa6,2021-09-11_16h34.39.923,arrow_simon_vert,2021.1.2,Win32,59.9880024,,,,,,,,,,,,,,,,,,,,,right,1,1.8722,17,TRUE,FALSE,4,0,16,0,1,,,,,,,
,,,,,,0,1.801404853,#f3af84,"[""0"",""0.25""]",down_orange.png,down,,,,,,,,left,left_blue.png,down_orange.png,down,right,up,574ce0a57fd0ec000db73aa6,2021-09-11_16h34.39.923,arrow_simon_vert,2021.1.2,Win32,59.9880024,,,,,,,,,,,,,,,,,,,,,down,1,1.6117,18,TRUE,FALSE,4,1,17,3,1,,,,,,,
,,,,,,0,1.524913207,#a3d0fb,"[""0.25"",""0""]",left_blue.png,left,,,,,,,,left,left_blue.png,down_orange.png,down,right,up,574ce0a57fd0ec000db73aa6,2021-09-11_16h34.39.923,arrow_simon_vert,2021.1.2,Win32,59.9880024,,,,,,,,,,,,,,,,,,,,,left,1,1.4277,19,FALSE,FALSE,4,2,18,3,1,,,,,,,
,,,,,,0,2.10123897,#f3af84,"[""0"",""0.25""]",down_orange.png,down,,,,,,,,left,left_blue.png,down_orange.png,down,right,up,574ce0a57fd0ec000db73aa6,2021-09-11_16h34.39.923,arrow_simon_vert,2021.1.2,Win32,59.9880024,,,,,,,,,,,,,,,,,,,,,down,1,1.5611,20,FALSE,FALSE,4,3,19,3,1,,,,,,,
,,,,,,0,2.493285786,#a3d0fb,"[""0.25"",""0""]",right_blue.png,right,,,,,,,,right,right_blue.png,up_orange.png,up,right,up,574ce0a57fd0ec000db73aa6,2021-09-11_16h34.39.923,arrow_simon_vert,2021.1.2,Win32,59.9880024,,,,,,,,,,,,,,,,,,,,,left,0,1.7018,21,TRUE,FALSE,5,0,20,1,1,,,,,,,
,,,,,,0,2.028785579,#f3af84,"[""0"",""-0.25""]",up_orange.png,up,,,,,,,,right,right_blue.png,up_orange.png,up,left,down,574ce0a57fd0ec000db73aa6,2021-09-11_16h34.39.923,arrow_simon_vert,2021.1.2,Win32,59.9880024,,,,,,,,,,,,,,,,,,,,,up,1,1.1522,22,FALSE,TRUE,5,1,21,0,1,,,,,,,
,,,,,,0,1.688547786,#a3d0fb,"[""0.25"",""0""]",left_blue.png,left,,,,,,,,left,left_blue.png,down_orange.png,down,right,up,574ce0a57fd0ec000db73aa6,2021-09-11_16h34.39.923,arrow_simon_vert,2021.1.2,Win32,59.9880024,,,,,,,,,,,,,,,,,,,,,left,1,1.5508,23,FALSE,FALSE,5,2,22,3,1,,,,,,,
,,,,,,0,1.895366417,#f3af84,"[""0"",""-0.25""]",up_orange.png,up,,,,,,,,right,right_blue.png,up_orange.png,up,left,down,574ce0a57fd0ec000db73aa6,2021-09-11_16h34.39.923,arrow_simon_vert,2021.1.2,Win32,59.9880024,,,,,,,,,,,,,,,,,,,,,up,1,1.4784,24,FALSE,FALSE,5,3,23,0,1,,,,,,,
,,,,,,0,1.676445468,#a3d0fb,"[""0.25"",""0""]",right_blue.png,right,,,,,,,,right,right_blue.png,up_orange.png,up,right,up,574ce0a57fd0ec000db73aa6,2021-09-11_16h34.39.923,arrow_simon_vert,2021.1.2,Win32,59.9880024,,,,,,,,,,,,,,,,,,,,,right,1,1.4355,25,FALSE,FALSE,6,0,24,1,1,,,,,,,
,,,,,,0,2.053281691,#f3af84,"[""0"",""0.25""]",down_orange.png,down,,,,,,,,left,left_blue.png,down_orange.png,down,right,up,574ce0a57fd0ec000db73aa6,2021-09-11_16h34.39.923,arrow_simon_vert,2021.1.2,Win32,59.9880024,,,,,,,,,,,,,,,,,,,,,down,1,1.5007,26,FALSE,FALSE,6,1,25,3,1,,,,,,,
,,,,,,0,2.051990505,#a3d0fb,"[""0.25"",""0""]",right_blue.png,right,,,,,,,,right,right_blue.png,up_orange.png,up,right,up,574ce0a57fd0ec000db73aa6,2021-09-11_16h34.39.923,arrow_simon_vert,2021.1.2,Win32,59.9880024,,,,,,,,,,,,,,,,,,,,,right,1,1.4373,27,FALSE,FALSE,6,2,26,1,1,,,,,,,
,,,,,,0,2.156349553,#f3af84,"[""0"",""0.25""]",up_orange.png,up,,,,,,,,right,right_blue.png,up_orange.png,up,right,up,574ce0a57fd0ec000db73aa6,2021-09-11_16h34.39.923,arrow_simon_vert,2021.1.2,Win32,59.9880024,,,,,,,,,,,,,,,,,,,,,up,1,1.4726,28,FALSE,FALSE,6,3,27,1,1,,,,,,,
,,,,,,0,1.562311974,#a3d0fb,"[""0.25"",""0""]",right_blue.png,right,,,,,,,,right,right_blue.png,up_orange.png,up,right,up,574ce0a57fd0ec000db73aa6,2021-09-11_16h34.39.923,arrow_simon_vert,2021.1.2,Win32,59.9880024,,,,,,,,,,,,,,,,,,,,,right,1,1.4248,29,FALSE,FALSE,7,0,28,1,1,,,,,,,
,,,,,,1,2.220238922,#f3af84,"[""0"",""-0.25""]",up_orange.png,up,,,,,,,,right,right_blue.png,up_orange.png,up,left,down,574ce0a57fd0ec000db73aa6,2021-09-11_16h34.39.923,arrow_simon_vert,2021.1.2,Win32,59.9880024,,,,,,,,,,,,,,,,,,,,,down,0,1.5949,30,FALSE,FALSE,7,1,29,0,1,,,,,,,
,,,,,,0,1.583704703,#a3d0fb,"[""0.25"",""0""]",right_blue.png,right,,,,,,,,right,right_blue.png,up_orange.png,up,right,up,574ce0a57fd0ec000db73aa6,2021-09-11_16h34.39.923,arrow_simon_vert,2021.1.2,Win32,59.9880024,,,,,,,,,,,,,,,,,,,,,right,1,1.5025,31,FALSE,FALSE,7,2,30,1,1,,,,,,,
,,,,,,0,1.719212257,#f3af84,"[""0"",""0.25""]",up_orange.png,up,,,,,,,,right,right_blue.png,up_orange.png,up,right,up,574ce0a57fd0ec000db73aa6,2021-09-11_16h34.39.923,arrow_simon_vert,2021.1.2,Win32,59.9880024,,,,,,,,,,,,,,,,,,,,,up,1,1.6519,32,TRUE,FALSE,7,3,31,1,1,,,,,,,
,,,,,,0,1.963454939,#a3d0fb,"[""-0.25"",""0""]",right_blue.png,right,,,,,,,,right,right_blue.png,up_orange.png,up,left,down,574ce0a57fd0ec000db73aa6,2021-09-11_16h34.39.923,arrow_simon_vert,2021.1.2,Win32,59.9880024,,,,,,,,,,,,,,,,,,,,,right,1,1.4857,33,FALSE,FALSE,8,0,32,0,1,,,,,,,
,,,,,,0,2.035244004,#f3af84,"[""0"",""-0.25""]",up_orange.png,up,,,,,,,,right,right_blue.png,up_orange.png,up,left,down,574ce0a57fd0ec000db73aa6,2021-09-11_16h34.39.923,arrow_simon_vert,2021.1.2,Win32,59.9880024,,,,,,,,,,,,,,,,,,,,,up,1,1.5223,34,FALSE,FALSE,8,1,33,0,1,,,,,,,
,,,,,,0,2.069030161,#a3d0fb,"[""0.25"",""0""]",left_blue.png,left,,,,,,,,left,left_blue.png,down_orange.png,down,right,up,574ce0a57fd0ec000db73aa6,2021-09-11_16h34.39.923,arrow_simon_vert,2021.1.2,Win32,59.9880024,,,,,,,,,,,,,,,,,,,,,left,1,1.4622,35,FALSE,FALSE,8,2,34,3,1,,,,,,,
,,,,,,0,1.865214495,#f3af84,"[""0"",""-0.25""]",down_orange.png,down,,,,,,,,left,left_blue.png,down_orange.png,down,left,down,574ce0a57fd0ec000db73aa6,2021-09-11_16h34.39.923,arrow_simon_vert,2021.1.2,Win32,59.9880024,,,,,,,,,,,,,,,,,,,,,down,1,1.3446,36,FALSE,TRUE,8,3,35,2,1,,,,,,,
,,,,,,0,2.196052894,#a3d0fb,"[""0.25"",""0""]",right_blue.png,right,,,,,,,,right,right_blue.png,up_orange.png,up,right,up,574ce0a57fd0ec000db73aa6,2021-09-11_16h34.39.923,arrow_simon_vert,2021.1.2,Win32,59.9880024,,,,,,,,,,,,,,,,,,,,,right,1,1.5286,37,FALSE,FALSE,9,0,36,1,1,,,,,,,
,,,,,,0,1.965623776,#f3af84,"[""0"",""-0.25""]",down_orange.png,down,,,,,,,,left,left_blue.png,down_orange.png,down,left,down,574ce0a57fd0ec000db73aa6,2021-09-11_16h34.39.923,arrow_simon_vert,2021.1.2,Win32,59.9880024,,,,,,,,,,,,,,,,,,,,,down,1,1.457,38,FALSE,FALSE,9,1,37,2,1,,,,,,,
,,,,,,0,2.004100442,#a3d0fb,"[""0.25"",""0""]",right_blue.png,right,,,,,,,,right,right_blue.png,up_orange.png,up,right,up,574ce0a57fd0ec000db73aa6,2021-09-11_16h34.39.923,arrow_simon_vert,2021.1.2,Win32,59.9880024,,,,,,,,,,,,,,,,,,,,,right,1,1.5844,39,FALSE,FALSE,9,2,38,1,1,,,,,,,
,,,,,,0,2.322130297,#f3af84,"[""0"",""0.25""]",down_orange.png,down,,,,,,,,left,left_blue.png,down_orange.png,down,right,up,574ce0a57fd0ec000db73aa6,2021-09-11_16h34.39.923,arrow_simon_vert,2021.1.2,Win32,59.9880024,,,,,,,,,,,,,,,,,,,,,down,1,1.8256,40,TRUE,FALSE,9,3,39,3,1,,,,,,,
,,,,,,0,1.933351694,#a3d0fb,"[""0.25"",""0""]",left_blue.png,left,,,,,,,,left,left_blue.png,down_orange.png,down,right,up,574ce0a57fd0ec000db73aa6,2021-09-11_16h34.39.923,arrow_simon_vert,2021.1.2,Win32,59.9880024,,,,,,,,,,,,,,,,,,,,,left,1,1.4238,41,FALSE,FALSE,10,0,40,3,1,,,,,,,
,,,,,,0,2.308951617,#f3af84,"[""0"",""-0.25""]",down_orange.png,down,,,,,,,,left,left_blue.png,down_orange.png,down,left,down,574ce0a57fd0ec000db73aa6,2021-09-11_16h34.39.923,arrow_simon_vert,2021.1.2,Win32,59.9880024,,,,,,,,,,,,,,,,,,,,,down,1,1.6167,42,TRUE,FALSE,10,1,41,2,1,,,,,,,
,,,,,,0,1.704035795,#a3d0fb,"[""0.25"",""0""]",left_blue.png,left,,,,,,,,left,left_blue.png,down_orange.png,down,right,up,574ce0a57fd0ec000db73aa6,2021-09-11_16h34.39.923,arrow_simon_vert,2021.1.2,Win32,59.9880024,,,,,,,,,,,,,,,,,,,,,left,1,1.4041,43,FALSE,FALSE,10,2,42,3,1,,,,,,,
,,,,,,0,1.92598306,#f3af84,"[""0"",""0.25""]",down_orange.png,down,,,,,,,,left,left_blue.png,down_orange.png,down,right,up,574ce0a57fd0ec000db73aa6,2021-09-11_16h34.39.923,arrow_simon_vert,2021.1.2,Win32,59.9880024,,,,,,,,,,,,,,,,,,,,,up,0,1.2849,44,FALSE,TRUE,10,3,43,3,1,,,,,,,
,,,,,,0,1.862821945,#a3d0fb,"[""-0.25"",""0""]",left_blue.png,left,,,,,,,,left,left_blue.png,down_orange.png,down,left,down,574ce0a57fd0ec000db73aa6,2021-09-11_16h34.39.923,arrow_simon_vert,2021.1.2,Win32,59.9880024,,,,,,,,,,,,,,,,,,,,,left,1,1.3009,45,FALSE,TRUE,11,0,44,2,1,,,,,,,
,,,,,,0,2.417831107,#f3af84,"[""0"",""-0.25""]",down_orange.png,down,,,,,,,,left,left_blue.png,down_orange.png,down,left,down,574ce0a57fd0ec000db73aa6,2021-09-11_16h34.39.923,arrow_simon_vert,2021.1.2,Win32,59.9880024,,,,,,,,,,,,,,,,,,,,,left,0,1.7599,46,TRUE,FALSE,11,1,45,2,1,,,,,,,
,,,,,,0,1.88733344,#a3d0fb,"[""0.25"",""0""]",right_blue.png,right,,,,,,,,right,right_blue.png,up_orange.png,up,right,up,574ce0a57fd0ec000db73aa6,2021-09-11_16h34.39.923,arrow_simon_vert,2021.1.2,Win32,59.9880024,,,,,,,,,,,,,,,,,,,,,right,1,1.5897,47,FALSE,FALSE,11,2,46,1,1,,,,,,,
,,,,,,0,1.927073253,#f3af84,"[""0"",""0.25""]",down_orange.png,down,,,,,,,,left,left_blue.png,down_orange.png,down,right,up,574ce0a57fd0ec000db73aa6,2021-09-11_16h34.39.923,arrow_simon_vert,2021.1.2,Win32,59.9880024,,,,,,,,,,,,,,,,,,,,,down,1,1.3852,48,FALSE,TRUE,11,3,47,3,1,,,,,,,
,,,,,,0,1.854420452,#a3d0fb,"[""-0.25"",""0""]",right_blue.png,right,,,,,,,,right,right_blue.png,up_orange.png,up,left,down,574ce0a57fd0ec000db73aa6,2021-09-11_16h34.39.923,arrow_simon_vert,2021.1.2,Win32,59.9880024,,,,,,,,,,,,,,,,,,,,,right,1,1.4041,49,FALSE,FALSE,12,0,48,0,1,,,,,,,
,,,,,,0,2.283132316,#f3af84,"[""0"",""0.25""]",up_orange.png,up,,,,,,,,right,right_blue.png,up_orange.png,up,right,up,574ce0a57fd0ec000db73aa6,2021-09-11_16h34.39.923,arrow_simon_vert,2021.1.2,Win32,59.9880024,,,,,,,,,,,,,,,,,,,,,up,1,1.7014,50,TRUE,FALSE,12,1,49,1,1,,,,,,,
,,,,,,0,1.768147654,#a3d0fb,"[""-0.25"",""0""]",right_blue.png,right,,,,,,,,right,right_blue.png,up_orange.png,up,left,down,574ce0a57fd0ec000db73aa6,2021-09-11_16h34.39.923,arrow_simon_vert,2021.1.2,Win32,59.9880024,,,,,,,,,,,,,,,,,,,,,right,1,1.3972,51,FALSE,TRUE,12,2,50,0,1,,,,,,,
,,,,,,0,1.752823907,#f3af84,"[""0"",""-0.25""]",down_orange.png,down,,,,,,,,left,left_blue.png,down_orange.png,down,left,down,574ce0a57fd0ec000db73aa6,2021-09-11_16h34.39.923,arrow_simon_vert,2021.1.2,Win32,59.9880024,,,,,,,,,,,,,,,,,,,,,down,1,1.3063,52,FALSE,TRUE,12,3,51,2,1,,,,,,,
,,,,,,0,2.448194916,#a3d0fb,"[""-0.25"",""0""]",right_blue.png,right,,,,,,,,right,right_blue.png,up_orange.png,up,left,down,574ce0a57fd0ec000db73aa6,2021-09-11_16h34.39.923,arrow_simon_vert,2021.1.2,Win32,59.9880024,,,,,,,,,,,,,,,,,,,,,left,0,1.7016,53,TRUE,FALSE,13,0,52,0,1,,,,,,,
,,,,,,0,2.492973523,#f3af84,"[""0"",""-0.25""]",down_orange.png,down,,,,,,,,left,left_blue.png,down_orange.png,down,left,down,574ce0a57fd0ec000db73aa6,2021-09-11_16h34.39.923,arrow_simon_vert,2021.1.2,Win32,59.9880024,,,,,,,,,,,,,,,,,,,,,down,1,1.4898,54,FALSE,FALSE,13,1,53,2,1,,,,,,,
,,,,,,0,1.743491098,#a3d0fb,"[""0.25"",""0""]",right_blue.png,right,,,,,,,,right,right_blue.png,up_orange.png,up,right,up,574ce0a57fd0ec000db73aa6,2021-09-11_16h34.39.923,arrow_simon_vert,2021.1.2,Win32,59.9880024,,,,,,,,,,,,,,,,,,,,,right,1,1.4746,55,FALSE,FALSE,13,2,54,1,1,,,,,,,
,,,,,,0,1.912870271,#f3af84,"[""0"",""-0.25""]",up_orange.png,up,,,,,,,,right,right_blue.png,up_orange.png,up,left,down,574ce0a57fd0ec000db73aa6,2021-09-11_16h34.39.923,arrow_simon_vert,2021.1.2,Win32,59.9880024,,,,,,,,,,,,,,,,,,,,,up,1,1.3268,56,FALSE,TRUE,13,3,55,0,1,,,,,,,
,,,,,,0,1.907071754,#a3d0fb,"[""0.25"",""0""]",left_blue.png,left,,,,,,,,left,left_blue.png,down_orange.png,down,right,up,574ce0a57fd0ec000db73aa6,2021-09-11_16h34.39.923,arrow_simon_vert,2021.1.2,Win32,59.9880024,,,,,,,,,,,,,,,,,,,,,left,1,1.4682,57,FALSE,FALSE,14,0,56,3,1,,,,,,,
,,,,,,0,1.771706714,#f3af84,"[""0"",""-0.25""]",down_orange.png,down,,,,,,,,left,left_blue.png,down_orange.png,down,left,down,574ce0a57fd0ec000db73aa6,2021-09-11_16h34.39.923,arrow_simon_vert,2021.1.2,Win32,59.9880024,,,,,,,,,,,,,,,,,,,,,down,1,1.4351,58,FALSE,FALSE,14,1,57,2,1,,,,,,,
,,,,,,0,1.65084184,#a3d0fb,"[""-0.25"",""0""]",right_blue.png,right,,,,,,,,right,right_blue.png,up_orange.png,up,left,down,574ce0a57fd0ec000db73aa6,2021-09-11_16h34.39.923,arrow_simon_vert,2021.1.2,Win32,59.9880024,,,,,,,,,,,,,,,,,,,,,right,1,1.3095,59,FALSE,TRUE,14,2,58,0,1,,,,,,,
,,,,,,0,1.92518567,#f3af84,"[""0"",""-0.25""]",down_orange.png,down,,,,,,,,left,left_blue.png,down_orange.png,down,left,down,574ce0a57fd0ec000db73aa6,2021-09-11_16h34.39.923,arrow_simon_vert,2021.1.2,Win32,59.9880024,,,,,,,,,,,,,,,,,,,,,down,1,1.4677,60,FALSE,FALSE,14,3,59,2,1,,,,,,,
,,,,,,,,,,,,,,,,,,,,,,,,,574ce0a57fd0ec000db73aa6,2021-09-11_16h34.39.923,arrow_simon_vert,2021.1.2,Win32,59.9880024,,,,,,,,,,,,,,,,,,,,,,,,,,,,,,,,space,74.2855,2,0,2,0,1
,,,,,,0,2.059296065,#a3d0fb,"[""0.25"",""0""]",right_blue.png,right,,,,,,,,right,right_blue.png,up_orange.png,up,right,up,574ce0a57fd0ec000db73aa6,2021-09-11_16h34.39.923,arrow_simon_vert,2021.1.2,Win32,59.9880024,,,,,,,,,,,,,,,,,,,,,right,1,1.5213,1,FALSE,FALSE,0,0,0,1,1,,,,,,,
,,,,,,0,1.869435583,#f3af84,"[""0"",""0.25""]",down_orange.png,down,,,,,,,,left,left_blue.png,down_orange.png,down,right,up,574ce0a57fd0ec000db73aa6,2021-09-11_16h34.39.923,arrow_simon_vert,2021.1.2,Win32,59.9880024,,,,,,,,,,,,,,,,,,,,,down,1,1.4401,2,FALSE,FALSE,0,1,1,3,1,,,,,,,
,,,,,,0,1.842843333,#a3d0fb,"[""-0.25"",""0""]",right_blue.png,right,,,,,,,,right,right_blue.png,up_orange.png,up,left,down,574ce0a57fd0ec000db73aa6,2021-09-11_16h34.39.923,arrow_simon_vert,2021.1.2,Win32,59.9880024,,,,,,,,,,,,,,,,,,,,,right,1,1.4851,3,FALSE,FALSE,0,2,2,0,1,,,,,,,
,,,,,,0,1.608132493,#f3af84,"[""0"",""0.25""]",up_orange.png,up,,,,,,,,right,right_blue.png,up_orange.png,up,right,up,574ce0a57fd0ec000db73aa6,2021-09-11_16h34.39.923,arrow_simon_vert,2021.1.2,Win32,59.9880024,,,,,,,,,,,,,,,,,,,,,up,1,1.2779,4,FALSE,TRUE,0,3,3,1,1,,,,,,,
,,,,,,0,2.067585178,#a3d0fb,"[""0.25"",""0""]",right_blue.png,right,,,,,,,,right,right_blue.png,up_orange.png,up,right,up,574ce0a57fd0ec000db73aa6,2021-09-11_16h34.39.923,arrow_simon_vert,2021.1.2,Win32,59.9880024,,,,,,,,,,,,,,,,,,,,,right,1,1.4844,5,FALSE,FALSE,1,0,4,1,1,,,,,,,
,,,,,,0,1.76451746,#f3af84,"[""0"",""-0.25""]",up_orange.png,up,,,,,,,,right,right_blue.png,up_orange.png,up,left,down,574ce0a57fd0ec000db73aa6,2021-09-11_16h34.39.923,arrow_simon_vert,2021.1.2,Win32,59.9880024,,,,,,,,,,,,,,,,,,,,,up,1,1.4514,6,FALSE,FALSE,1,1,5,0,1,,,,,,,
,,,,,,0,1.906304475,#a3d0fb,"[""-0.25"",""0""]",right_blue.png,right,,,,,,,,right,right_blue.png,up_orange.png,up,left,down,574ce0a57fd0ec000db73aa6,2021-09-11_16h34.39.923,arrow_simon_vert,2021.1.2,Win32,59.9880024,,,,,,,,,,,,,,,,,,,,,right,1,1.4906,7,FALSE,FALSE,1,2,6,0,1,,,,,,,
,,,,,,0,1.554803914,#f3af84,"[""0"",""0.25""]",up_orange.png,up,,,,,,,,right,right_blue.png,up_orange.png,up,right,up,574ce0a57fd0ec000db73aa6,2021-09-11_16h34.39.923,arrow_simon_vert,2021.1.2,Win32,59.9880024,,,,,,,,,,,,,,,,,,,,,up,1,1.4966,8,FALSE,FALSE,1,3,7,1,1,,,,,,,
,,,,,,0,1.504484318,#a3d0fb,"[""-0.25"",""0""]",left_blue.png,left,,,,,,,,left,left_blue.png,down_orange.png,down,left,down,574ce0a57fd0ec000db73aa6,2021-09-11_16h34.39.923,arrow_simon_vert,2021.1.2,Win32,59.9880024,,,,,,,,,,,,,,,,,,,,,left,1,1.4711,9,FALSE,FALSE,2,0,8,2,1,,,,,,,
,,,,,,0,1.555048785,#f3af84,"[""0"",""0.25""]",down_orange.png,down,,,,,,,,left,left_blue.png,down_orange.png,down,right,up,574ce0a57fd0ec000db73aa6,2021-09-11_16h34.39.923,arrow_simon_vert,2021.1.2,Win32,59.9880024,,,,,,,,,,,,,,,,,,,,,down,1,1.2604,10,FALSE,TRUE,2,1,9,3,1,,,,,,,
,,,,,,0,2.07341545,#a3d0fb,"[""0.25"",""0""]",right_blue.png,right,,,,,,,,right,right_blue.png,up_orange.png,up,right,up,574ce0a57fd0ec000db73aa6,2021-09-11_16h34.39.923,arrow_simon_vert,2021.1.2,Win32,59.9880024,,,,,,,,,,,,,,,,,,,,,right,1,1.413,11,FALSE,FALSE,2,2,10,1,1,,,,,,,
,,,,,,0,2.22696228,#f3af84,"[""0"",""0.25""]",up_orange.png,up,,,,,,,,right,right_blue.png,up_orange.png,up,right,up,574ce0a57fd0ec000db73aa6,2021-09-11_16h34.39.923,arrow_simon_vert,2021.1.2,Win32,59.9880024,,,,,,,,,,,,,,,,,,,,,up,1,1.6087,12,TRUE,FALSE,2,3,11,1,1,,,,,,,
,,,,,,0,1.746694559,#a3d0fb,"[""-0.25"",""0""]",left_blue.png,left,,,,,,,,left,left_blue.png,down_orange.png,down,left,down,574ce0a57fd0ec000db73aa6,2021-09-11_16h34.39.923,arrow_simon_vert,2021.1.2,Win32,59.9880024,,,,,,,,,,,,,,,,,,,,,left,1,1.4913,13,FALSE,FALSE,3,0,12,2,1,,,,,,,
,,,,,,0,1.842415971,#f3af84,"[""0"",""0.25""]",down_orange.png,down,,,,,,,,left,left_blue.png,down_orange.png,down,right,up,574ce0a57fd0ec000db73aa6,2021-09-11_16h34.39.923,arrow_simon_vert,2021.1.2,Win32,59.9880024,,,,,,,,,,,,,,,,,,,,,down,1,1.4344,14,FALSE,FALSE,3,1,13,3,1,,,,,,,
,,,,,,1,2.079668561,#a3d0fb,"[""0.25"",""0""]",left_blue.png,left,,,,,,,,left,left_blue.png,down_orange.png,down,right,up,574ce0a57fd0ec000db73aa6,2021-09-11_16h34.39.923,arrow_simon_vert,2021.1.2,Win32,59.9880024,,,,,,,,,,,,,,,,,,,,,right,0,1.435,15,FALSE,FALSE,3,2,14,3,1,,,,,,,
,,,,,,1,2.218293244,#f3af84,"[""0"",""0.25""]",down_orange.png,down,,,,,,,,left,left_blue.png,down_orange.png,down,right,up,574ce0a57fd0ec000db73aa6,2021-09-11_16h34.39.923,arrow_simon_vert,2021.1.2,Win32,59.9880024,,,,,,,,,,,,,,,,,,,,,up,0,1.5264,16,FALSE,FALSE,3,3,15,3,1,,,,,,,
,,,,,,0,1.581974436,#a3d0fb,"[""-0.25"",""0""]",left_blue.png,left,,,,,,,,left,left_blue.png,down_orange.png,down,left,down,574ce0a57fd0ec000db73aa6,2021-09-11_16h34.39.923,arrow_simon_vert,2021.1.2,Win32,59.9880024,,,,,,,,,,,,,,,,,,,,,left,1,1.4624,17,FALSE,FALSE,4,0,16,2,1,,,,,,,
