instruct_resp_simon.keys,instruct_resp_simon.corr,instruct_resp_simon.rt,trial_resp_simon.keys,trial_resp_simon.corr,trial_resp_simon.rt,kerr,target_onset,target_color,target_pos,target_file,target_resp,trials_train_simon.thisRepN,trials_train_simon.thisTrialN,trials_train_simon.thisN,trials_train_simon.thisIndex,trials_train_simon.ran,odd_target_pos,even_target_pos,odd_target_resp,odd_target_file,even_target_file,even_target_resp,odd_target_side,even_target_side,participant,date,expName,psychopyVersion,OS,frameRate,train_block_note_resp.keys,train_block_note_resp.rt,blocks_train.thisRepN,blocks_train.thisTrialN,blocks_train.thisN,blocks_train.thisIndex,blocks_train.ran,instruct_resp_timing.keys,instruct_resp_timing.corr,instruct_resp_timing.rt,trial_resp_timing.keys,trial_resp_timing.rt,trials_train_timing.thisRepN,trials_train_timing.thisTrialN,trials_train_timing.thisN,trials_train_timing.thisIndex,trials_train_timing.ran,instruct_resp.keys,instruct_resp.corr,instruct_resp.rt,trial_resp.keys,trial_resp.corr,trial_resp.rt,trial_num,too_slow,too_soon,trials.thisRepN,trials.thisTrialN,trials.thisN,trials.thisIndex,trials.ran,block_note_resp.keys,block_note_resp.rt,blocks.thisRepN,blocks.thisTrialN,blocks.thisN,blocks.thisIndex,blocks.ran
space,0,256.2801,left,1,2.5826,0,0.801233858,#a3d0fb,"[""0.25"",""0""]",left_blue.png,left,0,0,0,3,1,,,left,left_blue.png,down_orange.png,down,right,up,574cca765e5491000f3c89e0,2021-09-11_14h48.30.407,arrow_simon_vert,2021.1.2,Win32,59.46717412,,,,,,,,,,,,,,,,,,,,,,,,,,,,,,,,,,,,,,
,,,down,1,2.3866,0,0.831195628,#f3af84,"[""0"",""0.25""]",down_orange.png,down,0,1,1,3,1,,,left,left_blue.png,down_orange.png,down,right,up,574cca765e5491000f3c89e0,2021-09-11_14h48.30.407,arrow_simon_vert,2021.1.2,Win32,59.46717412,,,,,,,,,,,,,,,,,,,,,,,,,,,,,,,,,,,,,,
,,,right,1,1.8406,0,0.126464938,#a3d0fb,"[""-0.25"",""0""]",right_blue.png,right,0,2,2,0,1,,,right,right_blue.png,up_orange.png,up,left,down,574cca765e5491000f3c89e0,2021-09-11_14h48.30.407,arrow_simon_vert,2021.1.2,Win32,59.46717412,,,,,,,,,,,,,,,,,,,,,,,,,,,,,,,,,,,,,,
,,,up,1,1.2952,0,0.317156474,#f3af84,"[""0"",""0.25""]",up_orange.png,up,0,3,3,1,1,,,right,right_blue.png,up_orange.png,up,right,up,574cca765e5491000f3c89e0,2021-09-11_14h48.30.407,arrow_simon_vert,2021.1.2,Win32,59.46717412,,,,,,,,,,,,,,,,,,,,,,,,,,,,,,,,,,,,,,
,,,left,1,1.4701,0,0.780947344,#a3d0fb,"[""-0.25"",""0""]",left_blue.png,left,1,0,4,2,1,,,left,left_blue.png,down_orange.png,down,left,down,574cca765e5491000f3c89e0,2021-09-11_14h48.30.407,arrow_simon_vert,2021.1.2,Win32,59.46717412,,,,,,,,,,,,,,,,,,,,,,,,,,,,,,,,,,,,,,
,,,down,1,1.1066,0,0.014004304,#f3af84,"[""0"",""-0.25""]",down_orange.png,down,1,1,5,2,1,,,left,left_blue.png,down_orange.png,down,left,down,574cca765e5491000f3c89e0,2021-09-11_14h48.30.407,arrow_simon_vert,2021.1.2,Win32,59.46717412,,,,,,,,,,,,,,,,,,,,,,,,,,,,,,,,,,,,,,
,,,right,1,2.2241,0,0.583667777,#a3d0fb,"[""0.25"",""0""]",right_blue.png,right,1,2,6,1,1,,,right,right_blue.png,up_orange.png,up,right,up,574cca765e5491000f3c89e0,2021-09-11_14h48.30.407,arrow_simon_vert,2021.1.2,Win32,59.46717412,,,,,,,,,,,,,,,,,,,,,,,,,,,,,,,,,,,,,,
,,,down,1,1.1527,0,0.43160078,#f3af84,"[""0"",""-0.25""]",down_orange.png,down,1,3,7,2,1,,,left,left_blue.png,down_orange.png,down,left,down,574cca765e5491000f3c89e0,2021-09-11_14h48.30.407,arrow_simon_vert,2021.1.2,Win32,59.46717412,,,,,,,,,,,,,,,,,,,,,,,,,,,,,,,,,,,,,,
,,,right,1,1.2408,0,0.652231511,#a3d0fb,"[""0.25"",""0""]",right_blue.png,right,2,0,8,1,1,,,right,right_blue.png,up_orange.png,up,right,up,574cca765e5491000f3c89e0,2021-09-11_14h48.30.407,arrow_simon_vert,2021.1.2,Win32,59.46717412,,,,,,,,,,,,,,,,,,,,,,,,,,,,,,,,,,,,,,
,,,down,1,1.6357,0,0.559474612,#f3af84,"[""0"",""0.25""]",down_orange.png,down,2,1,9,3,1,,,left,left_blue.png,down_orange.png,down,right,up,574cca765e5491000f3c89e0,2021-09-11_14h48.30.407,arrow_simon_vert,2021.1.2,Win32,59.46717412,,,,,,,,,,,,,,,,,,,,,,,,,,,,,,,,,,,,,,
,,,right,1,0.8846,0,0.197489629,#a3d0fb,"[""0.25"",""0""]",right_blue.png,right,2,2,10,1,1,,,right,right_blue.png,up_orange.png,up,right,up,574cca765e5491000f3c89e0,2021-09-11_14h48.30.407,arrow_simon_vert,2021.1.2,Win32,59.46717412,,,,,,,,,,,,,,,,,,,,,,,,,,,,,,,,,,,,,,
,,,up,1,1.4439,0,0.941119763,#f3af84,"[""0"",""0.25""]",up_orange.png,up,2,3,11,1,1,,,right,right_blue.png,up_orange.png,up,right,up,574cca765e5491000f3c89e0,2021-09-11_14h48.30.407,arrow_simon_vert,2021.1.2,Win32,59.46717412,,,,,,,,,,,,,,,,,,,,,,,,,,,,,,,,,,,,,,
,,,left,1,1.3457,0,0.537604781,#a3d0fb,"[""0.25"",""0""]",left_blue.png,left,3,0,12,3,1,,,left,left_blue.png,down_orange.png,down,right,up,574cca765e5491000f3c89e0,2021-09-11_14h48.30.407,arrow_simon_vert,2021.1.2,Win32,59.46717412,,,,,,,,,,,,,,,,,,,,,,,,,,,,,,,,,,,,,,
,,,up,1,1.7893,0,0.639400499,#f3af84,"[""0"",""-0.25""]",up_orange.png,up,3,1,13,0,1,,,right,right_blue.png,up_orange.png,up,left,down,574cca765e5491000f3c89e0,2021-09-11_14h48.30.407,arrow_simon_vert,2021.1.2,Win32,59.46717412,,,,,,,,,,,,,,,,,,,,,,,,,,,,,,,,,,,,,,
,,,left,1,1.4842,0,0.849709089,#a3d0fb,"[""0.25"",""0""]",left_blue.png,left,3,2,14,3,1,,,left,left_blue.png,down_orange.png,down,right,up,574cca765e5491000f3c89e0,2021-09-11_14h48.30.407,arrow_simon_vert,2021.1.2,Win32,59.46717412,,,,,,,,,,,,,,,,,,,,,,,,,,,,,,,,,,,,,,
,,,up,1,1.5527,0,0.815559672,#f3af84,"[""0"",""-0.25""]",up_orange.png,up,3,3,15,0,1,,,right,right_blue.png,up_orange.png,up,left,down,574cca765e5491000f3c89e0,2021-09-11_14h48.30.407,arrow_simon_vert,2021.1.2,Win32,59.46717412,,,,,,,,,,,,,,,,,,,,,,,,,,,,,,,,,,,,,,
,,,right,1,1.2629,0,0.713428061,#a3d0fb,"[""0.25"",""0""]",right_blue.png,right,4,0,16,1,1,,,right,right_blue.png,up_orange.png,up,right,up,574cca765e5491000f3c89e0,2021-09-11_14h48.30.407,arrow_simon_vert,2021.1.2,Win32,59.46717412,,,,,,,,,,,,,,,,,,,,,,,,,,,,,,,,,,,,,,
,,,down,1,0.7509,0,0.069092476,#f3af84,"[""0"",""-0.25""]",down_orange.png,down,4,1,17,2,1,,,left,left_blue.png,down_orange.png,down,left,down,574cca765e5491000f3c89e0,2021-09-11_14h48.30.407,arrow_simon_vert,2021.1.2,Win32,59.46717412,,,,,,,,,,,,,,,,,,,,,,,,,,,,,,,,,,,,,,
,,,right,1,1.0196,0,0.372307481,#a3d0fb,"[""0.25"",""0""]",right_blue.png,right,4,2,18,1,1,,,right,right_blue.png,up_orange.png,up,right,up,574cca765e5491000f3c89e0,2021-09-11_14h48.30.407,arrow_simon_vert,2021.1.2,Win32,59.46717412,,,,,,,,,,,,,,,,,,,,,,,,,,,,,,,,,,,,,,
,,,down,1,1.1186,0,0.464143193,#f3af84,"[""0"",""-0.25""]",down_orange.png,down,4,3,19,2,1,,,left,left_blue.png,down_orange.png,down,left,down,574cca765e5491000f3c89e0,2021-09-11_14h48.30.407,arrow_simon_vert,2021.1.2,Win32,59.46717412,,,,,,,,,,,,,,,,,,,,,,,,,,,,,,,,,,,,,,
,,,right,1,1.51,0,0.838409412,#a3d0fb,"[""0.25"",""0""]",right_blue.png,right,5,0,20,1,1,,,right,right_blue.png,up_orange.png,up,right,up,574cca765e5491000f3c89e0,2021-09-11_14h48.30.407,arrow_simon_vert,2021.1.2,Win32,59.46717412,,,,,,,,,,,,,,,,,,,,,,,,,,,,,,,,,,,,,,
,,,down,1,0.952,0,0.106017931,#f3af84,"[""0"",""0.25""]",down_orange.png,down,5,1,21,3,1,,,left,left_blue.png,down_orange.png,down,right,up,574cca765e5491000f3c89e0,2021-09-11_14h48.30.407,arrow_simon_vert,2021.1.2,Win32,59.46717412,,,,,,,,,,,,,,,,,,,,,,,,,,,,,,,,,,,,,,
,,,left,1,0.5759,0,0.004032459,#a3d0fb,"[""-0.25"",""0""]",left_blue.png,left,5,2,22,2,1,,,left,left_blue.png,down_orange.png,down,left,down,574cca765e5491000f3c89e0,2021-09-11_14h48.30.407,arrow_simon_vert,2021.1.2,Win32,59.46717412,,,,,,,,,,,,,,,,,,,,,,,,,,,,,,,,,,,,,,
,,,down,1,1.5332,0,0.817345383,#f3af84,"[""0"",""0.25""]",down_orange.png,down,5,3,23,3,1,,,left,left_blue.png,down_orange.png,down,right,up,574cca765e5491000f3c89e0,2021-09-11_14h48.30.407,arrow_simon_vert,2021.1.2,Win32,59.46717412,,,,,,,,,,,,,,,,,,,,,,,,,,,,,,,,,,,,,,
,,,right,1,1.16,0,0.196323694,#a3d0fb,"[""-0.25"",""0""]",right_blue.png,right,6,0,24,0,1,,,right,right_blue.png,up_orange.png,up,left,down,574cca765e5491000f3c89e0,2021-09-11_14h48.30.407,arrow_simon_vert,2021.1.2,Win32,59.46717412,,,,,,,,,,,,,,,,,,,,,,,,,,,,,,,,,,,,,,
,,,down,1,1.1188,0,0.378443172,#f3af84,"[""0"",""0.25""]",down_orange.png,down,6,1,25,3,1,,,left,left_blue.png,down_orange.png,down,right,up,574cca765e5491000f3c89e0,2021-09-11_14h48.30.407,arrow_simon_vert,2021.1.2,Win32,59.46717412,,,,,,,,,,,,,,,,,,,,,,,,,,,,,,,,,,,,,,
,,,left,1,1.5593,0,0.657237175,#a3d0fb,"[""-0.25"",""0""]",left_blue.png,left,6,2,26,2,1,,,left,left_blue.png,down_orange.png,down,left,down,574cca765e5491000f3c89e0,2021-09-11_14h48.30.407,arrow_simon_vert,2021.1.2,Win32,59.46717412,,,,,,,,,,,,,,,,,,,,,,,,,,,,,,,,,,,,,,
,,,up,1,1.6881,0,0.972636722,#f3af84,"[""0"",""-0.25""]",up_orange.png,up,6,3,27,0,1,,,right,right_blue.png,up_orange.png,up,left,down,574cca765e5491000f3c89e0,2021-09-11_14h48.30.407,arrow_simon_vert,2021.1.2,Win32,59.46717412,,,,,,,,,,,,,,,,,,,,,,,,,,,,,,,,,,,,,,
,,,right,1,1.0397,0,0.323404952,#a3d0fb,"[""-0.25"",""0""]",right_blue.png,right,7,0,28,0,1,,,right,right_blue.png,up_orange.png,up,left,down,574cca765e5491000f3c89e0,2021-09-11_14h48.30.407,arrow_simon_vert,2021.1.2,Win32,59.46717412,,,,,,,,,,,,,,,,,,,,,,,,,,,,,,,,,,,,,,
,,,up,1,1.344,0,0.519279363,#f3af84,"[""0"",""0.25""]",up_orange.png,up,7,1,29,1,1,,,right,right_blue.png,up_orange.png,up,right,up,574cca765e5491000f3c89e0,2021-09-11_14h48.30.407,arrow_simon_vert,2021.1.2,Win32,59.46717412,,,,,,,,,,,,,,,,,,,,,,,,,,,,,,,,,,,,,,
,,,right,1,0.809,0,0.27127029,#a3d0fb,"[""0.25"",""0""]",right_blue.png,right,7,2,30,1,1,,,right,right_blue.png,up_orange.png,up,right,up,574cca765e5491000f3c89e0,2021-09-11_14h48.30.407,arrow_simon_vert,2021.1.2,Win32,59.46717412,,,,,,,,,,,,,,,,,,,,,,,,,,,,,,,,,,,,,,
,,,up,1,1.7898,0,0.034903772,#f3af84,"[""0"",""-0.25""]",up_orange.png,up,7,3,31,0,1,,,right,right_blue.png,up_orange.png,up,left,down,574cca765e5491000f3c89e0,2021-09-11_14h48.30.407,arrow_simon_vert,2021.1.2,Win32,59.46717412,,,,,,,,,,,,,,,,,,,,,,,,,,,,,,,,,,,,,,
,,,left,1,0.7702,0,0.2679585,#a3d0fb,"[""-0.25"",""0""]",left_blue.png,left,8,0,32,2,1,,,left,left_blue.png,down_orange.png,down,left,down,574cca765e5491000f3c89e0,2021-09-11_14h48.30.407,arrow_simon_vert,2021.1.2,Win32,59.46717412,,,,,,,,,,,,,,,,,,,,,,,,,,,,,,,,,,,,,,
,,,down,1,0.9786,0,0.139629175,#f3af84,"[""0"",""0.25""]",down_orange.png,down,8,1,33,3,1,,,left,left_blue.png,down_orange.png,down,right,up,574cca765e5491000f3c89e0,2021-09-11_14h48.30.407,arrow_simon_vert,2021.1.2,Win32,59.46717412,,,,,,,,,,,,,,,,,,,,,,,,,,,,,,,,,,,,,,
,,,right,1,0.9184,0,0.233319064,#a3d0fb,"[""-0.25"",""0""]",right_blue.png,right,8,2,34,0,1,,,right,right_blue.png,up_orange.png,up,left,down,574cca765e5491000f3c89e0,2021-09-11_14h48.30.407,arrow_simon_vert,2021.1.2,Win32,59.46717412,,,,,,,,,,,,,,,,,,,,,,,,,,,,,,,,,,,,,,
,,,down,1,0.7547,0,0.197369562,#f3af84,"[""0"",""-0.25""]",down_orange.png,down,8,3,35,2,1,,,left,left_blue.png,down_orange.png,down,left,down,574cca765e5491000f3c89e0,2021-09-11_14h48.30.407,arrow_simon_vert,2021.1.2,Win32,59.46717412,,,,,,,,,,,,,,,,,,,,,,,,,,,,,,,,,,,,,,
,,,left,1,1.1522,0,0.577905315,#a3d0fb,"[""0.25"",""0""]",left_blue.png,left,9,0,36,3,1,,,left,left_blue.png,down_orange.png,down,right,up,574cca765e5491000f3c89e0,2021-09-11_14h48.30.407,arrow_simon_vert,2021.1.2,Win32,59.46717412,,,,,,,,,,,,,,,,,,,,,,,,,,,,,,,,,,,,,,
,,,up,1,1.6679,0,0.996338063,#f3af84,"[""0"",""-0.25""]",up_orange.png,up,9,1,37,0,1,,,right,right_blue.png,up_orange.png,up,left,down,574cca765e5491000f3c89e0,2021-09-11_14h48.30.407,arrow_simon_vert,2021.1.2,Win32,59.46717412,,,,,,,,,,,,,,,,,,,,,,,,,,,,,,,,,,,,,,
,,,left,1,1.3876,0,0.289035791,#a3d0fb,"[""-0.25"",""0""]",left_blue.png,left,9,2,38,2,1,,,left,left_blue.png,down_orange.png,down,left,down,574cca765e5491000f3c89e0,2021-09-11_14h48.30.407,arrow_simon_vert,2021.1.2,Win32,59.46717412,,,,,,,,,,,,,,,,,,,,,,,,,,,,,,,,,,,,,,
,,,up,1,1.4464,0,0.016087783,#f3af84,"[""0"",""-0.25""]",up_orange.png,up,9,3,39,0,1,,,right,right_blue.png,up_orange.png,up,left,down,574cca765e5491000f3c89e0,2021-09-11_14h48.30.407,arrow_simon_vert,2021.1.2,Win32,59.46717412,,,,,,,,,,,,,,,,,,,,,,,,,,,,,,,,,,,,,,
,,,left,1,0.8254,0,0.098623249,#a3d0fb,"[""0.25"",""0""]",left_blue.png,left,10,0,40,3,1,,,left,left_blue.png,down_orange.png,down,right,up,574cca765e5491000f3c89e0,2021-09-11_14h48.30.407,arrow_simon_vert,2021.1.2,Win32,59.46717412,,,,,,,,,,,,,,,,,,,,,,,,,,,,,,,,,,,,,,
,,,up,1,1.5699,0,0.659939331,#f3af84,"[""0"",""-0.25""]",up_orange.png,up,10,1,41,0,1,,,right,right_blue.png,up_orange.png,up,left,down,574cca765e5491000f3c89e0,2021-09-11_14h48.30.407,arrow_simon_vert,2021.1.2,Win32,59.46717412,,,,,,,,,,,,,,,,,,,,,,,,,,,,,,,,,,,,,,
,,,right,1,0.8567,0,0.185233434,#a3d0fb,"[""-0.25"",""0""]",right_blue.png,right,10,2,42,0,1,,,right,right_blue.png,up_orange.png,up,left,down,574cca765e5491000f3c89e0,2021-09-11_14h48.30.407,arrow_simon_vert,2021.1.2,Win32,59.46717412,,,,,,,,,,,,,,,,,,,,,,,,,,,,,,,,,,,,,,
,,,up,1,3.0364,0,0.655587892,#f3af84,"[""0"",""0.25""]",up_orange.png,up,10,3,43,1,1,,,right,right_blue.png,up_orange.png,up,right,up,574cca765e5491000f3c89e0,2021-09-11_14h48.30.407,arrow_simon_vert,2021.1.2,Win32,59.46717412,,,,,,,,,,,,,,,,,,,,,,,,,,,,,,,,,,,,,,
,,,right,1,1.1849,0,0.615870989,#a3d0fb,"[""0.25"",""0""]",right_blue.png,right,11,0,44,1,1,,,right,right_blue.png,up_orange.png,up,right,up,574cca765e5491000f3c89e0,2021-09-11_14h48.30.407,arrow_simon_vert,2021.1.2,Win32,59.46717412,,,,,,,,,,,,,,,,,,,,,,,,,,,,,,,,,,,,,,
,,,up,1,1.5208,0,0.288641118,#f3af84,"[""0"",""0.25""]",up_orange.png,up,11,1,45,1,1,,,right,right_blue.png,up_orange.png,up,right,up,574cca765e5491000f3c89e0,2021-09-11_14h48.30.407,arrow_simon_vert,2021.1.2,Win32,59.46717412,,,,,,,,,,,,,,,,,,,,,,,,,,,,,,,,,,,,,,
,,,right,1,1.57,0,0.81722432,#a3d0fb,"[""0.25"",""0""]",right_blue.png,right,11,2,46,1,1,,,right,right_blue.png,up_orange.png,up,right,up,574cca765e5491000f3c89e0,2021-09-11_14h48.30.407,arrow_simon_vert,2021.1.2,Win32,59.46717412,,,,,,,,,,,,,,,,,,,,,,,,,,,,,,,,,,,,,,
,,,down,1,1.1414,0,0.392633741,#f3af84,"[""0"",""-0.25""]",down_orange.png,down,11,3,47,2,1,,,left,left_blue.png,down_orange.png,down,left,down,574cca765e5491000f3c89e0,2021-09-11_14h48.30.407,arrow_simon_vert,2021.1.2,Win32,59.46717412,,,,,,,,,,,,,,,,,,,,,,,,,,,,,,,,,,,,,,
,,,left,1,0.9183,0,0.446744831,#a3d0fb,"[""-0.25"",""0""]",left_blue.png,left,12,0,48,2,1,,,left,left_blue.png,down_orange.png,down,left,down,574cca765e5491000f3c89e0,2021-09-11_14h48.30.407,arrow_simon_vert,2021.1.2,Win32,59.46717412,,,,,,,,,,,,,,,,,,,,,,,,,,,,,,,,,,,,,,
,,,up,1,1.0516,0,0.019862061,#f3af84,"[""0"",""-0.25""]",up_orange.png,up,12,1,49,0,1,,,right,right_blue.png,up_orange.png,up,left,down,574cca765e5491000f3c89e0,2021-09-11_14h48.30.407,arrow_simon_vert,2021.1.2,Win32,59.46717412,,,,,,,,,,,,,,,,,,,,,,,,,,,,,,,,,,,,,,
,,,left,1,1.3051,0,0.723899046,#a3d0fb,"[""0.25"",""0""]",left_blue.png,left,12,2,50,3,1,,,left,left_blue.png,down_orange.png,down,right,up,574cca765e5491000f3c89e0,2021-09-11_14h48.30.407,arrow_simon_vert,2021.1.2,Win32,59.46717412,,,,,,,,,,,,,,,,,,,,,,,,,,,,,,,,,,,,,,
,,,down,1,1.5192,0,0.598677631,#f3af84,"[""0"",""0.25""]",down_orange.png,down,12,3,51,3,1,,,left,left_blue.png,down_orange.png,down,right,up,574cca765e5491000f3c89e0,2021-09-11_14h48.30.407,arrow_simon_vert,2021.1.2,Win32,59.46717412,,,,,,,,,,,,,,,,,,,,,,,,,,,,,,,,,,,,,,
,,,right,1,0.6715,0,0.137930087,#a3d0fb,"[""0.25"",""0""]",right_blue.png,right,13,0,52,1,1,,,right,right_blue.png,up_orange.png,up,right,up,574cca765e5491000f3c89e0,2021-09-11_14h48.30.407,arrow_simon_vert,2021.1.2,Win32,59.46717412,,,,,,,,,,,,,,,,,,,,,,,,,,,,,,,,,,,,,,
,,,down,1,0.77,0,0.222251484,#f3af84,"[""0"",""-0.25""]",down_orange.png,down,13,1,53,2,1,,,left,left_blue.png,down_orange.png,down,left,down,574cca765e5491000f3c89e0,2021-09-11_14h48.30.407,arrow_simon_vert,2021.1.2,Win32,59.46717412,,,,,,,,,,,,,,,,,,,,,,,,,,,,,,,,,,,,,,
,,,right,1,0.8765,0,0.196145593,#a3d0fb,"[""-0.25"",""0""]",right_blue.png,right,13,2,54,0,1,,,right,right_blue.png,up_orange.png,up,left,down,574cca765e5491000f3c89e0,2021-09-11_14h48.30.407,arrow_simon_vert,2021.1.2,Win32,59.46717412,,,,,,,,,,,,,,,,,,,,,,,,,,,,,,,,,,,,,,
,,,down,1,1.0122,0,0.339431224,#f3af84,"[""0"",""-0.25""]",down_orange.png,down,13,3,55,2,1,,,left,left_blue.png,down_orange.png,down,left,down,574cca765e5491000f3c89e0,2021-09-11_14h48.30.407,arrow_simon_vert,2021.1.2,Win32,59.46717412,,,,,,,,,,,,,,,,,,,,,,,,,,,,,,,,,,,,,,
,,,left,1,0.8857,0,0.394290103,#a3d0fb,"[""-0.25"",""0""]",left_blue.png,left,14,0,56,2,1,,,left,left_blue.png,down_orange.png,down,left,down,574cca765e5491000f3c89e0,2021-09-11_14h48.30.407,arrow_simon_vert,2021.1.2,Win32,59.46717412,,,,,,,,,,,,,,,,,,,,,,,,,,,,,,,,,,,,,,
,,,up,1,1.603,0,0.981705112,#f3af84,"[""0"",""-0.25""]",up_orange.png,up,14,1,57,0,1,,,right,right_blue.png,up_orange.png,up,left,down,574cca765e5491000f3c89e0,2021-09-11_14h48.30.407,arrow_simon_vert,2021.1.2,Win32,59.46717412,,,,,,,,,,,,,,,,,,,,,,,,,,,,,,,,,,,,,,
,,,left,1,1.0606,0,0.459333715,#a3d0fb,"[""0.25"",""0""]",left_blue.png,left,14,2,58,3,1,,,left,left_blue.png,down_orange.png,down,right,up,574cca765e5491000f3c89e0,2021-09-11_14h48.30.407,arrow_simon_vert,2021.1.2,Win32,59.46717412,,,,,,,,,,,,,,,,,,,,,,,,,,,,,,,,,,,,,,
,,,down,1,0.8691,0,0.104609578,#f3af84,"[""0"",""0.25""]",down_orange.png,down,14,3,59,3,1,,,left,left_blue.png,down_orange.png,down,right,up,574cca765e5491000f3c89e0,2021-09-11_14h48.30.407,arrow_simon_vert,2021.1.2,Win32,59.46717412,,,,,,,,,,,,,,,,,,,,,,,,,,,,,,,,,,,,,,
,,,,,,,,,,,,,,,,,,,,,,,,,574cca765e5491000f3c89e0,2021-09-11_14h48.30.407,arrow_simon_vert,2021.1.2,Win32,59.46717412,space,45.3584,0,0,0,0,1,,,,,,,,,,,,,,,,,,,,,,,,,,,,,,,
,,,right,1,1.8009,0,0.194301887,#a3d0fb,"[""0.25"",""0""]",right_blue.png,right,0,0,0,1,1,,,right,right_blue.png,up_orange.png,up,right,up,574cca765e5491000f3c89e0,2021-09-11_14h48.30.407,arrow_simon_vert,2021.1.2,Win32,59.46717412,,,,,,,,,,,,,,,,,,,,,,,,,,,,,,,,,,,,,,
,,,up,1,2.158,0,0.93408702,#f3af84,"[""0"",""-0.25""]",up_orange.png,up,0,1,1,0,1,,,right,right_blue.png,up_orange.png,up,left,down,574cca765e5491000f3c89e0,2021-09-11_14h48.30.407,arrow_simon_vert,2021.1.2,Win32,59.46717412,,,,,,,,,,,,,,,,,,,,,,,,,,,,,,,,,,,,,,
,,,left,1,0.9947,0,0.449997667,#a3d0fb,"[""-0.25"",""0""]",left_blue.png,left,0,2,2,2,1,,,left,left_blue.png,down_orange.png,down,left,down,574cca765e5491000f3c89e0,2021-09-11_14h48.30.407,arrow_simon_vert,2021.1.2,Win32,59.46717412,,,,,,,,,,,,,,,,,,,,,,,,,,,,,,,,,,,,,,
,,,up,1,2.3158,0,0.781963176,#f3af84,"[""0"",""-0.25""]",up_orange.png,up,0,3,3,0,1,,,right,right_blue.png,up_orange.png,up,left,down,574cca765e5491000f3c89e0,2021-09-11_14h48.30.407,arrow_simon_vert,2021.1.2,Win32,59.46717412,,,,,,,,,,,,,,,,,,,,,,,,,,,,,,,,,,,,,,
,,,right,1,1.165,0,0.318787248,#a3d0fb,"[""-0.25"",""0""]",right_blue.png,right,1,0,4,0,1,,,right,right_blue.png,up_orange.png,up,left,down,574cca765e5491000f3c89e0,2021-09-11_14h48.30.407,arrow_simon_vert,2021.1.2,Win32,59.46717412,,,,,,,,,,,,,,,,,,,,,,,,,,,,,,,,,,,,,,
,,,up,1,1.4377,0,0.802799704,#f3af84,"[""0"",""-0.25""]",up_orange.png,up,1,1,5,0,1,,,right,right_blue.png,up_orange.png,up,left,down,574cca765e5491000f3c89e0,2021-09-11_14h48.30.407,arrow_simon_vert,2021.1.2,Win32,59.46717412,,,,,,,,,,,,,,,,,,,,,,,,,,,,,,,,,,,,,,
,,,right,1,0.8151,0,0.31116477,#a3d0fb,"[""0.25"",""0""]",right_blue.png,right,1,2,6,1,1,,,right,right_blue.png,up_orange.png,up,right,up,574cca765e5491000f3c89e0,2021-09-11_14h48.30.407,arrow_simon_vert,2021.1.2,Win32,59.46717412,,,,,,,,,,,,,,,,,,,,,,,,,,,,,,,,,,,,,,
,,,up,1,1.0079,0,0.361684413,#f3af84,"[""0"",""-0.25""]",up_orange.png,up,1,3,7,0,1,,,right,right_blue.png,up_orange.png,up,left,down,574cca765e5491000f3c89e0,2021-09-11_14h48.30.407,arrow_simon_vert,2021.1.2,Win32,59.46717412,,,,,,,,,,,,,,,,,,,,,,,,,,,,,,,,,,,,,,
,,,left,1,1.395,0,0.998616366,#a3d0fb,"[""-0.25"",""0""]",left_blue.png,left,2,0,8,2,1,,,left,left_blue.png,down_orange.png,down,left,down,574cca765e5491000f3c89e0,2021-09-11_14h48.30.407,arrow_simon_vert,2021.1.2,Win32,59.46717412,,,,,,,,,,,,,,,,,,,,,,,,,,,,,,,,,,,,,,
,,,down,1,1.6925,0,0.939535105,#f3af84,"[""0"",""0.25""]",down_orange.png,down,2,1,9,3,1,,,left,left_blue.png,down_orange.png,down,right,up,574cca765e5491000f3c89e0,2021-09-11_14h48.30.407,arrow_simon_vert,2021.1.2,Win32,59.46717412,,,,,,,,,,,,,,,,,,,,,,,,,,,,,,,,,,,,,,
,,,left,1,2.0999,0,0.631377343,#a3d0fb,"[""0.25"",""0""]",left_blue.png,left,2,2,10,3,1,,,left,left_blue.png,down_orange.png,down,right,up,574cca765e5491000f3c89e0,2021-09-11_14h48.30.407,arrow_simon_vert,2021.1.2,Win32,59.46717412,,,,,,,,,,,,,,,,,,,,,,,,,,,,,,,,,,,,,,
,,,up,1,1.0225,0,0.034656499,#f3af84,"[""0"",""0.25""]",up_orange.png,up,2,3,11,1,1,,,right,right_blue.png,up_orange.png,up,right,up,574cca765e5491000f3c89e0,2021-09-11_14h48.30.407,arrow_simon_vert,2021.1.2,Win32,59.46717412,,,,,,,,,,,,,,,,,,,,,,,,,,,,,,,,,,,,,,
,,,right,1,0.6219,0,0.027733681,#a3d0fb,"[""-0.25"",""0""]",right_blue.png,right,3,0,12,0,1,,,right,right_blue.png,up_orange.png,up,left,down,574cca765e5491000f3c89e0,2021-09-11_14h48.30.407,arrow_simon_vert,2021.1.2,Win32,59.46717412,,,,,,,,,,,,,,,,,,,,,,,,,,,,,,,,,,,,,,
,,,up,1,1.2111,0,0.635399931,#f3af84,"[""0"",""0.25""]",up_orange.png,up,3,1,13,1,1,,,right,right_blue.png,up_orange.png,up,right,up,574cca765e5491000f3c89e0,2021-09-11_14h48.30.407,arrow_simon_vert,2021.1.2,Win32,59.46717412,,,,,,,,,,,,,,,,,,,,,,,,,,,,,,,,,,,,,,
,,,right,1,0.6179,0,0.093562487,#a3d0fb,"[""0.25"",""0""]",right_blue.png,right,3,2,14,1,1,,,right,right_blue.png,up_orange.png,up,right,up,574cca765e5491000f3c89e0,2021-09-11_14h48.30.407,arrow_simon_vert,2021.1.2,Win32,59.46717412,,,,,,,,,,,,,,,,,,,,,,,,,,,,,,,,,,,,,,
,,,up,1,1.5436,0,0.642191982,#f3af84,"[""0"",""-0.25""]",up_orange.png,up,3,3,15,0,1,,,right,right_blue.png,up_orange.png,up,left,down,574cca765e5491000f3c89e0,2021-09-11_14h48.30.407,arrow_simon_vert,2021.1.2,Win32,59.46717412,,,,,,,,,,,,,,,,,,,,,,,,,,,,,,,,,,,,,,
,,,left,1,0.6307,0,0.123765592,#a3d0fb,"[""-0.25"",""0""]",left_blue.png,left,4,0,16,2,1,,,left,left_blue.png,down_orange.png,down,left,down,574cca765e5491000f3c89e0,2021-09-11_14h48.30.407,arrow_simon_vert,2021.1.2,Win32,59.46717412,,,,,,,,,,,,,,,,,,,,,,,,,,,,,,,,,,,,,,
,,,down,1,1.3027,0,0.509838957,#f3af84,"[""0"",""0.25""]",down_orange.png,down,4,1,17,3,1,,,left,left_blue.png,down_orange.png,down,right,up,574cca765e5491000f3c89e0,2021-09-11_14h48.30.407,arrow_simon_vert,2021.1.2,Win32,59.46717412,,,,,,,,,,,,,,,,,,,,,,,,,,,,,,,,,,,,,,
,,,left,1,1.2149,0,0.708920211,#a3d0fb,"[""-0.25"",""0""]",left_blue.png,left,4,2,18,2,1,,,left,left_blue.png,down_orange.png,down,left,down,574cca765e5491000f3c89e0,2021-09-11_14h48.30.407,arrow_simon_vert,2021.1.2,Win32,59.46717412,,,,,,,,,,,,,,,,,,,,,,,,,,,,,,,,,,,,,,
,,,up,1,1.2626,0,0.780282944,#f3af84,"[""0"",""0.25""]",up_orange.png,up,4,3,19,1,1,,,right,right_blue.png,up_orange.png,up,right,up,574cca765e5491000f3c89e0,2021-09-11_14h48.30.407,arrow_simon_vert,2021.1.2,Win32,59.46717412,,,,,,,,,,,,,,,,,,,,,,,,,,,,,,,,,,,,,,
,,,right,1,1.5159,0,0.979526199,#a3d0fb,"[""0.25"",""0""]",right_blue.png,right,5,0,20,1,1,,,right,right_blue.png,up_orange.png,up,right,up,574cca765e5491000f3c89e0,2021-09-11_14h48.30.407,arrow_simon_vert,2021.1.2,Win32,59.46717412,,,,,,,,,,,,,,,,,,,,,,,,,,,,,,,,,,,,,,
,,,up,1,1.6644,0,0.950138157,#f3af84,"[""0"",""0.25""]",up_orange.png,up,5,1,21,1,1,,,right,right_blue.png,up_orange.png,up,right,up,574cca765e5491000f3c89e0,2021-09-11_14h48.30.407,arrow_simon_vert,2021.1.2,Win32,59.46717412,,,,,,,,,,,,,,,,,,,,,,,,,,,,,,,,,,,,,,
,,,left,1,0.9861,0,0.273660003,#a3d0fb,"[""0.25"",""0""]",left_blue.png,left,5,2,22,3,1,,,left,left_blue.png,down_orange.png,down,right,up,574cca765e5491000f3c89e0,2021-09-11_14h48.30.407,arrow_simon_vert,2021.1.2,Win32,59.46717412,,,,,,,,,,,,,,,,,,,,,,,,,,,,,,,,,,,,,,
,,,down,1,1.4525,0,0.604143483,#f3af84,"[""0"",""0.25""]",down_orange.png,down,5,3,23,3,1,,,left,left_blue.png,down_orange.png,down,right,up,574cca765e5491000f3c89e0,2021-09-11_14h48.30.407,arrow_simon_vert,2021.1.2,Win32,59.46717412,,,,,,,,,,,,,,,,,,,,,,,,,,,,,,,,,,,,,,
,,,right,1,0.8458,0,0.331645456,#a3d0fb,"[""0.25"",""0""]",right_blue.png,right,6,0,24,1,1,,,right,right_blue.png,up_orange.png,up,right,up,574cca765e5491000f3c89e0,2021-09-11_14h48.30.407,arrow_simon_vert,2021.1.2,Win32,59.46717412,,,,,,,,,,,,,,,,,,,,,,,,,,,,,,,,,,,,,,
,,,up,1,0.8494,0,0.135153207,#f3af84,"[""0"",""-0.25""]",up_orange.png,up,6,1,25,0,1,,,right,right_blue.png,up_orange.png,up,left,down,574cca765e5491000f3c89e0,2021-09-11_14h48.30.407,arrow_simon_vert,2021.1.2,Win32,59.46717412,,,,,,,,,,,,,,,,,,,,,,,,,,,,,,,,,,,,,,
,,,right,1,0.6821,0,0.005160472,#a3d0fb,"[""0.25"",""0""]",right_blue.png,right,6,2,26,1,1,,,right,right_blue.png,up_orange.png,up,right,up,574cca765e5491000f3c89e0,2021-09-11_14h48.30.407,arrow_simon_vert,2021.1.2,Win32,59.46717412,,,,,,,,,,,,,,,,,,,,,,,,,,,,,,,,,,,,,,
,,,down,1,1.6576,0,0.946531993,#f3af84,"[""0"",""0.25""]",down_orange.png,down,6,3,27,3,1,,,left,left_blue.png,down_orange.png,down,right,up,574cca765e5491000f3c89e0,2021-09-11_14h48.30.407,arrow_simon_vert,2021.1.2,Win32,59.46717412,,,,,,,,,,,,,,,,,,,,,,,,,,,,,,,,,,,,,,
,,,left,1,0.8939,0,0.393877093,#a3d0fb,"[""-0.25"",""0""]",left_blue.png,left,7,0,28,2,1,,,left,left_blue.png,down_orange.png,down,left,down,574cca765e5491000f3c89e0,2021-09-11_14h48.30.407,arrow_simon_vert,2021.1.2,Win32,59.46717412,,,,,,,,,,,,,,,,,,,,,,,,,,,,,,,,,,,,,,
,,,down,1,1.6911,0,0.983364592,#f3af84,"[""0"",""-0.25""]",down_orange.png,down,7,1,29,2,1,,,left,left_blue.png,down_orange.png,down,left,down,574cca765e5491000f3c89e0,2021-09-11_14h48.30.407,arrow_simon_vert,2021.1.2,Win32,59.46717412,,,,,,,,,,,,,,,,,,,,,,,,,,,,,,,,,,,,,,
,,,left,1,0.8363,0,0.000826117,#a3d0fb,"[""0.25"",""0""]",left_blue.png,left,7,2,30,3,1,,,left,left_blue.png,down_orange.png,down,right,up,574cca765e5491000f3c89e0,2021-09-11_14h48.30.407,arrow_simon_vert,2021.1.2,Win32,59.46717412,,,,,,,,,,,,,,,,,,,,,,,,,,,,,,,,,,,,,,
,,,up,1,0.9697,0,0.285962501,#f3af84,"[""0"",""-0.25""]",up_orange.png,up,7,3,31,0,1,,,right,right_blue.png,up_orange.png,up,left,down,574cca765e5491000f3c89e0,2021-09-11_14h48.30.407,arrow_simon_vert,2021.1.2,Win32,59.46717412,,,,,,,,,,,,,,,,,,,,,,,,,,,,,,,,,,,,,,
,,,left,1,1.3458,0,0.796298694,#a3d0fb,"[""0.25"",""0""]",left_blue.png,left,8,0,32,3,1,,,left,left_blue.png,down_orange.png,down,right,up,574cca765e5491000f3c89e0,2021-09-11_14h48.30.407,arrow_simon_vert,2021.1.2,Win32,59.46717412,,,,,,,,,,,,,,,,,,,,,,,,,,,,,,,,,,,,,,
,,,down,1,1.1539,0,0.506212953,#f3af84,"[""0"",""0.25""]",down_orange.png,down,8,1,33,3,1,,,left,left_blue.png,down_orange.png,down,right,up,574cca765e5491000f3c89e0,2021-09-11_14h48.30.407,arrow_simon_vert,2021.1.2,Win32,59.46717412,,,,,,,,,,,,,,,,,,,,,,,,,,,,,,,,,,,,,,
,,,left,1,1.014,0,0.463888287,#a3d0fb,"[""-0.25"",""0""]",left_blue.png,left,8,2,34,2,1,,,left,left_blue.png,down_orange.png,down,left,down,574cca765e5491000f3c89e0,2021-09-11_14h48.30.407,arrow_simon_vert,2021.1.2,Win32,59.46717412,,,,,,,,,,,,,,,,,,,,,,,,,,,,,,,,,,,,,,
,,,down,1,1.0854,0,0.009878927,#f3af84,"[""0"",""0.25""]",down_orange.png,down,8,3,35,3,1,,,left,left_blue.png,down_orange.png,down,right,up,574cca765e5491000f3c89e0,2021-09-11_14h48.30.407,arrow_simon_vert,2021.1.2,Win32,59.46717412,,,,,,,,,,,,,,,,,,,,,,,,,,,,,,,,,,,,,,
,,,left,1,0.8144,0,0.124389541,#a3d0fb,"[""-0.25"",""0""]",left_blue.png,left,9,0,36,2,1,,,left,left_blue.png,down_orange.png,down,left,down,574cca765e5491000f3c89e0,2021-09-11_14h48.30.407,arrow_simon_vert,2021.1.2,Win32,59.46717412,,,,,,,,,,,,,,,,,,,,,,,,,,,,,,,,,,,,,,
,,,down,1,1.6819,0,0.850728359,#f3af84,"[""0"",""0.25""]",down_orange.png,down,9,1,37,3,1,,,left,left_blue.png,down_orange.png,down,right,up,574cca765e5491000f3c89e0,2021-09-11_14h48.30.407,arrow_simon_vert,2021.1.2,Win32,59.46717412,,,,,,,,,,,,,,,,,,,,,,,,,,,,,,,,,,,,,,
,,,right,1,1.4871,0,0.834427236,#a3d0fb,"[""-0.25"",""0""]",right_blue.png,right,9,2,38,0,1,,,right,right_blue.png,up_orange.png,up,left,down,574cca765e5491000f3c89e0,2021-09-11_14h48.30.407,arrow_simon_vert,2021.1.2,Win32,59.46717412,,,,,,,,,,,,,,,,,,,,,,,,,,,,,,,,,,,,,,
,,,down,1,1.4863,0,0.735139892,#f3af84,"[""0"",""0.25""]",down_orange.png,down,9,3,39,3,1,,,left,left_blue.png,down_orange.png,down,right,up,574cca765e5491000f3c89e0,2021-09-11_14h48.30.407,arrow_simon_vert,2021.1.2,Win32,59.46717412,,,,,,,,,,,,,,,,,,,,,,,,,,,,,,,,,,,,,,
,,,right,1,0.7607,0,0.190963262,#a3d0fb,"[""0.25"",""0""]",right_blue.png,right,10,0,40,1,1,,,right,right_blue.png,up_orange.png,up,right,up,574cca765e5491000f3c89e0,2021-09-11_14h48.30.407,arrow_simon_vert,2021.1.2,Win32,59.46717412,,,,,,,,,,,,,,,,,,,,,,,,,,,,,,,,,,,,,,
,,,down,1,1.0322,0,0.11693729,#f3af84,"[""0"",""-0.25""]",down_orange.png,down,10,1,41,2,1,,,left,left_blue.png,down_orange.png,down,left,down,574cca765e5491000f3c89e0,2021-09-11_14h48.30.407,arrow_simon_vert,2021.1.2,Win32,59.46717412,,,,,,,,,,,,,,,,,,,,,,,,,,,,,,,,,,,,,,
,,,right,1,2.7422,0,0.222831414,#a3d0fb,"[""-0.25"",""0""]",right_blue.png,right,10,2,42,0,1,,,right,right_blue.png,up_orange.png,up,left,down,574cca765e5491000f3c89e0,2021-09-11_14h48.30.407,arrow_simon_vert,2021.1.2,Win32,59.46717412,,,,,,,,,,,,,,,,,,,,,,,,,,,,,,,,,,,,,,
,,,down,1,0.652,0,0.048846517,#f3af84,"[""0"",""-0.25""]",down_orange.png,down,10,3,43,2,1,,,left,left_blue.png,down_orange.png,down,left,down,574cca765e5491000f3c89e0,2021-09-11_14h48.30.407,arrow_simon_vert,2021.1.2,Win32,59.46717412,,,,,,,,,,,,,,,,,,,,,,,,,,,,,,,,,,,,,,
,,,left,1,0.6629,0,0.080517359,#a3d0fb,"[""0.25"",""0""]",left_blue.png,left,11,0,44,3,1,,,left,left_blue.png,down_orange.png,down,right,up,574cca765e5491000f3c89e0,2021-09-11_14h48.30.407,arrow_simon_vert,2021.1.2,Win32,59.46717412,,,,,,,,,,,,,,,,,,,,,,,,,,,,,,,,,,,,,,
,,,down,1,1.2327,0,0.353089483,#f3af84,"[""0"",""0.25""]",down_orange.png,down,11,1,45,3,1,,,left,left_blue.png,down_orange.png,down,right,up,574cca765e5491000f3c89e0,2021-09-11_14h48.30.407,arrow_simon_vert,2021.1.2,Win32,59.46717412,,,,,,,,,,,,,,,,,,,,,,,,,,,,,,,,,,,,,,
,,,right,1,1.1735,0,0.509671092,#a3d0fb,"[""0.25"",""0""]",right_blue.png,right,11,2,46,1,1,,,right,right_blue.png,up_orange.png,up,right,up,574cca765e5491000f3c89e0,2021-09-11_14h48.30.407,arrow_simon_vert,2021.1.2,Win32,59.46717412,,,,,,,,,,,,,,,,,,,,,,,,,,,,,,,,,,,,,,
,,,up,1,2.2515,0,0.99791706,#f3af84,"[""0"",""-0.25""]",up_orange.png,up,11,3,47,0,1,,,right,right_blue.png,up_orange.png,up,left,down,574cca765e5491000f3c89e0,2021-09-11_14h48.30.407,arrow_simon_vert,2021.1.2,Win32,59.46717412,,,,,,,,,,,,,,,,,,,,,,,,,,,,,,,,,,,,,,
,,,left,1,1.0488,0,0.304350297,#a3d0fb,"[""-0.25"",""0""]",left_blue.png,left,12,0,48,2,1,,,left,left_blue.png,down_orange.png,down,left,down,574cca765e5491000f3c89e0,2021-09-11_14h48.30.407,arrow_simon_vert,2021.1.2,Win32,59.46717412,,,,,,,,,,,,,,,,,,,,,,,,,,,,,,,,,,,,,,
,,,up,1,1.5236,0,0.983377946,#f3af84,"[""0"",""0.25""]",up_orange.png,up,12,1,49,1,1,,,right,right_blue.png,up_orange.png,up,right,up,574cca765e5491000f3c89e0,2021-09-11_14h48.30.407,arrow_simon_vert,2021.1.2,Win32,59.46717412,,,,,,,,,,,,,,,,,,,,,,,,,,,,,,,,,,,,,,
,,,right,1,1.3531,0,0.863907889,#a3d0fb,"[""0.25"",""0""]",right_blue.png,right,12,2,50,1,1,,,right,right_blue.png,up_orange.png,up,right,up,574cca765e5491000f3c89e0,2021-09-11_14h48.30.407,arrow_simon_vert,2021.1.2,Win32,59.46717412,,,,,,,,,,,,,,,,,,,,,,,,,,,,,,,,,,,,,,
,,,up,1,1.1989,0,0.681971099,#f3af84,"[""0"",""0.25""]",up_orange.png,up,12,3,51,1,1,,,right,right_blue.png,up_orange.png,up,right,up,574cca765e5491000f3c89e0,2021-09-11_14h48.30.407,arrow_simon_vert,2021.1.2,Win32,59.46717412,,,,,,,,,,,,,,,,,,,,,,,,,,,,,,,,,,,,,,
,,,left,1,1.1002,0,0.623392804,#a3d0fb,"[""-0.25"",""0""]",left_blue.png,left,13,0,52,2,1,,,left,left_blue.png,down_orange.png,down,left,down,574cca765e5491000f3c89e0,2021-09-11_14h48.30.407,arrow_simon_vert,2021.1.2,Win32,59.46717412,,,,,,,,,,,,,,,,,,,,,,,,,,,,,,,,,,,,,,
,,,down,1,1.2492,0,0.254984472,#f3af84,"[""0"",""0.25""]",down_orange.png,down,13,1,53,3,1,,,left,left_blue.png,down_orange.png,down,right,up,574cca765e5491000f3c89e0,2021-09-11_14h48.30.407,arrow_simon_vert,2021.1.2,Win32,59.46717412,,,,,,,,,,,,,,,,,,,,,,,,,,,,,,,,,,,,,,
,,,right,1,0.6849,0,0.030866984,#a3d0fb,"[""-0.25"",""0""]",right_blue.png,right,13,2,54,0,1,,,right,right_blue.png,up_orange.png,up,left,down,574cca765e5491000f3c89e0,2021-09-11_14h48.30.407,arrow_simon_vert,2021.1.2,Win32,59.46717412,,,,,,,,,,,,,,,,,,,,,,,,,,,,,,,,,,,,,,
,,,up,1,1.9005,0,0.900088475,#f3af84,"[""0"",""-0.25""]",up_orange.png,up,13,3,55,0,1,,,right,right_blue.png,up_orange.png,up,left,down,574cca765e5491000f3c89e0,2021-09-11_14h48.30.407,arrow_simon_vert,2021.1.2,Win32,59.46717412,,,,,,,,,,,,,,,,,,,,,,,,,,,,,,,,,,,,,,
,,,left,1,2.4404,0,0.912989828,#a3d0fb,"[""-0.25"",""0""]",left_blue.png,left,14,0,56,2,1,,,left,left_blue.png,down_orange.png,down,left,down,574cca765e5491000f3c89e0,2021-09-11_14h48.30.407,arrow_simon_vert,2021.1.2,Win32,59.46717412,,,,,,,,,,,,,,,,,,,,,,,,,,,,,,,,,,,,,,
,,,down,1,1.4699,0,0.773113519,#f3af84,"[""0"",""-0.25""]",down_orange.png,down,14,1,57,2,1,,,left,left_blue.png,down_orange.png,down,left,down,574cca765e5491000f3c89e0,2021-09-11_14h48.30.407,arrow_simon_vert,2021.1.2,Win32,59.46717412,,,,,,,,,,,,,,,,,,,,,,,,,,,,,,,,,,,,,,
,,,left,1,1.633,0,0.93441871,#a3d0fb,"[""-0.25"",""0""]",left_blue.png,left,14,2,58,2,1,,,left,left_blue.png,down_orange.png,down,left,down,574cca765e5491000f3c89e0,2021-09-11_14h48.30.407,arrow_simon_vert,2021.1.2,Win32,59.46717412,,,,,,,,,,,,,,,,,,,,,,,,,,,,,,,,,,,,,,
,,,up,1,2.4429,0,0.7286455,#f3af84,"[""0"",""-0.25""]",up_orange.png,up,14,3,59,0,1,,,right,right_blue.png,up_orange.png,up,left,down,574cca765e5491000f3c89e0,2021-09-11_14h48.30.407,arrow_simon_vert,2021.1.2,Win32,59.46717412,,,,,,,,,,,,,,,,,,,,,,,,,,,,,,,,,,,,,,
,,,,,,,,,,,,,,,,,,,,,,,,,574cca765e5491000f3c89e0,2021-09-11_14h48.30.407,arrow_simon_vert,2021.1.2,Win32,59.46717412,space,6.7429,1,0,1,0,1,,,,,,,,,,,,,,,,,,,,,,,,,,,,,,,
,,,,,,,,,,,,,,,,,,,,,,,,,574cca765e5491000f3c89e0,2021-09-11_14h48.30.407,arrow_simon_vert,2021.1.2,Win32,59.46717412,,,,,,,,space,0,155.2385,down,5.0199,0,0,0,0,1,,,,,,,,,,,,,,,,,,,,,
,,,,,,,,,,,,,,,,,,,,,,,,,574cca765e5491000f3c89e0,2021-09-11_14h48.30.407,arrow_simon_vert,2021.1.2,Win32,59.46717412,,,,,,,,,,,up,3.4472,1,0,1,0,1,,,,,,,,,,,,,,,,,,,,,
,,,,,,,,,,,,,,,,,,,,,,,,,574cca765e5491000f3c89e0,2021-09-11_14h48.30.407,arrow_simon_vert,2021.1.2,Win32,59.46717412,,,,,,,,,,,up,3.1574,2,0,2,0,1,,,,,,,,,,,,,,,,,,,,,
,,,,,,,,,,,,,,,,,,,,,,,,,574cca765e5491000f3c89e0,2021-09-11_14h48.30.407,arrow_simon_vert,2021.1.2,Win32,59.46717412,,,,,,,,,,,right,3.1099,3,0,3,0,1,,,,,,,,,,,,,,,,,,,,,
,,,,,,,,,,,,,,,,,,,,,,,,,574cca765e5491000f3c89e0,2021-09-11_14h48.30.407,arrow_simon_vert,2021.1.2,Win32,59.46717412,,,,,,,,,,,up,3.0064,4,0,4,0,1,,,,,,,,,,,,,,,,,,,,,
,,,,,,,,,,,,,,,,,,,,,,,,,574cca765e5491000f3c89e0,2021-09-11_14h48.30.407,arrow_simon_vert,2021.1.2,Win32,59.46717412,,,,,,,,,,,right,2.9072,5,0,5,0,1,,,,,,,,,,,,,,,,,,,,,
,,,,,,,,,,,,,,,,,,,,,,,,,574cca765e5491000f3c89e0,2021-09-11_14h48.30.407,arrow_simon_vert,2021.1.2,Win32,59.46717412,,,,,,,,,,,down,2.957,6,0,6,0,1,,,,,,,,,,,,,,,,,,,,,
,,,,,,,,,,,,,,,,,,,,,,,,,574cca765e5491000f3c89e0,2021-09-11_14h48.30.407,arrow_simon_vert,2021.1.2,Win32,59.46717412,,,,,,,,,,,left,2.8977,7,0,7,0,1,,,,,,,,,,,,,,,,,,,,,
,,,,,,,,,,,,,,,,,,,,,,,,,574cca765e5491000f3c89e0,2021-09-11_14h48.30.407,arrow_simon_vert,2021.1.2,Win32,59.46717412,,,,,,,,,,,up,2.9474,8,0,8,0,1,,,,,,,,,,,,,,,,,,,,,
,,,,,,,,,,,,,,,,,,,,,,,,,574cca765e5491000f3c89e0,2021-09-11_14h48.30.407,arrow_simon_vert,2021.1.2,Win32,59.46717412,,,,,,,,,,,up,2.9721,9,0,9,0,1,,,,,,,,,,,,,,,,,,,,,
,,,,,,,,,,,,,,,,,,,,,,,,,574cca765e5491000f3c89e0,2021-09-11_14h48.30.407,arrow_simon_vert,2021.1.2,Win32,59.46717412,,,,,,,,,,,up,2.7969,10,0,10,0,1,,,,,,,,,,,,,,,,,,,,,
,,,,,,,,,,,,,,,,,,,,,,,,,574cca765e5491000f3c89e0,2021-09-11_14h48.30.407,arrow_simon_vert,2021.1.2,Win32,59.46717412,,,,,,,,,,,left,2.9126,11,0,11,0,1,,,,,,,,,,,,,,,,,,,,,
,,,,,,,,,,,,,,,,,,,,,,,,,574cca765e5491000f3c89e0,2021-09-11_14h48.30.407,arrow_simon_vert,2021.1.2,Win32,59.46717412,,,,,,,,,,,left,2.7304,12,0,12,0,1,,,,,,,,,,,,,,,,,,,,,
,,,,,,,,,,,,,,,,,,,,,,,,,574cca765e5491000f3c89e0,2021-09-11_14h48.30.407,arrow_simon_vert,2021.1.2,Win32,59.46717412,,,,,,,,,,,up,2.5114,13,0,13,0,1,,,,,,,,,,,,,,,,,,,,,
,,,,,,,,,,,,,,,,,,,,,,,,,574cca765e5491000f3c89e0,2021-09-11_14h48.30.407,arrow_simon_vert,2021.1.2,Win32,59.46717412,,,,,,,,,,,down,2.7165,14,0,14,0,1,,,,,,,,,,,,,,,,,,,,,
,,,,,,,,,,,,,,,,,,,,,,,,,574cca765e5491000f3c89e0,2021-09-11_14h48.30.407,arrow_simon_vert,2021.1.2,Win32,59.46717412,,,,,,,,,,,right,2.6491,15,0,15,0,1,,,,,,,,,,,,,,,,,,,,,
,,,,,,,,,,,,,,,,,,,,,,,,,574cca765e5491000f3c89e0,2021-09-11_14h48.30.407,arrow_simon_vert,2021.1.2,Win32,59.46717412,,,,,,,,,,,up,2.8226,16,0,16,0,1,,,,,,,,,,,,,,,,,,,,,
,,,,,,,,,,,,,,,,,,,,,,,,,574cca765e5491000f3c89e0,2021-09-11_14h48.30.407,arrow_simon_vert,2021.1.2,Win32,59.46717412,,,,,,,,,,,right,2.4671,17,0,17,0,1,,,,,,,,,,,,,,,,,,,,,
,,,,,,,,,,,,,,,,,,,,,,,,,574cca765e5491000f3c89e0,2021-09-11_14h48.30.407,arrow_simon_vert,2021.1.2,Win32,59.46717412,,,,,,,,,,,left,2.8991,18,0,18,0,1,,,,,,,,,,,,,,,,,,,,,
,,,,,,,,,,,,,,,,,,,,,,,,,574cca765e5491000f3c89e0,2021-09-11_14h48.30.407,arrow_simon_vert,2021.1.2,Win32,59.46717412,,,,,,,,,,,up,2.8684,19,0,19,0,1,,,,,,,,,,,,,,,,,,,,,
,,,,,,,,,,,,,,,,,,,,,,,,,574cca765e5491000f3c89e0,2021-09-11_14h48.30.407,arrow_simon_vert,2021.1.2,Win32,59.46717412,,,,,,,,,,,down,2.3396,20,0,20,0,1,,,,,,,,,,,,,,,,,,,,,
,,,,,,,,,,,,,,,,,,,,,,,,,574cca765e5491000f3c89e0,2021-09-11_14h48.30.407,arrow_simon_vert,2021.1.2,Win32,59.46717412,,,,,,,,,,,right,2.4882,21,0,21,0,1,,,,,,,,,,,,,,,,,,,,,
,,,,,,,,,,,,,,,,,,,,,,,,,574cca765e5491000f3c89e0,2021-09-11_14h48.30.407,arrow_simon_vert,2021.1.2,Win32,59.46717412,,,,,,,,,,,right,2.4041,22,0,22,0,1,,,,,,,,,,,,,,,,,,,,,
,,,,,,,,,,,,,,,,,,,,,,,,,574cca765e5491000f3c89e0,2021-09-11_14h48.30.407,arrow_simon_vert,2021.1.2,Win32,59.46717412,,,,,,,,,,,up,2.6355,23,0,23,0,1,,,,,,,,,,,,,,,,,,,,,
,,,,,,,,,,,,,,,,,,,,,,,,,574cca765e5491000f3c89e0,2021-09-11_14h48.30.407,arrow_simon_vert,2021.1.2,Win32,59.46717412,,,,,,,,,,,left,2.5303,24,0,24,0,1,,,,,,,,,,,,,,,,,,,,,
,,,,,,,,,,,,,,,,,,,,,,,,,574cca765e5491000f3c89e0,2021-09-11_14h48.30.407,arrow_simon_vert,2021.1.2,Win32,59.46717412,,,,,,,,,,,up,2.6466,25,0,25,0,1,,,,,,,,,,,,,,,,,,,,,
,,,,,,,,,,,,,,,,,,,,,,,,,574cca765e5491000f3c89e0,2021-09-11_14h48.30.407,arrow_simon_vert,2021.1.2,Win32,59.46717412,,,,,,,,,,,left,2.4847,26,0,26,0,1,,,,,,,,,,,,,,,,,,,,,
,,,,,,,,,,,,,,,,,,,,,,,,,574cca765e5491000f3c89e0,2021-09-11_14h48.30.407,arrow_simon_vert,2021.1.2,Win32,59.46717412,,,,,,,,,,,up,2.6146,27,0,27,0,1,,,,,,,,,,,,,,,,,,,,,
,,,,,,,,,,,,,,,,,,,,,,,,,574cca765e5491000f3c89e0,2021-09-11_14h48.30.407,arrow_simon_vert,2021.1.2,Win32,59.46717412,,,,,,,,,,,left,2.4645,28,0,28,0,1,,,,,,,,,,,,,,,,,,,,,
,,,,,,,,,,,,,,,,,,,,,,,,,574cca765e5491000f3c89e0,2021-09-11_14h48.30.407,arrow_simon_vert,2021.1.2,Win32,59.46717412,,,,,,,,,,,up,2.898,29,0,29,0,1,,,,,,,,,,,,,,,,,,,,,
,,,,,,,,,,,,,,,,,,,,,,,,,574cca765e5491000f3c89e0,2021-09-11_14h48.30.407,arrow_simon_vert,2021.1.2,Win32,59.46717412,,,,,,,,,,,left,2.4213,30,0,30,0,1,,,,,,,,,,,,,,,,,,,,,
,,,,,,,,,,,,,,,,,,,,,,,,,574cca765e5491000f3c89e0,2021-09-11_14h48.30.407,arrow_simon_vert,2021.1.2,Win32,59.46717412,,,,,,,,,,,up,2.7958,31,0,31,0,1,,,,,,,,,,,,,,,,,,,,,
,,,,,,,,,,,,,,,,,,,,,,,,,574cca765e5491000f3c89e0,2021-09-11_14h48.30.407,arrow_simon_vert,2021.1.2,Win32,59.46717412,,,,,,,,,,,left,2.3325,32,0,32,0,1,,,,,,,,,,,,,,,,,,,,,
,,,,,,,,,,,,,,,,,,,,,,,,,574cca765e5491000f3c89e0,2021-09-11_14h48.30.407,arrow_simon_vert,2021.1.2,Win32,59.46717412,,,,,,,,,,,up,2.2135,33,0,33,0,1,,,,,,,,,,,,,,,,,,,,,
,,,,,,,,,,,,,,,,,,,,,,,,,574cca765e5491000f3c89e0,2021-09-11_14h48.30.407,arrow_simon_vert,2021.1.2,Win32,59.46717412,,,,,,,,,,,left,2.4921,34,0,34,0,1,,,,,,,,,,,,,,,,,,,,,
,,,,,,,,,,,,,,,,,,,,,,,,,574cca765e5491000f3c89e0,2021-09-11_14h48.30.407,arrow_simon_vert,2021.1.2,Win32,59.46717412,,,,,,,,,,,up,2.7906,35,0,35,0,1,,,,,,,,,,,,,,,,,,,,,
,,,,,,,,,,,,,,,,,,,,,,,,,574cca765e5491000f3c89e0,2021-09-11_14h48.30.407,arrow_simon_vert,2021.1.2,Win32,59.46717412,,,,,,,,,,,left,2.4658,36,0,36,0,1,,,,,,,,,,,,,,,,,,,,,
,,,,,,,,,,,,,,,,,,,,,,,,,574cca765e5491000f3c89e0,2021-09-11_14h48.30.407,arrow_simon_vert,2021.1.2,Win32,59.46717412,,,,,,,,,,,up,2.4992,37,0,37,0,1,,,,,,,,,,,,,,,,,,,,,
,,,,,,,,,,,,,,,,,,,,,,,,,574cca765e5491000f3c89e0,2021-09-11_14h48.30.407,arrow_simon_vert,2021.1.2,Win32,59.46717412,,,,,,,,,,,left,2.5884,38,0,38,0,1,,,,,,,,,,,,,,,,,,,,,
,,,,,,,,,,,,,,,,,,,,,,,,,574cca765e5491000f3c89e0,2021-09-11_14h48.30.407,arrow_simon_vert,2021.1.2,Win32,59.46717412,,,,,,,,,,,up,2.2623,39,0,39,0,1,,,,,,,,,,,,,,,,,,,,,
,,,,,,,,,,,,,,,,,,,,,,,,,574cca765e5491000f3c89e0,2021-09-11_14h48.30.407,arrow_simon_vert,2021.1.2,Win32,59.46717412,,,,,,,,,,,left,2.7874,40,0,40,0,1,,,,,,,,,,,,,,,,,,,,,
,,,,,,,,,,,,,,,,,,,,,,,,,574cca765e5491000f3c89e0,2021-09-11_14h48.30.407,arrow_simon_vert,2021.1.2,Win32,59.46717412,,,,,,,,,,,up,2.5403,41,0,41,0,1,,,,,,,,,,,,,,,,,,,,,
,,,,,,,,,,,,,,,,,,,,,,,,,574cca765e5491000f3c89e0,2021-09-11_14h48.30.407,arrow_simon_vert,2021.1.2,Win32,59.46717412,,,,,,,,,,,left,2.4411,42,0,42,0,1,,,,,,,,,,,,,,,,,,,,,
,,,,,,,,,,,,,,,,,,,,,,,,,574cca765e5491000f3c89e0,2021-09-11_14h48.30.407,arrow_simon_vert,2021.1.2,Win32,59.46717412,,,,,,,,,,,up,2.503,43,0,43,0,1,,,,,,,,,,,,,,,,,,,,,
,,,,,,,,,,,,,,,,,,,,,,,,,574cca765e5491000f3c89e0,2021-09-11_14h48.30.407,arrow_simon_vert,2021.1.2,Win32,59.46717412,,,,,,,,,,,left,2.3547,44,0,44,0,1,,,,,,,,,,,,,,,,,,,,,
,,,,,,,,,,,,,,,,,,,,,,,,,574cca765e5491000f3c89e0,2021-09-11_14h48.30.407,arrow_simon_vert,2021.1.2,Win32,59.46717412,,,,,,,,,,,up,2.6287,45,0,45,0,1,,,,,,,,,,,,,,,,,,,,,
,,,,,,,,,,,,,,,,,,,,,,,,,574cca765e5491000f3c89e0,2021-09-11_14h48.30.407,arrow_simon_vert,2021.1.2,Win32,59.46717412,,,,,,,,,,,left,2.337,46,0,46,0,1,,,,,,,,,,,,,,,,,,,,,
,,,,,,,,,,,,,,,,,,,,,,,,,574cca765e5491000f3c89e0,2021-09-11_14h48.30.407,arrow_simon_vert,2021.1.2,Win32,59.46717412,,,,,,,,,,,up,2.4326,47,0,47,0,1,,,,,,,,,,,,,,,,,,,,,
,,,,,,,,,,,,,,,,,,,,,,,,,574cca765e5491000f3c89e0,2021-09-11_14h48.30.407,arrow_simon_vert,2021.1.2,Win32,59.46717412,,,,,,,,,,,left,2.3856,48,0,48,0,1,,,,,,,,,,,,,,,,,,,,,
,,,,,,,,,,,,,,,,,,,,,,,,,574cca765e5491000f3c89e0,2021-09-11_14h48.30.407,arrow_simon_vert,2021.1.2,Win32,59.46717412,,,,,,,,,,,up,2.4257,49,0,49,0,1,,,,,,,,,,,,,,,,,,,,,
,,,,,,,,,,,,,,,,,,,,,,,,,574cca765e5491000f3c89e0,2021-09-11_14h48.30.407,arrow_simon_vert,2021.1.2,Win32,59.46717412,,,,,,,,,,,left,2.4493,50,0,50,0,1,,,,,,,,,,,,,,,,,,,,,
,,,,,,,,,,,,,,,,,,,,,,,,,574cca765e5491000f3c89e0,2021-09-11_14h48.30.407,arrow_simon_vert,2021.1.2,Win32,59.46717412,,,,,,,,,,,up,2.491,51,0,51,0,1,,,,,,,,,,,,,,,,,,,,,
,,,,,,,,,,,,,,,,,,,,,,,,,574cca765e5491000f3c89e0,2021-09-11_14h48.30.407,arrow_simon_vert,2021.1.2,Win32,59.46717412,,,,,,,,,,,left,2.4355,52,0,52,0,1,,,,,,,,,,,,,,,,,,,,,
,,,,,,,,,,,,,,,,,,,,,,,,,574cca765e5491000f3c89e0,2021-09-11_14h48.30.407,arrow_simon_vert,2021.1.2,Win32,59.46717412,,,,,,,,,,,up,2.6919,53,0,53,0,1,,,,,,,,,,,,,,,,,,,,,
,,,,,,,,,,,,,,,,,,,,,,,,,574cca765e5491000f3c89e0,2021-09-11_14h48.30.407,arrow_simon_vert,2021.1.2,Win32,59.46717412,,,,,,,,,,,left,2.5145,54,0,54,0,1,,,,,,,,,,,,,,,,,,,,,
,,,,,,,,,,,,,,,,,,,,,,,,,574cca765e5491000f3c89e0,2021-09-11_14h48.30.407,arrow_simon_vert,2021.1.2,Win32,59.46717412,,,,,,,,,,,up,2.605,55,0,55,0,1,,,,,,,,,,,,,,,,,,,,,
,,,,,,,,,,,,,,,,,,,,,,,,,574cca765e5491000f3c89e0,2021-09-11_14h48.30.407,arrow_simon_vert,2021.1.2,Win32,59.46717412,,,,,,,,,,,left,2.7502,56,0,56,0,1,,,,,,,,,,,,,,,,,,,,,
,,,,,,,,,,,,,,,,,,,,,,,,,574cca765e5491000f3c89e0,2021-09-11_14h48.30.407,arrow_simon_vert,2021.1.2,Win32,59.46717412,,,,,,,,,,,up,2.8243,57,0,57,0,1,,,,,,,,,,,,,,,,,,,,,
,,,,,,,,,,,,,,,,,,,,,,,,,574cca765e5491000f3c89e0,2021-09-11_14h48.30.407,arrow_simon_vert,2021.1.2,Win32,59.46717412,,,,,,,,,,,left,2.4186,58,0,58,0,1,,,,,,,,,,,,,,,,,,,,,
,,,,,,,,,,,,,,,,,,,,,,,,,574cca765e5491000f3c89e0,2021-09-11_14h48.30.407,arrow_simon_vert,2021.1.2,Win32,59.46717412,,,,,,,,,,,up,2.7366,59,0,59,0,1,,,,,,,,,,,,,,,,,,,,,
,,,,,,0,2.062205484,#a3d0fb,"[""0.25"",""0""]",left_blue.png,left,,,,,,,,left,left_blue.png,down_orange.png,down,right,up,574cca765e5491000f3c89e0,2021-09-11_14h48.30.407,arrow_simon_vert,2021.1.2,Win32,59.46717412,,,,,,,,,,,,,,,,,,space,0,75.0935,left,1,1.67,1,TRUE,FALSE,0,0,0,3,1,,,,,,,
,,,,,,0,1.85764586,#f3af84,"[""0"",""0.25""]",down_orange.png,down,,,,,,,,left,left_blue.png,down_orange.png,down,right,up,574cca765e5491000f3c89e0,2021-09-11_14h48.30.407,arrow_simon_vert,2021.1.2,Win32,59.46717412,,,,,,,,,,,,,,,,,,,,,up,0,1.3863,2,FALSE,TRUE,0,1,1,3,1,,,,,,,
,,,,,,0,2.466233681,#a3d0fb,"[""0.25"",""0""]",right_blue.png,right,,,,,,,,right,right_blue.png,up_orange.png,up,right,up,574cca765e5491000f3c89e0,2021-09-11_14h48.30.407,arrow_simon_vert,2021.1.2,Win32,59.46717412,,,,,,,,,,,,,,,,,,,,,right,1,4.1196,3,TRUE,FALSE,0,2,2,1,1,,,,,,,
,,,,,,0,1.749053192,#f3af84,"[""0"",""-0.25""]",down_orange.png,down,,,,,,,,left,left_blue.png,down_orange.png,down,left,down,574cca765e5491000f3c89e0,2021-09-11_14h48.30.407,arrow_simon_vert,2021.1.2,Win32,59.46717412,,,,,,,,,,,,,,,,,,,,,down,1,1.1692,4,FALSE,TRUE,0,3,3,2,1,,,,,,,
,,,,,,0,1.794009067,#a3d0fb,"[""-0.25"",""0""]",right_blue.png,right,,,,,,,,right,right_blue.png,up_orange.png,up,left,down,574cca765e5491000f3c89e0,2021-09-11_14h48.30.407,arrow_simon_vert,2021.1.2,Win32,59.46717412,,,,,,,,,,,,,,,,,,,,,right,1,1.419,5,FALSE,FALSE,1,0,4,0,1,,,,,,,
,,,,,,0,1.744599293,#f3af84,"[""0"",""-0.25""]",up_orange.png,up,,,,,,,,right,right_blue.png,up_orange.png,up,left,down,574cca765e5491000f3c89e0,2021-09-11_14h48.30.407,arrow_simon_vert,2021.1.2,Win32,59.46717412,,,,,,,,,,,,,,,,,,,,,up,1,1.5026,6,FALSE,FALSE,1,1,5,0,1,,,,,,,
,,,,,,0,2.485751779,#a3d0fb,"[""-0.25"",""0""]",right_blue.png,right,,,,,,,,right,right_blue.png,up_orange.png,up,left,down,574cca765e5491000f3c89e0,2021-09-11_14h48.30.407,arrow_simon_vert,2021.1.2,Win32,59.46717412,,,,,,,,,,,,,,,,,,,,,right,1,2.101,7,TRUE,FALSE,1,2,6,0,1,,,,,,,
,,,,,,0,1.513141057,#f3af84,"[""0"",""-0.25""]",down_orange.png,down,,,,,,,,left,left_blue.png,down_orange.png,down,left,down,574cca765e5491000f3c89e0,2021-09-11_14h48.30.407,arrow_simon_vert,2021.1.2,Win32,59.46717412,,,,,,,,,,,,,,,,,,,,,down,1,1.2239,8,FALSE,TRUE,1,3,7,2,1,,,,,,,
,,,,,,0,2.364134307,#a3d0fb,"[""-0.25"",""0""]",left_blue.png,left,,,,,,,,left,left_blue.png,down_orange.png,down,left,down,574cca765e5491000f3c89e0,2021-09-11_14h48.30.407,arrow_simon_vert,2021.1.2,Win32,59.46717412,,,,,,,,,,,,,,,,,,,,,left,1,1.8799,9,TRUE,FALSE,2,0,8,2,1,,,,,,,
,,,,,,0,2.36418534,#f3af84,"[""0"",""0.25""]",down_orange.png,down,,,,,,,,left,left_blue.png,down_orange.png,down,right,up,574cca765e5491000f3c89e0,2021-09-11_14h48.30.407,arrow_simon_vert,2021.1.2,Win32,59.46717412,,,,,,,,,,,,,,,,,,,,,down,1,2.0016,10,TRUE,FALSE,2,1,9,3,1,,,,,,,
,,,,,,0,1.956625101,#a3d0fb,"[""0.25"",""0""]",left_blue.png,left,,,,,,,,left,left_blue.png,down_orange.png,down,right,up,574cca765e5491000f3c89e0,2021-09-11_14h48.30.407,arrow_simon_vert,2021.1.2,Win32,59.46717412,,,,,,,,,,,,,,,,,,,,,left,1,1.6525,11,TRUE,FALSE,2,2,10,3,1,,,,,,,
,,,,,,0,2.092159454,#f3af84,"[""0"",""0.25""]",down_orange.png,down,,,,,,,,left,left_blue.png,down_orange.png,down,right,up,574cca765e5491000f3c89e0,2021-09-11_14h48.30.407,arrow_simon_vert,2021.1.2,Win32,59.46717412,,,,,,,,,,,,,,,,,,,,,down,1,1.8034,12,TRUE,FALSE,2,3,11,3,1,,,,,,,
,,,,,,0,1.576155028,#a3d0fb,"[""-0.25"",""0""]",right_blue.png,right,,,,,,,,right,right_blue.png,up_orange.png,up,left,down,574cca765e5491000f3c89e0,2021-09-11_14h48.30.407,arrow_simon_vert,2021.1.2,Win32,59.46717412,,,,,,,,,,,,,,,,,,,,,right,1,1.2263,13,FALSE,TRUE,3,0,12,0,1,,,,,,,
,,,,,,0,2.287770694,#f3af84,"[""0"",""0.25""]",up_orange.png,up,,,,,,,,right,right_blue.png,up_orange.png,up,right,up,574cca765e5491000f3c89e0,2021-09-11_14h48.30.407,arrow_simon_vert,2021.1.2,Win32,59.46717412,,,,,,,,,,,,,,,,,,,,,up,1,2.0063,14,TRUE,FALSE,3,1,13,1,1,,,,,,,
,,,,,,0,1.978803276,#a3d0fb,"[""0.25"",""0""]",right_blue.png,right,,,,,,,,right,right_blue.png,up_orange.png,up,right,up,574cca765e5491000f3c89e0,2021-09-11_14h48.30.407,arrow_simon_vert,2021.1.2,Win32,59.46717412,,,,,,,,,,,,,,,,,,,,,right,1,1.455,15,FALSE,FALSE,3,2,14,1,1,,,,,,,
,,,,,,0,2.134771809,#f3af84,"[""0"",""-0.25""]",up_orange.png,up,,,,,,,,right,right_blue.png,up_orange.png,up,left,down,574cca765e5491000f3c89e0,2021-09-11_14h48.30.407,arrow_simon_vert,2021.1.2,Win32,59.46717412,,,,,,,,,,,,,,,,,,,,,up,1,1.8517,16,TRUE,FALSE,3,3,15,0,1,,,,,,,
,,,,,,0,1.62835257,#a3d0fb,"[""-0.25"",""0""]",right_blue.png,right,,,,,,,,right,right_blue.png,up_orange.png,up,left,down,574cca765e5491000f3c89e0,2021-09-11_14h48.30.407,arrow_simon_vert,2021.1.2,Win32,59.46717412,,,,,,,,,,,,,,,,,,,,,right,1,2.0344,17,TRUE,FALSE,4,0,16,0,1,,,,,,,
,,,,,,0,2.401659605,#f3af84,"[""0"",""-0.25""]",down_orange.png,down,,,,,,,,left,left_blue.png,down_orange.png,down,left,down,574cca765e5491000f3c89e0,2021-09-11_14h48.30.407,arrow_simon_vert,2021.1.2,Win32,59.46717412,,,,,,,,,,,,,,,,,,,,,down,1,2.2362,18,TRUE,FALSE,4,1,17,2,1,,,,,,,
,,,,,,0,1.518937875,#a3d0fb,"[""-0.25"",""0""]",left_blue.png,left,,,,,,,,left,left_blue.png,down_orange.png,down,left,down,574cca765e5491000f3c89e0,2021-09-11_14h48.30.407,arrow_simon_vert,2021.1.2,Win32,59.46717412,,,,,,,,,,,,,,,,,,,,,left,1,1.4352,19,FALSE,FALSE,4,2,18,2,1,,,,,,,
,,,,,,0,2.282477543,#f3af84,"[""0"",""0.25""]",up_orange.png,up,,,,,,,,right,right_blue.png,up_orange.png,up,right,up,574cca765e5491000f3c89e0,2021-09-11_14h48.30.407,arrow_simon_vert,2021.1.2,Win32,59.46717412,,,,,,,,,,,,,,,,,,,,,up,1,2.0055,20,TRUE,FALSE,4,3,19,1,1,,,,,,,
,,,,,,0,2.24032952,#a3d0fb,"[""0.25"",""0""]",left_blue.png,left,,,,,,,,left,left_blue.png,down_orange.png,down,right,up,574cca765e5491000f3c89e0,2021-09-11_14h48.30.407,arrow_simon_vert,2021.1.2,Win32,59.46717412,,,,,,,,,,,,,,,,,,,,,left,1,1.8996,21,TRUE,FALSE,5,0,20,3,1,,,,,,,
,,,,,,0,2.199278931,#f3af84,"[""0"",""0.25""]",down_orange.png,down,,,,,,,,left,left_blue.png,down_orange.png,down,right,up,574cca765e5491000f3c89e0,2021-09-11_14h48.30.407,arrow_simon_vert,2021.1.2,Win32,59.46717412,,,,,,,,,,,,,,,,,,,,,down,1,1.842,22,TRUE,FALSE,5,1,21,3,1,,,,,,,
,,,,,,0,1.892075773,#a3d0fb,"[""-0.25"",""0""]",left_blue.png,left,,,,,,,,left,left_blue.png,down_orange.png,down,left,down,574cca765e5491000f3c89e0,2021-09-11_14h48.30.407,arrow_simon_vert,2021.1.2,Win32,59.46717412,,,,,,,,,,,,,,,,,,,,,left,1,1.401,23,FALSE,FALSE,5,2,22,2,1,,,,,,,
,,,,,,0,1.851291319,#f3af84,"[""0"",""-0.25""]",down_orange.png,down,,,,,,,,left,left_blue.png,down_orange.png,down,left,down,574cca765e5491000f3c89e0,2021-09-11_14h48.30.407,arrow_simon_vert,2021.1.2,Win32,59.46717412,,,,,,,,,,,,,,,,,,,,,down,1,1.5761,24,FALSE,FALSE,5,3,23,2,1,,,,,,,
,,,,,,0,1.782657725,#a3d0fb,"[""0.25"",""0""]",left_blue.png,left,,,,,,,,left,left_blue.png,down_orange.png,down,right,up,574cca765e5491000f3c89e0,2021-09-11_14h48.30.407,arrow_simon_vert,2021.1.2,Win32,59.46717412,,,,,,,,,,,,,,,,,,,,,left,1,1.8843,25,TRUE,FALSE,6,0,24,3,1,,,,,,,
,,,,,,0,2.00332939,#f3af84,"[""0"",""-0.25""]",down_orange.png,down,,,,,,,,left,left_blue.png,down_orange.png,down,left,down,574cca765e5491000f3c89e0,2021-09-11_14h48.30.407,arrow_simon_vert,2021.1.2,Win32,59.46717412,,,,,,,,,,,,,,,,,,,,,down,1,1.8015,26,TRUE,FALSE,6,1,25,2,1,,,,,,,
,,,,,,0,1.704093675,#a3d0fb,"[""-0.25"",""0""]",left_blue.png,left,,,,,,,,left,left_blue.png,down_orange.png,down,left,down,574cca765e5491000f3c89e0,2021-09-11_14h48.30.407,arrow_simon_vert,2021.1.2,Win32,59.46717412,,,,,,,,,,,,,,,,,,,,,left,1,1.2911,27,FALSE,TRUE,6,2,26,2,1,,,,,,,
,,,,,,0,1.526151611,#f3af84,"[""0"",""0.25""]",up_orange.png,up,,,,,,,,right,right_blue.png,up_orange.png,up,right,up,574cca765e5491000f3c89e0,2021-09-11_14h48.30.407,arrow_simon_vert,2021.1.2,Win32,59.46717412,,,,,,,,,,,,,,,,,,,,,up,1,1.8699,28,TRUE,FALSE,6,3,27,1,1,,,,,,,
,,,,,,0,2.092747647,#a3d0fb,"[""-0.25"",""0""]",left_blue.png,left,,,,,,,,left,left_blue.png,down_orange.png,down,left,down,574cca765e5491000f3c89e0,2021-09-11_14h48.30.407,arrow_simon_vert,2021.1.2,Win32,59.46717412,,,,,,,,,,,,,,,,,,,,,left,1,1.5677,29,FALSE,FALSE,7,0,28,2,1,,,,,,,
,,,,,,0,2.217970498,#f3af84,"[""0"",""0.25""]",up_orange.png,up,,,,,,,,right,right_blue.png,up_orange.png,up,right,up,574cca765e5491000f3c89e0,2021-09-11_14h48.30.407,arrow_simon_vert,2021.1.2,Win32,59.46717412,,,,,,,,,,,,,,,,,,,,,up,1,1.8574,30,TRUE,FALSE,7,1,29,1,1,,,,,,,
,,,,,,0,2.28274237,#a3d0fb,"[""-0.25"",""0""]",right_blue.png,right,,,,,,,,right,right_blue.png,up_orange.png,up,left,down,574cca765e5491000f3c89e0,2021-09-11_14h48.30.407,arrow_simon_vert,2021.1.2,Win32,59.46717412,,,,,,,,,,,,,,,,,,,,,right,1,1.7839,31,TRUE,FALSE,7,2,30,0,1,,,,,,,
,,,,,,0,2.341944639,#f3af84,"[""0"",""-0.25""]",down_orange.png,down,,,,,,,,left,left_blue.png,down_orange.png,down,left,down,574cca765e5491000f3c89e0,2021-09-11_14h48.30.407,arrow_simon_vert,2021.1.2,Win32,59.46717412,,,,,,,,,,,,,,,,,,,,,down,1,2.052,32,TRUE,FALSE,7,3,31,2,1,,,,,,,
,,,,,,0,2.483448933,#a3d0fb,"[""-0.25"",""0""]",right_blue.png,right,,,,,,,,right,right_blue.png,up_orange.png,up,left,down,574cca765e5491000f3c89e0,2021-09-11_14h48.30.407,arrow_simon_vert,2021.1.2,Win32,59.46717412,,,,,,,,,,,,,,,,,,,,,right,1,2.0506,33,TRUE,FALSE,8,0,32,0,1,,,,,,,
,,,,,,0,1.535011052,#f3af84,"[""0"",""-0.25""]",down_orange.png,down,,,,,,,,left,left_blue.png,down_orange.png,down,left,down,574cca765e5491000f3c89e0,2021-09-11_14h48.30.407,arrow_simon_vert,2021.1.2,Win32,59.46717412,,,,,,,,,,,,,,,,,,,,,down,1,1.1222,34,FALSE,TRUE,8,1,33,2,1,,,,,,,
,,,,,,0,2.124420199,#a3d0fb,"[""0.25"",""0""]",right_blue.png,right,,,,,,,,right,right_blue.png,up_orange.png,up,right,up,574cca765e5491000f3c89e0,2021-09-11_14h48.30.407,arrow_simon_vert,2021.1.2,Win32,59.46717412,,,,,,,,,,,,,,,,,,,,,right,1,1.7353,35,TRUE,FALSE,8,2,34,1,1,,,,,,,
,,,,,,0,1.68153522,#f3af84,"[""0"",""-0.25""]",up_orange.png,up,,,,,,,,right,right_blue.png,up_orange.png,up,left,down,574cca765e5491000f3c89e0,2021-09-11_14h48.30.407,arrow_simon_vert,2021.1.2,Win32,59.46717412,,,,,,,,,,,,,,,,,,,,,up,1,1.3535,36,FALSE,TRUE,8,3,35,0,1,,,,,,,
,,,,,,0,2.182530838,#a3d0fb,"[""0.25"",""0""]",left_blue.png,left,,,,,,,,left,left_blue.png,down_orange.png,down,right,up,574cca765e5491000f3c89e0,2021-09-11_14h48.30.407,arrow_simon_vert,2021.1.2,Win32,59.46717412,,,,,,,,,,,,,,,,,,,,,left,1,1.8094,37,TRUE,FALSE,9,0,36,3,1,,,,,,,
,,,,,,0,1.845411749,#f3af84,"[""0"",""0.25""]",down_orange.png,down,,,,,,,,left,left_blue.png,down_orange.png,down,right,up,574cca765e5491000f3c89e0,2021-09-11_14h48.30.407,arrow_simon_vert,2021.1.2,Win32,59.46717412,,,,,,,,,,,,,,,,,,,,,down,1,1.5349,38,FALSE,FALSE,9,1,37,3,1,,,,,,,
,,,,,,0,2.120518994,#a3d0fb,"[""0.25"",""0""]",right_blue.png,right,,,,,,,,right,right_blue.png,up_orange.png,up,right,up,574cca765e5491000f3c89e0,2021-09-11_14h48.30.407,arrow_simon_vert,2021.1.2,Win32,59.46717412,,,,,,,,,,,,,,,,,,,,,right,1,1.7602,39,TRUE,FALSE,9,2,38,1,1,,,,,,,
,,,,,,0,1.735049897,#f3af84,"[""0"",""0.25""]",down_orange.png,down,,,,,,,,left,left_blue.png,down_orange.png,down,right,up,574cca765e5491000f3c89e0,2021-09-11_14h48.30.407,arrow_simon_vert,2021.1.2,Win32,59.46717412,,,,,,,,,,,,,,,,,,,,,down,1,1.7637,40,TRUE,FALSE,9,3,39,3,1,,,,,,,
,,,,,,0,2.006019958,#a3d0fb,"[""0.25"",""0""]",right_blue.png,right,,,,,,,,right,right_blue.png,up_orange.png,up,right,up,574cca765e5491000f3c89e0,2021-09-11_14h48.30.407,arrow_simon_vert,2021.1.2,Win32,59.46717412,,,,,,,,,,,,,,,,,,,,,right,1,1.5188,41,FALSE,FALSE,10,0,40,1,1,,,,,,,
,,,,,,0,1.970381245,#f3af84,"[""0"",""0.25""]",up_orange.png,up,,,,,,,,right,right_blue.png,up_orange.png,up,right,up,574cca765e5491000f3c89e0,2021-09-11_14h48.30.407,arrow_simon_vert,2021.1.2,Win32,59.46717412,,,,,,,,,,,,,,,,,,,,,up,1,1.7756,42,TRUE,FALSE,10,1,41,1,1,,,,,,,
,,,,,,0,2.098196019,#a3d0fb,"[""0.25"",""0""]",right_blue.png,right,,,,,,,,right,right_blue.png,up_orange.png,up,right,up,574cca765e5491000f3c89e0,2021-09-11_14h48.30.407,arrow_simon_vert,2021.1.2,Win32,59.46717412,,,,,,,,,,,,,,,,,,,,,right,1,1.7088,43,TRUE,FALSE,10,2,42,1,1,,,,,,,
,,,,,,0,2.406170599,#f3af84,"[""0"",""0.25""]",down_orange.png,down,,,,,,,,left,left_blue.png,down_orange.png,down,right,up,574cca765e5491000f3c89e0,2021-09-11_14h48.30.407,arrow_simon_vert,2021.1.2,Win32,59.46717412,,,,,,,,,,,,,,,,,,,,,down,1,2.0506,44,TRUE,FALSE,10,3,43,3,1,,,,,,,
,,,,,,0,1.721099343,#a3d0fb,"[""0.25"",""0""]",left_blue.png,left,,,,,,,,left,left_blue.png,down_orange.png,down,right,up,574cca765e5491000f3c89e0,2021-09-11_14h48.30.407,arrow_simon_vert,2021.1.2,Win32,59.46717412,,,,,,,,,,,,,,,,,,,,,left,1,1.4024,45,FALSE,FALSE,11,0,44,3,1,,,,,,,
,,,,,,0,1.554349881,#f3af84,"[""0"",""-0.25""]",up_orange.png,up,,,,,,,,right,right_blue.png,up_orange.png,up,left,down,574cca765e5491000f3c89e0,2021-09-11_14h48.30.407,arrow_simon_vert,2021.1.2,Win32,59.46717412,,,,,,,,,,,,,,,,,,,,,up,1,1.5842,46,FALSE,FALSE,11,1,45,0,1,,,,,,,
,,,,,,0,2.004274174,#a3d0fb,"[""-0.25"",""0""]",right_blue.png,right,,,,,,,,right,right_blue.png,up_orange.png,up,left,down,574cca765e5491000f3c89e0,2021-09-11_14h48.30.407,arrow_simon_vert,2021.1.2,Win32,59.46717412,,,,,,,,,,,,,,,,,,,,,right,1,1.619,47,TRUE,FALSE,11,2,46,0,1,,,,,,,
,,,,,,0,1.944396008,#f3af84,"[""0"",""-0.25""]",up_orange.png,up,,,,,,,,right,right_blue.png,up_orange.png,up,left,down,574cca765e5491000f3c89e0,2021-09-11_14h48.30.407,arrow_simon_vert,2021.1.2,Win32,59.46717412,,,,,,,,,,,,,,,,,,,,,up,1,1.6849,48,TRUE,FALSE,11,3,47,0,1,,,,,,,
,,,,,,0,2.263327354,#a3d0fb,"[""0.25"",""0""]",left_blue.png,left,,,,,,,,left,left_blue.png,down_orange.png,down,right,up,574cca765e5491000f3c89e0,2021-09-11_14h48.30.407,arrow_simon_vert,2021.1.2,Win32,59.46717412,,,,,,,,,,,,,,,,,,,,,left,1,1.851,49,TRUE,FALSE,12,0,48,3,1,,,,,,,
,,,,,,0,2.296925842,#f3af84,"[""0"",""0.25""]",up_orange.png,up,,,,,,,,right,right_blue.png,up_orange.png,up,right,up,574cca765e5491000f3c89e0,2021-09-11_14h48.30.407,arrow_simon_vert,2021.1.2,Win32,59.46717412,,,,,,,,,,,,,,,,,,,,,up,1,1.8355,50,TRUE,FALSE,12,1,49,1,1,,,,,,,
,,,,,,0,2.403016578,#a3d0fb,"[""0.25"",""0""]",right_blue.png,right,,,,,,,,right,right_blue.png,up_orange.png,up,right,up,574cca765e5491000f3c89e0,2021-09-11_14h48.30.407,arrow_simon_vert,2021.1.2,Win32,59.46717412,,,,,,,,,,,,,,,,,,,,,right,1,1.9987,51,TRUE,FALSE,12,2,50,1,1,,,,,,,
,,,,,,0,2.349915758,#f3af84,"[""0"",""-0.25""]",down_orange.png,down,,,,,,,,left,left_blue.png,down_orange.png,down,left,down,574cca765e5491000f3c89e0,2021-09-11_14h48.30.407,arrow_simon_vert,2021.1.2,Win32,59.46717412,,,,,,,,,,,,,,,,,,,,,down,1,2.6793,52,TRUE,FALSE,12,3,51,2,1,,,,,,,
,,,,,,0,2.373469986,#a3d0fb,"[""-0.25"",""0""]",right_blue.png,right,,,,,,,,right,right_blue.png,up_orange.png,up,left,down,574cca765e5491000f3c89e0,2021-09-11_14h48.30.407,arrow_simon_vert,2021.1.2,Win32,59.46717412,,,,,,,,,,,,,,,,,,,,,right,1,1.8845,53,TRUE,FALSE,13,0,52,0,1,,,,,,,
,,,,,,0,2.139142679,#f3af84,"[""0"",""-0.25""]",down_orange.png,down,,,,,,,,left,left_blue.png,down_orange.png,down,left,down,574cca765e5491000f3c89e0,2021-09-11_14h48.30.407,arrow_simon_vert,2021.1.2,Win32,59.46717412,,,,,,,,,,,,,,,,,,,,,down,1,1.8108,54,TRUE,FALSE,13,1,53,2,1,,,,,,,
,,,,,,0,2.486214274,#a3d0fb,"[""-0.25"",""0""]",left_blue.png,left,,,,,,,,left,left_blue.png,down_orange.png,down,left,down,574cca765e5491000f3c89e0,2021-09-11_14h48.30.407,arrow_simon_vert,2021.1.2,Win32,59.46717412,,,,,,,,,,,,,,,,,,,,,left,1,1.8358,55,TRUE,FALSE,13,2,54,2,1,,,,,,,
,,,,,,0,2.271905622,#f3af84,"[""0"",""-0.25""]",up_orange.png,up,,,,,,,,right,right_blue.png,up_orange.png,up,left,down,574cca765e5491000f3c89e0,2021-09-11_14h48.30.407,arrow_simon_vert,2021.1.2,Win32,59.46717412,,,,,,,,,,,,,,,,,,,,,down,0,1.7746,56,TRUE,FALSE,13,3,55,0,1,,,,,,,
,,,,,,0,2.209411282,#a3d0fb,"[""0.25"",""0""]",right_blue.png,right,,,,,,,,right,right_blue.png,up_orange.png,up,right,up,574cca765e5491000f3c89e0,2021-09-11_14h48.30.407,arrow_simon_vert,2021.1.2,Win32,59.46717412,,,,,,,,,,,,,,,,,,,,,right,1,1.6007,57,TRUE,FALSE,14,0,56,1,1,,,,,,,
,,,,,,0,1.674304199,#f3af84,"[""0"",""0.25""]",down_orange.png,down,,,,,,,,left,left_blue.png,down_orange.png,down,right,up,574cca765e5491000f3c89e0,2021-09-11_14h48.30.407,arrow_simon_vert,2021.1.2,Win32,59.46717412,,,,,,,,,,,,,,,,,,,,,down,1,1.5398,58,FALSE,FALSE,14,1,57,3,1,,,,,,,
,,,,,,0,1.969175566,#a3d0fb,"[""-0.25"",""0""]",right_blue.png,right,,,,,,,,right,right_blue.png,up_orange.png,up,left,down,574cca765e5491000f3c89e0,2021-09-11_14h48.30.407,arrow_simon_vert,2021.1.2,Win32,59.46717412,,,,,,,,,,,,,,,,,,,,,right,1,1.6087,59,TRUE,FALSE,14,2,58,0,1,,,,,,,
,,,,,,0,2.145158788,#f3af84,"[""0"",""0.25""]",up_orange.png,up,,,,,,,,right,right_blue.png,up_orange.png,up,right,up,574cca765e5491000f3c89e0,2021-09-11_14h48.30.407,arrow_simon_vert,2021.1.2,Win32,59.46717412,,,,,,,,,,,,,,,,,,,,,up,1,1.884,60,TRUE,FALSE,14,3,59,1,1,,,,,,,
,,,,,,,,,,,,,,,,,,,,,,,,,574cca765e5491000f3c89e0,2021-09-11_14h48.30.407,arrow_simon_vert,2021.1.2,Win32,59.46717412,,,,,,,,,,,,,,,,,,,,,,,,,,,,,,,,space,206.4465,0,0,0,0,1
,,,,,,0,1.568927209,#a3d0fb,"[""0.25"",""0""]",right_blue.png,right,,,,,,,,right,right_blue.png,up_orange.png,up,right,up,574cca765e5491000f3c89e0,2021-09-11_14h48.30.407,arrow_simon_vert,2021.1.2,Win32,59.46717412,,,,,,,,,,,,,,,,,,,,,right,1,3.0736,1,TRUE,FALSE,0,0,0,1,1,,,,,,,
,,,,,,0,2.223037704,#f3af84,"[""0"",""0.25""]",down_orange.png,down,,,,,,,,left,left_blue.png,down_orange.png,down,right,up,574cca765e5491000f3c89e0,2021-09-11_14h48.30.407,arrow_simon_vert,2021.1.2,Win32,59.46717412,,,,,,,,,,,,,,,,,,,,,down,1,1.9191,2,TRUE,FALSE,0,1,1,3,1,,,,,,,
,,,,,,0,1.894529158,#a3d0fb,"[""-0.25"",""0""]",right_blue.png,right,,,,,,,,right,right_blue.png,up_orange.png,up,left,down,574cca765e5491000f3c89e0,2021-09-11_14h48.30.407,arrow_simon_vert,2021.1.2,Win32,59.46717412,,,,,,,,,,,,,,,,,,,,,right,1,1.4275,3,FALSE,FALSE,0,2,2,0,1,,,,,,,
,,,,,,0,2.370146986,#f3af84,"[""0"",""-0.25""]",down_orange.png,down,,,,,,,,left,left_blue.png,down_orange.png,down,left,down,574cca765e5491000f3c89e0,2021-09-11_14h48.30.407,arrow_simon_vert,2021.1.2,Win32,59.46717412,,,,,,,,,,,,,,,,,,,,,down,1,1.8939,4,TRUE,FALSE,0,3,3,2,1,,,,,,,
,,,,,,0,1.663898576,#a3d0fb,"[""0.25"",""0""]",right_blue.png,right,,,,,,,,right,right_blue.png,up_orange.png,up,right,up,574cca765e5491000f3c89e0,2021-09-11_14h48.30.407,arrow_simon_vert,2021.1.2,Win32,59.46717412,,,,,,,,,,,,,,,,,,,,,right,1,1.1221,5,FALSE,TRUE,1,0,4,1,1,,,,,,,
,,,,,,0,1.819776229,#f3af84,"[""0"",""0.25""]",down_orange.png,down,,,,,,,,left,left_blue.png,down_orange.png,down,right,up,574cca765e5491000f3c89e0,2021-09-11_14h48.30.407,arrow_simon_vert,2021.1.2,Win32,59.46717412,,,,,,,,,,,,,,,,,,,,,down,1,1.6613,6,TRUE,FALSE,1,1,5,3,1,,,,,,,
,,,,,,0,1.811406325,#a3d0fb,"[""0.25"",""0""]",left_blue.png,left,,,,,,,,left,left_blue.png,down_orange.png,down,right,up,574cca765e5491000f3c89e0,2021-09-11_14h48.30.407,arrow_simon_vert,2021.1.2,Win32,59.46717412,,,,,,,,,,,,,,,,,,,,,left,1,1.3737,7,FALSE,TRUE,1,2,6,3,1,,,,,,,
,,,,,,0,1.720921107,#f3af84,"[""0"",""0.25""]",up_orange.png,up,,,,,,,,right,right_blue.png,up_orange.png,up,right,up,574cca765e5491000f3c89e0,2021-09-11_14h48.30.407,arrow_simon_vert,2021.1.2,Win32,59.46717412,,,,,,,,,,,,,,,,,,,,,up,1,1.6245,8,TRUE,FALSE,1,3,7,1,1,,,,,,,
,,,,,,0,1.937660181,#a3d0fb,"[""-0.25"",""0""]",left_blue.png,left,,,,,,,,left,left_blue.png,down_orange.png,down,left,down,574cca765e5491000f3c89e0,2021-09-11_14h48.30.407,arrow_simon_vert,2021.1.2,Win32,59.46717412,,,,,,,,,,,,,,,,,,,,,left,1,1.6537,9,TRUE,FALSE,2,0,8,2,1,,,,,,,
,,,,,,0,2.11597779,#f3af84,"[""0"",""0.25""]",down_orange.png,down,,,,,,,,left,left_blue.png,down_orange.png,down,right,up,574cca765e5491000f3c89e0,2021-09-11_14h48.30.407,arrow_simon_vert,2021.1.2,Win32,59.46717412,,,,,,,,,,,,,,,,,,,,,down,1,1.7857,10,TRUE,FALSE,2,1,9,3,1,,,,,,,
,,,,,,0,1.803327673,#a3d0fb,"[""0.25"",""0""]",right_blue.png,right,,,,,,,,right,right_blue.png,up_orange.png,up,right,up,574cca765e5491000f3c89e0,2021-09-11_14h48.30.407,arrow_simon_vert,2021.1.2,Win32,59.46717412,,,,,,,,,,,,,,,,,,,,,right,1,1.2849,11,FALSE,TRUE,2,2,10,1,1,,,,,,,
,,,,,,0,2.077088978,#f3af84,"[""0"",""-0.25""]",down_orange.png,down,,,,,,,,left,left_blue.png,down_orange.png,down,left,down,574cca765e5491000f3c89e0,2021-09-11_14h48.30.407,arrow_simon_vert,2021.1.2,Win32,59.46717412,,,,,,,,,,,,,,,,,,,,,down,1,1.7691,12,TRUE,FALSE,2,3,11,2,1,,,,,,,
,,,,,,0,1.667746889,#a3d0fb,"[""-0.25"",""0""]",left_blue.png,left,,,,,,,,left,left_blue.png,down_orange.png,down,left,down,574cca765e5491000f3c89e0,2021-09-11_14h48.30.407,arrow_simon_vert,2021.1.2,Win32,59.46717412,,,,,,,,,,,,,,,,,,,,,left,1,1.1848,13,FALSE,TRUE,3,0,12,2,1,,,,,,,
,,,,,,0,1.903511869,#f3af84,"[""0"",""-0.25""]",down_orange.png,down,,,,,,,,left,left_blue.png,down_orange.png,down,left,down,574cca765e5491000f3c89e0,2021-09-11_14h48.30.407,arrow_simon_vert,2021.1.2,Win32,59.46717412,,,,,,,,,,,,,,,,,,,,,down,1,1.627,14,TRUE,FALSE,3,1,13,2,1,,,,,,,
,,,,,,0,1.774319165,#a3d0fb,"[""0.25"",""0""]",right_blue.png,right,,,,,,,,right,right_blue.png,up_orange.png,up,right,up,574cca765e5491000f3c89e0,2021-09-11_14h48.30.407,arrow_simon_vert,2021.1.2,Win32,59.46717412,,,,,,,,,,,,,,,,,,,,,right,1,1.5869,15,FALSE,FALSE,3,2,14,1,1,,,,,,,
,,,,,,0,1.761744984,#f3af84,"[""0"",""-0.25""]",up_orange.png,up,,,,,,,,right,right_blue.png,up_orange.png,up,left,down,574cca765e5491000f3c89e0,2021-09-11_14h48.30.407,arrow_simon_vert,2021.1.2,Win32,59.46717412,,,,,,,,,,,,,,,,,,,,,up,1,1.6012,16,TRUE,FALSE,3,3,15,0,1,,,,,,,
,,,,,,0,2.407238883,#a3d0fb,"[""-0.25"",""0""]",right_blue.png,right,,,,,,,,right,right_blue.png,up_orange.png,up,left,down,574cca765e5491000f3c89e0,2021-09-11_14h48.30.407,arrow_simon_vert,2021.1.2,Win32,59.46717412,,,,,,,,,,,,,,,,,,,,,right,1,2.0804,17,TRUE,FALSE,4,0,16,0,1,,,,,,,
,,,,,,0,1.556542355,#f3af84,"[""0"",""0.25""]",down_orange.png,down,,,,,,,,left,left_blue.png,down_orange.png,down,right,up,574cca765e5491000f3c89e0,2021-09-11_14h48.30.407,arrow_simon_vert,2021.1.2,Win32,59.46717412,,,,,,,,,,,,,,,,,,,,,down,1,1.2072,18,FALSE,TRUE,4,1,17,3,1,,,,,,,
,,,,,,0,2.262937003,#a3d0fb,"[""-0.25"",""0""]",right_blue.png,right,,,,,,,,right,right_blue.png,up_orange.png,up,left,down,574cca765e5491000f3c89e0,2021-09-11_14h48.30.407,arrow_simon_vert,2021.1.2,Win32,59.46717412,,,,,,,,,,,,,,,,,,,,,right,1,1.8008,19,TRUE,FALSE,4,2,18,0,1,,,,,,,
,,,,,,0,2.238333801,#f3af84,"[""0"",""-0.25""]",down_orange.png,down,,,,,,,,left,left_blue.png,down_orange.png,down,left,down,574cca765e5491000f3c89e0,2021-09-11_14h48.30.407,arrow_simon_vert,2021.1.2,Win32,59.46717412,,,,,,,,,,,,,,,,,,,,,down,1,1.9547,20,TRUE,FALSE,4,3,19,2,1,,,,,,,
,,,,,,0,2.210288378,#a3d0fb,"[""0.25"",""0""]",right_blue.png,right,,,,,,,,right,right_blue.png,up_orange.png,up,right,up,574cca765e5491000f3c89e0,2021-09-11_14h48.30.407,arrow_simon_vert,2021.1.2,Win32,59.46717412,,,,,,,,,,,,,,,,,,,,,right,1,1.6848,21,TRUE,FALSE,5,0,20,1,1,,,,,,,
,,,,,,0,2.060387181,#f3af84,"[""0"",""-0.25""]",up_orange.png,up,,,,,,,,right,right_blue.png,up_orange.png,up,left,down,574cca765e5491000f3c89e0,2021-09-11_14h48.30.407,arrow_simon_vert,2021.1.2,Win32,59.46717412,,,,,,,,,,,,,,,,,,,,,up,1,1.7175,22,TRUE,FALSE,5,1,21,0,1,,,,,,,
,,,,,,0,2.077296332,#a3d0fb,"[""-0.25"",""0""]",right_blue.png,right,,,,,,,,right,right_blue.png,up_orange.png,up,left,down,574cca765e5491000f3c89e0,2021-09-11_14h48.30.407,arrow_simon_vert,2021.1.2,Win32,59.46717412,,,,,,,,,,,,,,,,,,,,,left,0,1.3688,23,FALSE,TRUE,5,2,22,0,1,,,,,,,
,,,,,,0,1.817662627,#f3af84,"[""0"",""-0.25""]",up_orange.png,up,,,,,,,,right,right_blue.png,up_orange.png,up,left,down,574cca765e5491000f3c89e0,2021-09-11_14h48.30.407,arrow_simon_vert,2021.1.2,Win32,59.46717412,,,,,,,,,,,,,,,,,,,,,up,1,1.6205,24,TRUE,FALSE,5,3,23,0,1,,,,,,,
,,,,,,0,1.989174627,#a3d0fb,"[""0.25"",""0""]",left_blue.png,left,,,,,,,,left,left_blue.png,down_orange.png,down,right,up,574cca765e5491000f3c89e0,2021-09-11_14h48.30.407,arrow_simon_vert,2021.1.2,Win32,59.46717412,,,,,,,,,,,,,,,,,,,,,right,0,1.3021,25,FALSE,TRUE,6,0,24,3,1,,,,,,,
,,,,,,0,2.38592667,#f3af84,"[""0"",""-0.25""]",up_orange.png,up,,,,,,,,right,right_blue.png,up_orange.png,up,left,down,574cca765e5491000f3c89e0,2021-09-11_14h48.30.407,arrow_simon_vert,2021.1.2,Win32,59.46717412,,,,,,,,,,,,,,,,,,,,,up,1,2.0273,26,TRUE,FALSE,6,1,25,0,1,,,,,,,
,,,,,,0,2.474364983,#a3d0fb,"[""-0.25"",""0""]",left_blue.png,left,,,,,,,,left,left_blue.png,down_orange.png,down,left,down,574cca765e5491000f3c89e0,2021-09-11_14h48.30.407,arrow_simon_vert,2021.1.2,Win32,59.46717412,,,,,,,,,,,,,,,,,,,,,left,1,1.9239,27,TRUE,FALSE,6,2,26,2,1,,,,,,,
,,,,,,0,1.796718842,#f3af84,"[""0"",""0.25""]",down_orange.png,down,,,,,,,,left,left_blue.png,down_orange.png,down,right,up,574cca765e5491000f3c89e0,2021-09-11_14h48.30.407,arrow_simon_vert,2021.1.2,Win32,59.46717412,,,,,,,,,,,,,,,,,,,,,down,1,1.7572,28,TRUE,FALSE,6,3,27,3,1,,,,,,,
,,,,,,0,2.384078526,#a3d0fb,"[""0.25"",""0""]",right_blue.png,right,,,,,,,,right,right_blue.png,up_orange.png,up,right,up,574cca765e5491000f3c89e0,2021-09-11_14h48.30.407,arrow_simon_vert,2021.1.2,Win32,59.46717412,,,,,,,,,,,,,,,,,,,,,right,1,1.8728,29,TRUE,FALSE,7,0,28,1,1,,,,,,,
,,,,,,0,2.372936874,#f3af84,"[""0"",""0.25""]",down_orange.png,down,,,,,,,,left,left_blue.png,down_orange.png,down,right,up,574cca765e5491000f3c89e0,2021-09-11_14h48.30.407,arrow_simon_vert,2021.1.2,Win32,59.46717412,,,,,,,,,,,,,,,,,,,,,down,1,1.9857,30,TRUE,FALSE,7,1,29,3,1,,,,,,,
,,,,,,0,2.328540764,#a3d0fb,"[""-0.25"",""0""]",right_blue.png,right,,,,,,,,right,right_blue.png,up_orange.png,up,left,down,574cca765e5491000f3c89e0,2021-09-11_14h48.30.407,arrow_simon_vert,2021.1.2,Win32,59.46717412,,,,,,,,,,,,,,,,,,,,,right,1,1.7913,31,TRUE,FALSE,7,2,30,0,1,,,,,,,
,,,,,,0,1.803641579,#f3af84,"[""0"",""-0.25""]",down_orange.png,down,,,,,,,,left,left_blue.png,down_orange.png,down,left,down,574cca765e5491000f3c89e0,2021-09-11_14h48.30.407,arrow_simon_vert,2021.1.2,Win32,59.46717412,,,,,,,,,,,,,,,,,,,,,down,1,1.2805,32,FALSE,TRUE,7,3,31,2,1,,,,,,,
,,,,,,0,1.752997943,#a3d0fb,"[""0.25"",""0""]",left_blue.png,left,,,,,,,,left,left_blue.png,down_orange.png,down,right,up,574cca765e5491000f3c89e0,2021-09-11_14h48.30.407,arrow_simon_vert,2021.1.2,Win32,59.46717412,,,,,,,,,,,,,,,,,,,,,right,0,1.2365,33,FALSE,TRUE,8,0,32,3,1,,,,,,,
,,,,,,0,1.752434188,#f3af84,"[""0"",""-0.25""]",up_orange.png,up,,,,,,,,right,right_blue.png,up_orange.png,up,left,down,574cca765e5491000f3c89e0,2021-09-11_14h48.30.407,arrow_simon_vert,2021.1.2,Win32,59.46717412,,,,,,,,,,,,,,,,,,,,,up,1,1.3722,34,FALSE,TRUE,8,1,33,0,1,,,,,,,
,,,,,,0,1.581728489,#a3d0fb,"[""-0.25"",""0""]",right_blue.png,right,,,,,,,,right,right_blue.png,up_orange.png,up,left,down,574cca765e5491000f3c89e0,2021-09-11_14h48.30.407,arrow_simon_vert,2021.1.2,Win32,59.46717412,,,,,,,,,,,,,,,,,,,,,right,1,1.2726,35,FALSE,TRUE,8,2,34,0,1,,,,,,,
,,,,,,0,1.654407293,#f3af84,"[""0"",""-0.25""]",down_orange.png,down,,,,,,,,left,left_blue.png,down_orange.png,down,left,down,574cca765e5491000f3c89e0,2021-09-11_14h48.30.407,arrow_simon_vert,2021.1.2,Win32,59.46717412,,,,,,,,,,,,,,,,,,,,,down,1,1.252,36,FALSE,TRUE,8,3,35,2,1,,,,,,,
,,,,,,0,1.513067474,#a3d0fb,"[""0.25"",""0""]",left_blue.png,left,,,,,,,,left,left_blue.png,down_orange.png,down,right,up,574cca765e5491000f3c89e0,2021-09-11_14h48.30.407,arrow_simon_vert,2021.1.2,Win32,59.46717412,,,,,,,,,,,,,,,,,,,,,left,1,1.2376,37,FALSE,TRUE,9,0,36,3,1,,,,,,,
,,,,,,0,1.818280541,#f3af84,"[""0"",""0.25""]",up_orange.png,up,,,,,,,,right,right_blue.png,up_orange.png,up,right,up,574cca765e5491000f3c89e0,2021-09-11_14h48.30.407,arrow_simon_vert,2021.1.2,Win32,59.46717412,,,,,,,,,,,,,,,,,,,,,up,1,1.7079,38,TRUE,FALSE,9,1,37,1,1,,,,,,,
,,,,,,0,1.924474648,#a3d0fb,"[""-0.25"",""0""]",right_blue.png,right,,,,,,,,right,right_blue.png,up_orange.png,up,left,down,574cca765e5491000f3c89e0,2021-09-11_14h48.30.407,arrow_simon_vert,2021.1.2,Win32,59.46717412,,,,,,,,,,,,,,,,,,,,,right,1,1.4551,39,FALSE,FALSE,9,2,38,0,1,,,,,,,
,,,,,,0,1.562425424,#f3af84,"[""0"",""0.25""]",down_orange.png,down,,,,,,,,left,left_blue.png,down_orange.png,down,right,up,574cca765e5491000f3c89e0,2021-09-11_14h48.30.407,arrow_simon_vert,2021.1.2,Win32,59.46717412,,,,,,,,,,,,,,,,,,,,,down,1,1.205,40,FALSE,TRUE,9,3,39,3,1,,,,,,,
,,,,,,0,2.093978691,#a3d0fb,"[""0.25"",""0""]",right_blue.png,right,,,,,,,,right,right_blue.png,up_orange.png,up,right,up,574cca765e5491000f3c89e0,2021-09-11_14h48.30.407,arrow_simon_vert,2021.1.2,Win32,59.46717412,,,,,,,,,,,,,,,,,,,,,right,1,1.6896,41,TRUE,FALSE,10,0,40,1,1,,,,,,,
,,,,,,0,1.853334906,#f3af84,"[""0"",""-0.25""]",down_orange.png,down,,,,,,,,left,left_blue.png,down_orange.png,down,left,down,574cca765e5491000f3c89e0,2021-09-11_14h48.30.407,arrow_simon_vert,2021.1.2,Win32,59.46717412,,,,,,,,,,,,,,,,,,,,,down,1,1.7567,42,TRUE,FALSE,10,1,41,2,1,,,,,,,
,,,,,,0,2.452664653,#a3d0fb,"[""-0.25"",""0""]",left_blue.png,left,,,,,,,,left,left_blue.png,down_orange.png,down,left,down,574cca765e5491000f3c89e0,2021-09-11_14h48.30.407,arrow_simon_vert,2021.1.2,Win32,59.46717412,,,,,,,,,,,,,,,,,,,,,left,1,1.8679,43,TRUE,FALSE,10,2,42,2,1,,,,,,,
,,,,,,0,1.896990065,#f3af84,"[""0"",""-0.25""]",up_orange.png,up,,,,,,,,right,right_blue.png,up_orange.png,up,left,down,574cca765e5491000f3c89e0,2021-09-11_14h48.30.407,arrow_simon_vert,2021.1.2,Win32,59.46717412,,,,,,,,,,,,,,,,,,,,,up,1,1.891,44,TRUE,FALSE,10,3,43,0,1,,,,,,,
,,,,,,0,1.869971903,#a3d0fb,"[""-0.25"",""0""]",right_blue.png,right,,,,,,,,right,right_blue.png,up_orange.png,up,left,down,574cca765e5491000f3c89e0,2021-09-11_14h48.30.407,arrow_simon_vert,2021.1.2,Win32,59.46717412,,,,,,,,,,,,,,,,,,,,,right,1,1.4519,45,FALSE,FALSE,11,0,44,0,1,,,,,,,
,,,,,,0,1.994417828,#f3af84,"[""0"",""-0.25""]",up_orange.png,up,,,,,,,,right,right_blue.png,up_orange.png,up,left,down,574cca765e5491000f3c89e0,2021-09-11_14h48.30.407,arrow_simon_vert,2021.1.2,Win32,59.46717412,,,,,,,,,,,,,,,,,,,,,up,1,1.7209,46,TRUE,FALSE,11,1,45,0,1,,,,,,,
,,,,,,0,2.33935471,#a3d0fb,"[""-0.25"",""0""]",left_blue.png,left,,,,,,,,left,left_blue.png,down_orange.png,down,left,down,574cca765e5491000f3c89e0,2021-09-11_14h48.30.407,arrow_simon_vert,2021.1.2,Win32,59.46717412,,,,,,,,,,,,,,,,,,,,,left,1,1.7026,47,TRUE,FALSE,11,2,46,2,1,,,,,,,
,,,,,,0,1.919846685,#f3af84,"[""0"",""0.25""]",up_orange.png,up,,,,,,,,right,right_blue.png,up_orange.png,up,right,up,574cca765e5491000f3c89e0,2021-09-11_14h48.30.407,arrow_simon_vert,2021.1.2,Win32,59.46717412,,,,,,,,,,,,,,,,,,,,,up,1,1.4574,48,FALSE,FALSE,11,3,47,1,1,,,,,,,
,,,,,,0,2.439230416,#a3d0fb,"[""0.25"",""0""]",left_blue.png,left,,,,,,,,left,left_blue.png,down_orange.png,down,right,up,574cca765e5491000f3c89e0,2021-09-11_14h48.30.407,arrow_simon_vert,2021.1.2,Win32,59.46717412,,,,,,,,,,,,,,,,,,,,,left,1,1.9935,49,TRUE,FALSE,12,0,48,3,1,,,,,,,
,,,,,,0,2.49853738,#f3af84,"[""0"",""0.25""]",down_orange.png,down,,,,,,,,left,left_blue.png,down_orange.png,down,right,up,574cca765e5491000f3c89e0,2021-09-11_14h48.30.407,arrow_simon_vert,2021.1.2,Win32,59.46717412,,,,,,,,,,,,,,,,,,,,,down,1,2.1936,50,TRUE,FALSE,12,1,49,3,1,,,,,,,
,,,,,,0,2.261683939,#a3d0fb,"[""-0.25"",""0""]",left_blue.png,left,,,,,,,,left,left_blue.png,down_orange.png,down,left,down,574cca765e5491000f3c89e0,2021-09-11_14h48.30.407,arrow_simon_vert,2021.1.2,Win32,59.46717412,,,,,,,,,,,,,,,,,,,,,left,1,1.7725,51,TRUE,FALSE,12,2,50,2,1,,,,,,,
,,,,,,0,1.981681882,#f3af84,"[""0"",""0.25""]",up_orange.png,up,,,,,,,,right,right_blue.png,up_orange.png,up,right,up,574cca765e5491000f3c89e0,2021-09-11_14h48.30.407,arrow_simon_vert,2021.1.2,Win32,59.46717412,,,,,,,,,,,,,,,,,,,,,up,1,1.5086,52,FALSE,FALSE,12,3,51,1,1,,,,,,,
,,,,,,0,2.349207931,#a3d0fb,"[""0.25"",""0""]",right_blue.png,right,,,,,,,,right,right_blue.png,up_orange.png,up,right,up,574cca765e5491000f3c89e0,2021-09-11_14h48.30.407,arrow_simon_vert,2021.1.2,Win32,59.46717412,,,,,,,,,,,,,,,,,,,,,right,1,1.5186,53,FALSE,FALSE,13,0,52,1,1,,,,,,,
,,,,,,0,1.629842886,#f3af84,"[""0"",""0.25""]",up_orange.png,up,,,,,,,,right,right_blue.png,up_orange.png,up,right,up,574cca765e5491000f3c89e0,2021-09-11_14h48.30.407,arrow_simon_vert,2021.1.2,Win32,59.46717412,,,,,,,,,,,,,,,,,,,,,up,1,1.2179,54,FALSE,TRUE,13,1,53,1,1,,,,,,,
,,,,,,0,1.640391089,#a3d0fb,"[""0.25"",""0""]",left_blue.png,left,,,,,,,,left,left_blue.png,down_orange.png,down,right,up,574cca765e5491000f3c89e0,2021-09-11_14h48.30.407,arrow_simon_vert,2021.1.2,Win32,59.46717412,,,,,,,,,,,,,,,,,,,,,left,1,1.2204,55,FALSE,TRUE,13,2,54,3,1,,,,,,,
,,,,,,0,2.414240364,#f3af84,"[""0"",""0.25""]",up_orange.png,up,,,,,,,,right,right_blue.png,up_orange.png,up,right,up,574cca765e5491000f3c89e0,2021-09-11_14h48.30.407,arrow_simon_vert,2021.1.2,Win32,59.46717412,,,,,,,,,,,,,,,,,,,,,up,1,1.8691,56,TRUE,FALSE,13,3,55,1,1,,,,,,,
,,,,,,0,2.025586577,#a3d0fb,"[""-0.25"",""0""]",left_blue.png,left,,,,,,,,left,left_blue.png,down_orange.png,down,left,down,574cca765e5491000f3c89e0,2021-09-11_14h48.30.407,arrow_simon_vert,2021.1.2,Win32,59.46717412,,,,,,,,,,,,,,,,,,,,,left,1,1.4779,57,FALSE,FALSE,14,0,56,2,1,,,,,,,
,,,,,,0,2.205742432,#f3af84,"[""0"",""-0.25""]",down_orange.png,down,,,,,,,,left,left_blue.png,down_orange.png,down,left,down,574cca765e5491000f3c89e0,2021-09-11_14h48.30.407,arrow_simon_vert,2021.1.2,Win32,59.46717412,,,,,,,,,,,,,,,,,,,,,down,1,1.7738,58,TRUE,FALSE,14,1,57,2,1,,,,,,,
,,,,,,0,2.034921802,#a3d0fb,"[""0.25"",""0""]",right_blue.png,right,,,,,,,,right,right_blue.png,up_orange.png,up,right,up,574cca765e5491000f3c89e0,2021-09-11_14h48.30.407,arrow_simon_vert,2021.1.2,Win32,59.46717412,,,,,,,,,,,,,,,,,,,,,right,1,1.4361,59,FALSE,FALSE,14,2,58,1,1,,,,,,,
,,,,,,0,2.34650466,#f3af84,"[""0"",""0.25""]",down_orange.png,down,,,,,,,,left,left_blue.png,down_orange.png,down,right,up,574cca765e5491000f3c89e0,2021-09-11_14h48.30.407,arrow_simon_vert,2021.1.2,Win32,59.46717412,,,,,,,,,,,,,,,,,,,,,down,1,2.0479,60,TRUE,FALSE,14,3,59,3,1,,,,,,,
,,,,,,,,,,,,,,,,,,,,,,,,,574cca765e5491000f3c89e0,2021-09-11_14h48.30.407,arrow_simon_vert,2021.1.2,Win32,59.46717412,,,,,,,,,,,,,,,,,,,,,,,,,,,,,,,,space,15.8606,1,0,1,0,1
,,,,,,0,1.515916861,#a3d0fb,"[""-0.25"",""0""]",left_blue.png,left,,,,,,,,left,left_blue.png,down_orange.png,down,left,down,574cca765e5491000f3c89e0,2021-09-11_14h48.30.407,arrow_simon_vert,2021.1.2,Win32,59.46717412,,,,,,,,,,,,,,,,,,,,,left,1,1.2015,1,FALSE,TRUE,0,0,0,2,1,,,,,,,
,,,,,,0,2.46843716,#f3af84,"[""0"",""0.25""]",up_orange.png,up,,,,,,,,right,right_blue.png,up_orange.png,up,right,up,574cca765e5491000f3c89e0,2021-09-11_14h48.30.407,arrow_simon_vert,2021.1.2,Win32,59.46717412,,,,,,,,,,,,,,,,,,,,,up,1,1.9793,2,TRUE,FALSE,0,1,1,1,1,,,,,,,
,,,,,,0,1.538796094,#a3d0fb,"[""-0.25"",""0""]",right_blue.png,right,,,,,,,,right,right_blue.png,up_orange.png,up,left,down,574cca765e5491000f3c89e0,2021-09-11_14h48.30.407,arrow_simon_vert,2021.1.2,Win32,59.46717412,,,,,,,,,,,,,,,,,,,,,right,1,1.2038,3,FALSE,TRUE,0,2,2,0,1,,,,,,,
,,,,,,0,2.475156934,#f3af84,"[""0"",""0.25""]",up_orange.png,up,,,,,,,,right,right_blue.png,up_orange.png,up,right,up,574cca765e5491000f3c89e0,2021-09-11_14h48.30.407,arrow_simon_vert,2021.1.2,Win32,59.46717412,,,,,,,,,,,,,,,,,,,,,up,1,1.9713,4,TRUE,FALSE,0,3,3,1,1,,,,,,,
,,,,,,1,2.07060565,#a3d0fb,"[""-0.25"",""0""]",right_blue.png,right,,,,,,,,right,right_blue.png,up_orange.png,up,left,down,574cca765e5491000f3c89e0,2021-09-11_14h48.30.407,arrow_simon_vert,2021.1.2,Win32,59.46717412,,,,,,,,,,,,,,,,,,,,,left,0,1.4677,5,FALSE,FALSE,1,0,4,0,1,,,,,,,
,,,,,,1,1.628725909,#f3af84,"[""0"",""0.25""]",down_orange.png,down,,,,,,,,left,left_blue.png,down_orange.png,down,right,up,574cca765e5491000f3c89e0,2021-09-11_14h48.30.407,arrow_simon_vert,2021.1.2,Win32,59.46717412,,,,,,,,,,,,,,,,,,,,,down,1,1.217,6,FALSE,TRUE,1,1,5,3,1,,,,,,,
,,,,,,1,1.641735937,#a3d0fb,"[""0.25"",""0""]",left_blue.png,left,,,,,,,,left,left_blue.png,down_orange.png,down,right,up,574cca765e5491000f3c89e0,2021-09-11_14h48.30.407,arrow_simon_vert,2021.1.2,Win32,59.46717412,,,,,,,,,,,,,,,,,,,,,left,1,1.2188,7,FALSE,TRUE,1,2,6,3,1,,,,,,,
,,,,,,1,1.607947531,#f3af84,"[""0"",""-0.25""]",down_orange.png,down,,,,,,,,left,left_blue.png,down_orange.png,down,left,down,574cca765e5491000f3c89e0,2021-09-11_14h48.30.407,arrow_simon_vert,2021.1.2,Win32,59.46717412,,,,,,,,,,,,,,,,,,,,,down,1,1.2689,8,FALSE,TRUE,1,3,7,2,1,,,,,,,
,,,,,,1,1.600363582,#a3d0fb,"[""0.25"",""0""]",right_blue.png,right,,,,,,,,right,right_blue.png,up_orange.png,up,right,up,574cca765e5491000f3c89e0,2021-09-11_14h48.30.407,arrow_simon_vert,2021.1.2,Win32,59.46717412,,,,,,,,,,,,,,,,,,,,,right,1,1.1344,9,FALSE,TRUE,2,0,8,1,1,,,,,,,
,,,,,,1,1.828971387,#f3af84,"[""0"",""0.25""]",up_orange.png,up,,,,,,,,right,right_blue.png,up_orange.png,up,right,up,574cca765e5491000f3c89e0,2021-09-11_14h48.30.407,arrow_simon_vert,2021.1.2,Win32,59.46717412,,,,,,,,,,,,,,,,,,,,,up,1,1.3694,10,FALSE,TRUE,2,1,9,1,1,,,,,,,
,,,,,,1,1.709288564,#a3d0fb,"[""0.25"",""0""]",left_blue.png,left,,,,,,,,left,left_blue.png,down_orange.png,down,right,up,574cca765e5491000f3c89e0,2021-09-11_14h48.30.407,arrow_simon_vert,2021.1.2,Win32,59.46717412,,,,,,,,,,,,,,,,,,,,,left,1,1.2413,11,FALSE,TRUE,2,2,10,3,1,,,,,,,
,,,,,,1,2.426831388,#f3af84,"[""0"",""-0.25""]",up_orange.png,up,,,,,,,,right,right_blue.png,up_orange.png,up,left,down,574cca765e5491000f3c89e0,2021-09-11_14h48.30.407,arrow_simon_vert,2021.1.2,Win32,59.46717412,,,,,,,,,,,,,,,,,,,,,up,1,2.223,12,TRUE,FALSE,2,3,11,0,1,,,,,,,
,,,,,,1,1.636626547,#a3d0fb,"[""0.25"",""0""]",left_blue.png,left,,,,,,,,left,left_blue.png,down_orange.png,down,right,up,574cca765e5491000f3c89e0,2021-09-11_14h48.30.407,arrow_simon_vert,2021.1.2,Win32,59.46717412,,,,,,,,,,,,,,,,,,,,,left,1,1.2216,13,FALSE,TRUE,3,0,12,3,1,,,,,,,
,,,,,,1,2.343657157,#f3af84,"[""0"",""0.25""]",up_orange.png,up,,,,,,,,right,right_blue.png,up_orange.png,up,right,up,574cca765e5491000f3c89e0,2021-09-11_14h48.30.407,arrow_simon_vert,2021.1.2,Win32,59.46717412,,,,,,,,,,,,,,,,,,,,,up,1,1.9561,14,TRUE,FALSE,3,1,13,1,1,,,,,,,
,,,,,,1,1.54331213,#a3d0fb,"[""0.25"",""0""]",right_blue.png,right,,,,,,,,right,right_blue.png,up_orange.png,up,right,up,574cca765e5491000f3c89e0,2021-09-11_14h48.30.407,arrow_simon_vert,2021.1.2,Win32,59.46717412,,,,,,,,,,,,,,,,,,,,,right,1,1.0779,15,FALSE,TRUE,3,2,14,1,1,,,,,,,
,,,,,,1,2.118162085,#f3af84,"[""0"",""-0.25""]",up_orange.png,up,,,,,,,,right,right_blue.png,up_orange.png,up,left,down,574cca765e5491000f3c89e0,2021-09-11_14h48.30.407,arrow_simon_vert,2021.1.2,Win32,59.46717412,,,,,,,,,,,,,,,,,,,,,right,0,1.8564,16,TRUE,FALSE,3,3,15,0,1,,,,,,,
,,,,,,1,2.267579167,#a3d0fb,"[""0.25"",""0""]",right_blue.png,right,,,,,,,,right,right_blue.png,up_orange.png,up,right,up,574cca765e5491000f3c89e0,2021-09-11_14h48.30.407,arrow_simon_vert,2021.1.2,Win32,59.46717412,,,,,,,,,,,,,,,,,,,,,right,1,1.8186,17,TRUE,FALSE,4,0,16,1,1,,,,,,,
,,,,,,1,1.913156653,#f3af84,"[""0"",""0.25""]",down_orange.png,down,,,,,,,,left,left_blue.png,down_orange.png,down,right,up,574cca765e5491000f3c89e0,2021-09-11_14h48.30.407,arrow_simon_vert,2021.1.2,Win32,59.46717412,,,,,,,,,,,,,,,,,,,,,down,1,2.0182,18,TRUE,FALSE,4,1,17,3,1,,,,,,,
,,,,,,0,1.971816673,#a3d0fb,"[""-0.25"",""0""]",right_blue.png,right,,,,,,,,right,right_blue.png,up_orange.png,up,left,down,574cca765e5491000f3c89e0,2021-09-11_14h48.30.407,arrow_simon_vert,2021.1.2,Win32,59.46717412,,,,,,,,,,,,,,,,,,,,,right,1,1.5346,19,FALSE,FALSE,4,2,18,0,1,,,,,,,
,,,,,,0,1.540858881,#f3af84,"[""0"",""0.25""]",up_orange.png,up,,,,,,,,right,right_blue.png,up_orange.png,up,right,up,574cca765e5491000f3c89e0,2021-09-11_14h48.30.407,arrow_simon_vert,2021.1.2,Win32,59.46717412,,,,,,,,,,,,,,,,,,,,,up,1,1.1697,20,FALSE,TRUE,4,3,19,1,1,,,,,,,
,,,,,,0,1.699686748,#a3d0fb,"[""-0.25"",""0""]",right_blue.png,right,,,,,,,,right,right_blue.png,up_orange.png,up,left,down,574cca765e5491000f3c89e0,2021-09-11_14h48.30.407,arrow_simon_vert,2021.1.2,Win32,59.46717412,,,,,,,,,,,,,,,,,,,,,right,1,1.276,21,FALSE,TRUE,5,0,20,0,1,,,,,,,
,,,,,,0,2.340286248,#f3af84,"[""0"",""-0.25""]",up_orange.png,up,,,,,,,,right,right_blue.png,up_orange.png,up,left,down,574cca765e5491000f3c89e0,2021-09-11_14h48.30.407,arrow_simon_vert,2021.1.2,Win32,59.46717412,,,,,,,,,,,,,,,,,,,,,up,1,1.9386,22,TRUE,FALSE,5,1,21,0,1,,,,,,,
,,,,,,0,1.879522959,#a3d0fb,"[""0.25"",""0""]",right_blue.png,right,,,,,,,,right,right_blue.png,up_orange.png,up,right,up,574cca765e5491000f3c89e0,2021-09-11_14h48.30.407,arrow_simon_vert,2021.1.2,Win32,59.46717412,,,,,,,,,,,,,,,,,,,,,right,1,1.2686,23,FALSE,TRUE,5,2,22,1,1,,,,,,,
,,,,,,0,1.632464799,#f3af84,"[""0"",""0.25""]",down_orange.png,down,,,,,,,,left,left_blue.png,down_orange.png,down,right,up,574cca765e5491000f3c89e0,2021-09-11_14h48.30.407,arrow_simon_vert,2021.1.2,Win32,59.46717412,,,,,,,,,,,,,,,,,,,,,down,1,1.3528,24,FALSE,TRUE,5,3,23,3,1,,,,,,,
,,,,,,0,1.891113372,#a3d0fb,"[""0.25"",""0""]",left_blue.png,left,,,,,,,,left,left_blue.png,down_orange.png,down,right,up,574cca765e5491000f3c89e0,2021-09-11_14h48.30.407,arrow_simon_vert,2021.1.2,Win32,59.46717412,,,,,,,,,,,,,,,,,,,,,left,1,1.4361,25,FALSE,FALSE,6,0,24,3,1,,,,,,,
,,,,,,0,2.115756552,#f3af84,"[""0"",""0.25""]",down_orange.png,down,,,,,,,,left,left_blue.png,down_orange.png,down,right,up,574cca765e5491000f3c89e0,2021-09-11_14h48.30.407,arrow_simon_vert,2021.1.2,Win32,59.46717412,,,,,,,,,,,,,,,,,,,,,down,1,1.7899,26,TRUE,FALSE,6,1,25,3,1,,,,,,,
,,,,,,0,1.658495277,#a3d0fb,"[""0.25"",""0""]",right_blue.png,right,,,,,,,,right,right_blue.png,up_orange.png,up,right,up,574cca765e5491000f3c89e0,2021-09-11_14h48.30.407,arrow_simon_vert,2021.1.2,Win32,59.46717412,,,,,,,,,,,,,,,,,,,,,right,1,1.1618,27,FALSE,TRUE,6,2,26,1,1,,,,,,,
,,,,,,0,2.025983827,#f3af84,"[""0"",""-0.25""]",down_orange.png,down,,,,,,,,left,left_blue.png,down_orange.png,down,left,down,574cca765e5491000f3c89e0,2021-09-11_14h48.30.407,arrow_simon_vert,2021.1.2,Win32,59.46717412,,,,,,,,,,,,,,,,,,,,,down,1,1.6593,28,TRUE,FALSE,6,3,27,2,1,,,,,,,
,,,,,,1,2.237036182,#a3d0fb,"[""0.25"",""0""]",left_blue.png,left,,,,,,,,left,left_blue.png,down_orange.png,down,right,up,574cca765e5491000f3c89e0,2021-09-11_14h48.30.407,arrow_simon_vert,2021.1.2,Win32,59.46717412,,,,,,,,,,,,,,,,,,,,,right,0,1.5419,29,FALSE,FALSE,7,0,28,3,1,,,,,,,
,,,,,,1,1.521452227,#f3af84,"[""0"",""-0.25""]",up_orange.png,up,,,,,,,,right,right_blue.png,up_orange.png,up,left,down,574cca765e5491000f3c89e0,2021-09-11_14h48.30.407,arrow_simon_vert,2021.1.2,Win32,59.46717412,,,,,,,,,,,,,,,,,,,,,up,1,1.2039,30,FALSE,TRUE,7,1,29,0,1,,,,,,,
,,,,,,1,1.51202111,#a3d0fb,"[""-0.25"",""0""]",right_blue.png,right,,,,,,,,right,right_blue.png,up_orange.png,up,left,down,574cca765e5491000f3c89e0,2021-09-11_14h48.30.407,arrow_simon_vert,2021.1.2,Win32,59.46717412,,,,,,,,,,,,,,,,,,,,,right,1,1.242,31,FALSE,TRUE,7,2,30,0,1,,,,,,,
,,,,,,1,2.277296126,#f3af84,"[""0"",""-0.25""]",up_orange.png,up,,,,,,,,right,right_blue.png,up_orange.png,up,left,down,574cca765e5491000f3c89e0,2021-09-11_14h48.30.407,arrow_simon_vert,2021.1.2,Win32,59.46717412,,,,,,,,,,,,,,,,,,,,,up,1,1.8748,32,TRUE,FALSE,7,3,31,0,1,,,,,,,
,,,,,,1,1.787272436,#a3d0fb,"[""-0.25"",""0""]",left_blue.png,left,,,,,,,,left,left_blue.png,down_orange.png,down,left,down,574cca765e5491000f3c89e0,2021-09-11_14h48.30.407,arrow_simon_vert,2021.1.2,Win32,59.46717412,,,,,,,,,,,,,,,,,,,,,left,1,1.2064,33,FALSE,TRUE,8,0,32,2,1,,,,,,,
,,,,,,1,2.208556558,#f3af84,"[""0"",""0.25""]",down_orange.png,down,,,,,,,,left,left_blue.png,down_orange.png,down,right,up,574cca765e5491000f3c89e0,2021-09-11_14h48.30.407,arrow_simon_vert,2021.1.2,Win32,59.46717412,,,,,,,,,,,,,,,,,,,,,down,1,1.8031,34,TRUE,FALSE,8,1,33,3,1,,,,,,,
,,,,,,1,2.44351972,#a3d0fb,"[""-0.25"",""0""]",left_blue.png,left,,,,,,,,left,left_blue.png,down_orange.png,down,left,down,574cca765e5491000f3c89e0,2021-09-11_14h48.30.407,arrow_simon_vert,2021.1.2,Win32,59.46717412,,,,,,,,,,,,,,,,,,,,,left,1,1.976,35,TRUE,FALSE,8,2,34,2,1,,,,,,,
,,,,,,1,2.373219186,#f3af84,"[""0"",""-0.25""]",down_orange.png,down,,,,,,,,left,left_blue.png,down_orange.png,down,left,down,574cca765e5491000f3c89e0,2021-09-11_14h48.30.407,arrow_simon_vert,2021.1.2,Win32,59.46717412,,,,,,,,,,,,,,,,,,,,,down,1,2.036,36,TRUE,FALSE,8,3,35,2,1,,,,,,,
,,,,,,1,2.446801421,#a3d0fb,"[""-0.25"",""0""]",right_blue.png,right,,,,,,,,right,right_blue.png,up_orange.png,up,left,down,574cca765e5491000f3c89e0,2021-09-11_14h48.30.407,arrow_simon_vert,2021.1.2,Win32,59.46717412,,,,,,,,,,,,,,,,,,,,,right,1,1.9396,37,TRUE,FALSE,9,0,36,0,1,,,,,,,
,,,,,,1,2.275618,#f3af84,"[""0"",""-0.25""]",down_orange.png,down,,,,,,,,left,left_blue.png,down_orange.png,down,left,down,574cca765e5491000f3c89e0,2021-09-11_14h48.30.407,arrow_simon_vert,2021.1.2,Win32,59.46717412,,,,,,,,,,,,,,,,,,,,,down,1,1.8551,38,TRUE,FALSE,9,1,37,2,1,,,,,,,
,,,,,,1,2.413637135,#a3d0fb,"[""-0.25"",""0""]",right_blue.png,right,,,,,,,,right,right_blue.png,up_orange.png,up,left,down,574cca765e5491000f3c89e0,2021-09-11_14h48.30.407,arrow_simon_vert,2021.1.2,Win32,59.46717412,,,,,,,,,,,,,,,,,,,,,right,1,1.8978,39,TRUE,FALSE,9,2,38,0,1,,,,,,,
,,,,,,1,2.326978699,#f3af84,"[""0"",""-0.25""]",down_orange.png,down,,,,,,,,left,left_blue.png,down_orange.png,down,left,down,574cca765e5491000f3c89e0,2021-09-11_14h48.30.407,arrow_simon_vert,2021.1.2,Win32,59.46717412,,,,,,,,,,,,,,,,,,,,,down,1,2.0856,40,TRUE,FALSE,9,3,39,2,1,,,,,,,
,,,,,,1,2.330697572,#a3d0fb,"[""0.25"",""0""]",left_blue.png,left,,,,,,,,left,left_blue.png,down_orange.png,down,right,up,574cca765e5491000f3c89e0,2021-09-11_14h48.30.407,arrow_simon_vert,2021.1.2,Win32,59.46717412,,,,,,,,,,,,,,,,,,,,,right,0,1.708,41,TRUE,FALSE,10,0,40,3,1,,,,,,,
,,,,,,1,2.094742844,#f3af84,"[""0"",""-0.25""]",down_orange.png,down,,,,,,,,left,left_blue.png,down_orange.png,down,left,down,574cca765e5491000f3c89e0,2021-09-11_14h48.30.407,arrow_simon_vert,2021.1.2,Win32,59.46717412,,,,,,,,,,,,,,,,,,,,,down,1,1.7187,42,TRUE,FALSE,10,1,41,2,1,,,,,,,
,,,,,,1,2.463662496,#a3d0fb,"[""0.25"",""0""]",right_blue.png,right,,,,,,,,right,right_blue.png,up_orange.png,up,right,up,574cca765e5491000f3c89e0,2021-09-11_14h48.30.407,arrow_simon_vert,2021.1.2,Win32,59.46717412,,,,,,,,,,,,,,,,,,,,,right,1,2.018,43,TRUE,FALSE,10,2,42,1,1,,,,,,,
,,,,,,1,2.452578603,#f3af84,"[""0"",""0.25""]",up_orange.png,up,,,,,,,,right,right_blue.png,up_orange.png,up,right,up,574cca765e5491000f3c89e0,2021-09-11_14h48.30.407,arrow_simon_vert,2021.1.2,Win32,59.46717412,,,,,,,,,,,,,,,,,,,,,up,1,1.9007,44,TRUE,FALSE,10,3,43,1,1,,,,,,,
,,,,,,0,2.123823228,#a3d0fb,"[""0.25"",""0""]",right_blue.png,right,,,,,,,,right,right_blue.png,up_orange.png,up,right,up,574cca765e5491000f3c89e0,2021-09-11_14h48.30.407,arrow_simon_vert,2021.1.2,Win32,59.46717412,,,,,,,,,,,,,,,,,,,,,right,1,1.5189,45,FALSE,FALSE,11,0,44,1,1,,,,,,,
,,,,,,0,2.338175295,#f3af84,"[""0"",""-0.25""]",down_orange.png,down,,,,,,,,left,left_blue.png,down_orange.png,down,left,down,574cca765e5491000f3c89e0,2021-09-11_14h48.30.407,arrow_simon_vert,2021.1.2,Win32,59.46717412,,,,,,,,,,,,,,,,,,,,,down,1,1.7291,46,TRUE,FALSE,11,1,45,2,1,,,,,,,
,,,,,,0,1.633441193,#a3d0fb,"[""-0.25"",""0""]",right_blue.png,right,,,,,,,,right,right_blue.png,up_orange.png,up,left,down,574cca765e5491000f3c89e0,2021-09-11_14h48.30.407,arrow_simon_vert,2021.1.2,Win32,59.46717412,,,,,,,,,,,,,,,,,,,,,right,1,1.5073,47,FALSE,FALSE,11,2,46,0,1,,,,,,,
,,,,,,0,1.778371573,#f3af84,"[""0"",""0.25""]",down_orange.png,down,,,,,,,,left,left_blue.png,down_orange.png,down,right,up,574cca765e5491000f3c89e0,2021-09-11_14h48.30.407,arrow_simon_vert,2021.1.2,Win32,59.46717412,,,,,,,,,,,,,,,,,,,,,down,1,1.8734,48,TRUE,FALSE,11,3,47,3,1,,,,,,,
,,,,,,0,2.386028023,#a3d0fb,"[""-0.25"",""0""]",left_blue.png,left,,,,,,,,left,left_blue.png,down_orange.png,down,left,down,574cca765e5491000f3c89e0,2021-09-11_14h48.30.407,arrow_simon_vert,2021.1.2,Win32,59.46717412,,,,,,,,,,,,,,,,,,,,,left,1,1.8252,49,TRUE,FALSE,12,0,48,2,1,,,,,,,
,,,,,,0,2.249491183,#f3af84,"[""0"",""-0.25""]",down_orange.png,down,,,,,,,,left,left_blue.png,down_orange.png,down,left,down,574cca765e5491000f3c89e0,2021-09-11_14h48.30.407,arrow_simon_vert,2021.1.2,Win32,59.46717412,,,,,,,,,,,,,,,,,,,,,down,1,1.82,50,TRUE,FALSE,12,1,49,2,1,,,,,,,
,,,,,,0,2.456200487,#a3d0fb,"[""-0.25"",""0""]",left_blue.png,left,,,,,,,,left,left_blue.png,down_orange.png,down,left,down,574cca765e5491000f3c89e0,2021-09-11_14h48.30.407,arrow_simon_vert,2021.1.2,Win32,59.46717412,,,,,,,,,,,,,,,,,,,,,left,1,1.8853,51,TRUE,FALSE,12,2,50,2,1,,,,,,,
,,,,,,0,2.456690788,#f3af84,"[""0"",""-0.25""]",up_orange.png,up,,,,,,,,right,right_blue.png,up_orange.png,up,left,down,574cca765e5491000f3c89e0,2021-09-11_14h48.30.407,arrow_simon_vert,2021.1.2,Win32,59.46717412,,,,,,,,,,,,,,,,,,,,,up,1,2.1185,52,TRUE,FALSE,12,3,51,0,1,,,,,,,
,,,,,,0,1.623732579,#a3d0fb,"[""-0.25"",""0""]",right_blue.png,right,,,,,,,,right,right_blue.png,up_orange.png,up,left,down,574cca765e5491000f3c89e0,2021-09-11_14h48.30.407,arrow_simon_vert,2021.1.2,Win32,59.46717412,,,,,,,,,,,,,,,,,,,,,right,1,1.1856,53,FALSE,TRUE,13,0,52,0,1,,,,,,,
,,,,,,0,1.709515325,#f3af84,"[""0"",""0.25""]",up_orange.png,up,,,,,,,,right,right_blue.png,up_orange.png,up,right,up,574cca765e5491000f3c89e0,2021-09-11_14h48.30.407,arrow_simon_vert,2021.1.2,Win32,59.46717412,,,,,,,,,,,,,,,,,,,,,up,1,1.2933,54,FALSE,TRUE,13,1,53,1,1,,,,,,,
,,,,,,0,2.069289602,#a3d0fb,"[""0.25"",""0""]",right_blue.png,right,,,,,,,,right,right_blue.png,up_orange.png,up,right,up,574cca765e5491000f3c89e0,2021-09-11_14h48.30.407,arrow_simon_vert,2021.1.2,Win32,59.46717412,,,,,,,,,,,,,,,,,,,,,right,1,1.4867,55,FALSE,FALSE,13,2,54,1,1,,,,,,,
,,,,,,0,1.704659137,#f3af84,"[""0"",""0.25""]",down_orange.png,down,,,,,,,,left,left_blue.png,down_orange.png,down,right,up,574cca765e5491000f3c89e0,2021-09-11_14h48.30.407,arrow_simon_vert,2021.1.2,Win32,59.46717412,,,,,,,,,,,,,,,,,,,,,down,1,1.3021,56,FALSE,TRUE,13,3,55,3,1,,,,,,,
,,,,,,0,2.16923763,#a3d0fb,"[""-0.25"",""0""]",left_blue.png,left,,,,,,,,left,left_blue.png,down_orange.png,down,left,down,574cca765e5491000f3c89e0,2021-09-11_14h48.30.407,arrow_simon_vert,2021.1.2,Win32,59.46717412,,,,,,,,,,,,,,,,,,,,,left,1,1.6519,57,TRUE,FALSE,14,0,56,2,1,,,,,,,
,,,,,,0,2.134780925,#f3af84,"[""0"",""0.25""]",down_orange.png,down,,,,,,,,left,left_blue.png,down_orange.png,down,right,up,574cca765e5491000f3c89e0,2021-09-11_14h48.30.407,arrow_simon_vert,2021.1.2,Win32,59.46717412,,,,,,,,,,,,,,,,,,,,,down,1,1.7701,58,TRUE,FALSE,14,1,57,3,1,,,,,,,
,,,,,,0,2.118613218,#a3d0fb,"[""0.25"",""0""]",left_blue.png,left,,,,,,,,left,left_blue.png,down_orange.png,down,right,up,574cca765e5491000f3c89e0,2021-09-11_14h48.30.407,arrow_simon_vert,2021.1.2,Win32,59.46717412,,,,,,,,,,,,,,,,,,,,,left,1,1.6679,59,TRUE,FALSE,14,2,58,3,1,,,,,,,
,,,,,,0,2.066893343,#f3af84,"[""0"",""-0.25""]",down_orange.png,down,,,,,,,,left,left_blue.png,down_orange.png,down,left,down,574cca765e5491000f3c89e0,2021-09-11_14h48.30.407,arrow_simon_vert,2021.1.2,Win32,59.46717412,,,,,,,,,,,,,,,,,,,,,down,1,1.6177,60,TRUE,FALSE,14,3,59,2,1,,,,,,,
,,,,,,,,,,,,,,,,,,,,,,,,,574cca765e5491000f3c89e0,2021-09-11_14h48.30.407,arrow_simon_vert,2021.1.2,Win32,59.46717412,,,,,,,,,,,,,,,,,,,,,,,,,,,,,,,,space,5.4208,2,0,2,0,1
,,,,,,0,2.161676575,#a3d0fb,"[""-0.25"",""0""]",right_blue.png,right,,,,,,,,right,right_blue.png,up_orange.png,up,left,down,574cca765e5491000f3c89e0,2021-09-11_14h48.30.407,arrow_simon_vert,2021.1.2,Win32,59.46717412,,,,,,,,,,,,,,,,,,,,,right,1,1.8387,1,TRUE,FALSE,0,0,0,0,1,,,,,,,
,,,,,,0,1.539349652,#f3af84,"[""0"",""-0.25""]",down_orange.png,down,,,,,,,,left,left_blue.png,down_orange.png,down,left,down,574cca765e5491000f3c89e0,2021-09-11_14h48.30.407,arrow_simon_vert,2021.1.2,Win32,59.46717412,,,,,,,,,,,,,,,,,,,,,down,1,1.2069,2,FALSE,TRUE,0,1,1,2,1,,,,,,,
,,,,,,0,1.718358906,#a3d0fb,"[""0.25"",""0""]",left_blue.png,left,,,,,,,,left,left_blue.png,down_orange.png,down,right,up,574cca765e5491000f3c89e0,2021-09-11_14h48.30.407,arrow_simon_vert,2021.1.2,Win32,59.46717412,,,,,,,,,,,,,,,,,,,,,left,1,1.2827,3,FALSE,TRUE,0,2,2,3,1,,,,,,,
,,,,,,0,2.135718663,#f3af84,"[""0"",""0.25""]",down_orange.png,down,,,,,,,,left,left_blue.png,down_orange.png,down,right,up,574cca765e5491000f3c89e0,2021-09-11_14h48.30.407,arrow_simon_vert,2021.1.2,Win32,59.46717412,,,,,,,,,,,,,,,,,,,,,down,1,1.6839,4,TRUE,FALSE,0,3,3,3,1,,,,,,,
,,,,,,0,1.784627091,#a3d0fb,"[""-0.25"",""0""]",right_blue.png,right,,,,,,,,right,right_blue.png,up_orange.png,up,left,down,574cca765e5491000f3c89e0,2021-09-11_14h48.30.407,arrow_simon_vert,2021.1.2,Win32,59.46717412,,,,,,,,,,,,,,,,,,,,,right,1,1.5397,5,FALSE,FALSE,1,0,4,0,1,,,,,,,
,,,,,,0,2.339170534,#f3af84,"[""0"",""-0.25""]",up_orange.png,up,,,,,,,,right,right_blue.png,up_orange.png,up,left,down,574cca765e5491000f3c89e0,2021-09-11_14h48.30.407,arrow_simon_vert,2021.1.2,Win32,59.46717412,,,,,,,,,,,,,,,,,,,,,up,1,2.1007,6,TRUE,FALSE,1,1,5,0,1,,,,,,,
,,,,,,0,1.990047279,#a3d0fb,"[""-0.25"",""0""]",right_blue.png,right,,,,,,,,right,right_blue.png,up_orange.png,up,left,down,574cca765e5491000f3c89e0,2021-09-11_14h48.30.407,arrow_simon_vert,2021.1.2,Win32,59.46717412,,,,,,,,,,,,,,,,,,,,,right,1,2.0859,7,TRUE,FALSE,1,2,6,0,1,,,,,,,
,,,,,,0,2.372726786,#f3af84,"[""0"",""0.25""]",up_orange.png,up,,,,,,,,right,right_blue.png,up_orange.png,up,right,up,574cca765e5491000f3c89e0,2021-09-11_14h48.30.407,arrow_simon_vert,2021.1.2,Win32,59.46717412,,,,,,,,,,,,,,,,,,,,,up,1,3.6541,8,TRUE,FALSE,1,3,7,1,1,,,,,,,
,,,,,,0,2.287263046,#a3d0fb,"[""0.25"",""0""]",left_blue.png,left,,,,,,,,left,left_blue.png,down_orange.png,down,right,up,574cca765e5491000f3c89e0,2021-09-11_14h48.30.407,arrow_simon_vert,2021.1.2,Win32,59.46717412,,,,,,,,,,,,,,,,,,,,,left,1,1.901,9,TRUE,FALSE,2,0,8,3,1,,,,,,,
,,,,,,0,1.593056509,#f3af84,"[""0"",""-0.25""]",up_orange.png,up,,,,,,,,right,right_blue.png,up_orange.png,up,left,down,574cca765e5491000f3c89e0,2021-09-11_14h48.30.407,arrow_simon_vert,2021.1.2,Win32,59.46717412,,,,,,,,,,,,,,,,,,,,,up,1,1.2357,10,FALSE,TRUE,2,1,9,0,1,,,,,,,
,,,,,,0,1.617674835,#a3d0fb,"[""-0.25"",""0""]",right_blue.png,right,,,,,,,,right,right_blue.png,up_orange.png,up,left,down,574cca765e5491000f3c89e0,2021-09-11_14h48.30.407,arrow_simon_vert,2021.1.2,Win32,59.46717412,,,,,,,,,,,,,,,,,,,,,right,1,1.251,11,FALSE,TRUE,2,2,10,0,1,,,,,,,
,,,,,,0,2.276772193,#f3af84,"[""0"",""0.25""]",up_orange.png,up,,,,,,,,right,right_blue.png,up_orange.png,up,right,up,574cca765e5491000f3c89e0,2021-09-11_14h48.30.407,arrow_simon_vert,2021.1.2,Win32,59.46717412,,,,,,,,,,,,,,,,,,,,,up,1,1.9027,12,TRUE,FALSE,2,3,11,1,1,,,,,,,
,,,,,,0,1.972478578,#a3d0fb,"[""0.25"",""0""]",right_blue.png,right,,,,,,,,right,right_blue.png,up_orange.png,up,right,up,574cca765e5491000f3c89e0,2021-09-11_14h48.30.407,arrow_simon_vert,2021.1.2,Win32,59.46717412,,,,,,,,,,,,,,,,,,,,,right,1,1.5183,13,FALSE,FALSE,3,0,12,1,1,,,,,,,
,,,,,,0,2.176305846,#f3af84,"[""0"",""0.25""]",up_orange.png,up,,,,,,,,right,right_blue.png,up_orange.png,up,right,up,574cca765e5491000f3c89e0,2021-09-11_14h48.30.407,arrow_simon_vert,2021.1.2,Win32,59.46717412,,,,,,,,,,,,,,,,,,,,,up,1,1.7962,14,TRUE,FALSE,3,1,13,1,1,,,,,,,
,,,,,,0,2.349394363,#a3d0fb,"[""0.25"",""0""]",right_blue.png,right,,,,,,,,right,right_blue.png,up_orange.png,up,right,up,574cca765e5491000f3c89e0,2021-09-11_14h48.30.407,arrow_simon_vert,2021.1.2,Win32,59.46717412,,,,,,,,,,,,,,,,,,,,,right,1,1.8016,15,TRUE,FALSE,3,2,14,1,1,,,,,,,
