instruct_resp_simon.keys,instruct_resp_simon.corr,instruct_resp_simon.rt,trial_resp_simon.keys,trial_resp_simon.corr,trial_resp_simon.rt,kerr,target_onset,target_color,target_pos,target_file,target_resp,trials_train_simon.thisRepN,trials_train_simon.thisTrialN,trials_train_simon.thisN,trials_train_simon.thisIndex,trials_train_simon.ran,odd_target_pos,even_target_pos,odd_target_resp,odd_target_file,even_target_file,even_target_resp,odd_target_side,even_target_side,participant,date,expName,psychopyVersion,OS,frameRate,train_block_note_resp.keys,train_block_note_resp.rt,blocks_train.thisRepN,blocks_train.thisTrialN,blocks_train.thisN,blocks_train.thisIndex,blocks_train.ran,instruct_resp_timing.keys,instruct_resp_timing.corr,instruct_resp_timing.rt,trial_resp_timing.keys,trial_resp_timing.rt,trials_train_timing.thisRepN,trials_train_timing.thisTrialN,trials_train_timing.thisN,trials_train_timing.thisIndex,trials_train_timing.ran,instruct_resp.keys,instruct_resp.corr,instruct_resp.rt,trial_resp.keys,trial_resp.corr,trial_resp.rt,trial_num,too_slow,too_soon,trials.thisRepN,trials.thisTrialN,trials.thisN,trials.thisIndex,trials.ran,block_note_resp.keys,block_note_resp.rt,blocks.thisRepN,blocks.thisTrialN,blocks.thisN,blocks.thisIndex,blocks.ran
space,0,202.6726,right,1,1.3277,0,0.404987266,#a3d0fb,"[""0.25"",""0""]",right_blue.png,right,0,0,0,1,1,,,right,right_blue.png,up_orange.png,up,right,up,57bf14513c449a000189c89a,2021-09-11_16h45.03.508,arrow_simon_vert,2021.1.2,Win32,60.11783095,,,,,,,,,,,,,,,,,,,,,,,,,,,,,,,,,,,,,,
,,,down,1,1.376,0,0.006444807,#f3af84,"[""0"",""0.25""]",down_orange.png,down,0,1,1,3,1,,,left,left_blue.png,down_orange.png,down,right,up,57bf14513c449a000189c89a,2021-09-11_16h45.03.508,arrow_simon_vert,2021.1.2,Win32,60.11783095,,,,,,,,,,,,,,,,,,,,,,,,,,,,,,,,,,,,,,
,,,right,1,1.2218,0,0.405828904,#a3d0fb,"[""0.25"",""0""]",right_blue.png,right,0,2,2,1,1,,,right,right_blue.png,up_orange.png,up,right,up,57bf14513c449a000189c89a,2021-09-11_16h45.03.508,arrow_simon_vert,2021.1.2,Win32,60.11783095,,,,,,,,,,,,,,,,,,,,,,,,,,,,,,,,,,,,,,
,,,up,1,1.9726,0,0.996403406,#f3af84,"[""0"",""-0.25""]",up_orange.png,up,0,3,3,0,1,,,right,right_blue.png,up_orange.png,up,left,down,57bf14513c449a000189c89a,2021-09-11_16h45.03.508,arrow_simon_vert,2021.1.2,Win32,60.11783095,,,,,,,,,,,,,,,,,,,,,,,,,,,,,,,,,,,,,,
,,,left,1,2.1865,0,0.790261488,#a3d0fb,"[""0.25"",""0""]",left_blue.png,left,1,0,4,3,1,,,left,left_blue.png,down_orange.png,down,right,up,57bf14513c449a000189c89a,2021-09-11_16h45.03.508,arrow_simon_vert,2021.1.2,Win32,60.11783095,,,,,,,,,,,,,,,,,,,,,,,,,,,,,,,,,,,,,,
,,,down,1,1.0338,0,0.217786581,#f3af84,"[""0"",""-0.25""]",down_orange.png,down,1,1,5,2,1,,,left,left_blue.png,down_orange.png,down,left,down,57bf14513c449a000189c89a,2021-09-11_16h45.03.508,arrow_simon_vert,2021.1.2,Win32,60.11783095,,,,,,,,,,,,,,,,,,,,,,,,,,,,,,,,,,,,,,
,,,left,1,1.1952,0,0.408455168,#a3d0fb,"[""-0.25"",""0""]",left_blue.png,left,1,2,6,2,1,,,left,left_blue.png,down_orange.png,down,left,down,57bf14513c449a000189c89a,2021-09-11_16h45.03.508,arrow_simon_vert,2021.1.2,Win32,60.11783095,,,,,,,,,,,,,,,,,,,,,,,,,,,,,,,,,,,,,,
,,,up,1,1.7853,0,0.881432319,#f3af84,"[""0"",""-0.25""]",up_orange.png,up,1,3,7,0,1,,,right,right_blue.png,up_orange.png,up,left,down,57bf14513c449a000189c89a,2021-09-11_16h45.03.508,arrow_simon_vert,2021.1.2,Win32,60.11783095,,,,,,,,,,,,,,,,,,,,,,,,,,,,,,,,,,,,,,
,,,left,1,1.6714,0,0.816396175,#a3d0fb,"[""-0.25"",""0""]",left_blue.png,left,2,0,8,2,1,,,left,left_blue.png,down_orange.png,down,left,down,57bf14513c449a000189c89a,2021-09-11_16h45.03.508,arrow_simon_vert,2021.1.2,Win32,60.11783095,,,,,,,,,,,,,,,,,,,,,,,,,,,,,,,,,,,,,,
,,,up,1,1.4506,0,0.587287116,#f3af84,"[""0"",""-0.25""]",up_orange.png,up,2,1,9,0,1,,,right,right_blue.png,up_orange.png,up,left,down,57bf14513c449a000189c89a,2021-09-11_16h45.03.508,arrow_simon_vert,2021.1.2,Win32,60.11783095,,,,,,,,,,,,,,,,,,,,,,,,,,,,,,,,,,,,,,
,,,left,1,0.9037,0,0.128759946,#a3d0fb,"[""0.25"",""0""]",left_blue.png,left,2,2,10,3,1,,,left,left_blue.png,down_orange.png,down,right,up,57bf14513c449a000189c89a,2021-09-11_16h45.03.508,arrow_simon_vert,2021.1.2,Win32,60.11783095,,,,,,,,,,,,,,,,,,,,,,,,,,,,,,,,,,,,,,
,,,down,1,1.4067,0,0.550396043,#f3af84,"[""0"",""-0.25""]",down_orange.png,down,2,3,11,2,1,,,left,left_blue.png,down_orange.png,down,left,down,57bf14513c449a000189c89a,2021-09-11_16h45.03.508,arrow_simon_vert,2021.1.2,Win32,60.11783095,,,,,,,,,,,,,,,,,,,,,,,,,,,,,,,,,,,,,,
,,,left,1,1.405,0,0.835985663,#a3d0fb,"[""-0.25"",""0""]",left_blue.png,left,3,0,12,2,1,,,left,left_blue.png,down_orange.png,down,left,down,57bf14513c449a000189c89a,2021-09-11_16h45.03.508,arrow_simon_vert,2021.1.2,Win32,60.11783095,,,,,,,,,,,,,,,,,,,,,,,,,,,,,,,,,,,,,,
,,,down,1,1.6038,0,0.781949601,#f3af84,"[""0"",""0.25""]",down_orange.png,down,3,1,13,3,1,,,left,left_blue.png,down_orange.png,down,right,up,57bf14513c449a000189c89a,2021-09-11_16h45.03.508,arrow_simon_vert,2021.1.2,Win32,60.11783095,,,,,,,,,,,,,,,,,,,,,,,,,,,,,,,,,,,,,,
,,,left,1,1.5428,0,0.549703721,#a3d0fb,"[""-0.25"",""0""]",left_blue.png,left,3,2,14,2,1,,,left,left_blue.png,down_orange.png,down,left,down,57bf14513c449a000189c89a,2021-09-11_16h45.03.508,arrow_simon_vert,2021.1.2,Win32,60.11783095,,,,,,,,,,,,,,,,,,,,,,,,,,,,,,,,,,,,,,
,,,up,1,1.3559,0,0.43444108,#f3af84,"[""0"",""-0.25""]",up_orange.png,up,3,3,15,0,1,,,right,right_blue.png,up_orange.png,up,left,down,57bf14513c449a000189c89a,2021-09-11_16h45.03.508,arrow_simon_vert,2021.1.2,Win32,60.11783095,,,,,,,,,,,,,,,,,,,,,,,,,,,,,,,,,,,,,,
,,,right,1,0.9956,0,0.237076152,#a3d0fb,"[""0.25"",""0""]",right_blue.png,right,4,0,16,1,1,,,right,right_blue.png,up_orange.png,up,right,up,57bf14513c449a000189c89a,2021-09-11_16h45.03.508,arrow_simon_vert,2021.1.2,Win32,60.11783095,,,,,,,,,,,,,,,,,,,,,,,,,,,,,,,,,,,,,,
,,,up,1,1.3173,0,0.47926731,#f3af84,"[""0"",""-0.25""]",up_orange.png,up,4,1,17,0,1,,,right,right_blue.png,up_orange.png,up,left,down,57bf14513c449a000189c89a,2021-09-11_16h45.03.508,arrow_simon_vert,2021.1.2,Win32,60.11783095,,,,,,,,,,,,,,,,,,,,,,,,,,,,,,,,,,,,,,
,,,right,1,1.5993,0,0.816057809,#a3d0fb,"[""-0.25"",""0""]",right_blue.png,right,4,2,18,0,1,,,right,right_blue.png,up_orange.png,up,left,down,57bf14513c449a000189c89a,2021-09-11_16h45.03.508,arrow_simon_vert,2021.1.2,Win32,60.11783095,,,,,,,,,,,,,,,,,,,,,,,,,,,,,,,,,,,,,,
,,,down,1,0.851,0,0.0595418,#f3af84,"[""0"",""-0.25""]",down_orange.png,down,4,3,19,2,1,,,left,left_blue.png,down_orange.png,down,left,down,57bf14513c449a000189c89a,2021-09-11_16h45.03.508,arrow_simon_vert,2021.1.2,Win32,60.11783095,,,,,,,,,,,,,,,,,,,,,,,,,,,,,,,,,,,,,,
,,,left,1,1.7484,0,0.811512971,#a3d0fb,"[""0.25"",""0""]",left_blue.png,left,5,0,20,3,1,,,left,left_blue.png,down_orange.png,down,right,up,57bf14513c449a000189c89a,2021-09-11_16h45.03.508,arrow_simon_vert,2021.1.2,Win32,60.11783095,,,,,,,,,,,,,,,,,,,,,,,,,,,,,,,,,,,,,,
,,,down,1,1.4116,0,0.803798071,#f3af84,"[""0"",""-0.25""]",down_orange.png,down,5,1,21,2,1,,,left,left_blue.png,down_orange.png,down,left,down,57bf14513c449a000189c89a,2021-09-11_16h45.03.508,arrow_simon_vert,2021.1.2,Win32,60.11783095,,,,,,,,,,,,,,,,,,,,,,,,,,,,,,,,,,,,,,
,,,left,1,0.8434,0,0.084270618,#a3d0fb,"[""-0.25"",""0""]",left_blue.png,left,5,2,22,2,1,,,left,left_blue.png,down_orange.png,down,left,down,57bf14513c449a000189c89a,2021-09-11_16h45.03.508,arrow_simon_vert,2021.1.2,Win32,60.11783095,,,,,,,,,,,,,,,,,,,,,,,,,,,,,,,,,,,,,,
,,,down,1,2.1018,0,0.956773144,#f3af84,"[""0"",""0.25""]",down_orange.png,down,5,3,23,3,1,,,left,left_blue.png,down_orange.png,down,right,up,57bf14513c449a000189c89a,2021-09-11_16h45.03.508,arrow_simon_vert,2021.1.2,Win32,60.11783095,,,,,,,,,,,,,,,,,,,,,,,,,,,,,,,,,,,,,,
,,,left,1,1.6205,0,0.85305163,#a3d0fb,"[""-0.25"",""0""]",left_blue.png,left,6,0,24,2,1,,,left,left_blue.png,down_orange.png,down,left,down,57bf14513c449a000189c89a,2021-09-11_16h45.03.508,arrow_simon_vert,2021.1.2,Win32,60.11783095,,,,,,,,,,,,,,,,,,,,,,,,,,,,,,,,,,,,,,
,,,down,1,1.7068,0,0.830923011,#f3af84,"[""0"",""0.25""]",down_orange.png,down,6,1,25,3,1,,,left,left_blue.png,down_orange.png,down,right,up,57bf14513c449a000189c89a,2021-09-11_16h45.03.508,arrow_simon_vert,2021.1.2,Win32,60.11783095,,,,,,,,,,,,,,,,,,,,,,,,,,,,,,,,,,,,,,
,,,right,1,1.3007,0,0.812960536,#a3d0fb,"[""0.25"",""0""]",right_blue.png,right,6,2,26,1,1,,,right,right_blue.png,up_orange.png,up,right,up,57bf14513c449a000189c89a,2021-09-11_16h45.03.508,arrow_simon_vert,2021.1.2,Win32,60.11783095,,,,,,,,,,,,,,,,,,,,,,,,,,,,,,,,,,,,,,
,,,up,1,0.9282,0,0.15776592,#f3af84,"[""0"",""0.25""]",up_orange.png,up,6,3,27,1,1,,,right,right_blue.png,up_orange.png,up,right,up,57bf14513c449a000189c89a,2021-09-11_16h45.03.508,arrow_simon_vert,2021.1.2,Win32,60.11783095,,,,,,,,,,,,,,,,,,,,,,,,,,,,,,,,,,,,,,
,,,right,1,1.6928,0,0.923451682,#a3d0fb,"[""-0.25"",""0""]",right_blue.png,right,7,0,28,0,1,,,right,right_blue.png,up_orange.png,up,left,down,57bf14513c449a000189c89a,2021-09-11_16h45.03.508,arrow_simon_vert,2021.1.2,Win32,60.11783095,,,,,,,,,,,,,,,,,,,,,,,,,,,,,,,,,,,,,,
,,,down,1,1.9328,0,0.26297934,#f3af84,"[""0"",""0.25""]",down_orange.png,down,7,1,29,3,1,,,left,left_blue.png,down_orange.png,down,right,up,57bf14513c449a000189c89a,2021-09-11_16h45.03.508,arrow_simon_vert,2021.1.2,Win32,60.11783095,,,,,,,,,,,,,,,,,,,,,,,,,,,,,,,,,,,,,,
,,,right,1,1.3431,0,0.605822457,#a3d0fb,"[""0.25"",""0""]",right_blue.png,right,7,2,30,1,1,,,right,right_blue.png,up_orange.png,up,right,up,57bf14513c449a000189c89a,2021-09-11_16h45.03.508,arrow_simon_vert,2021.1.2,Win32,60.11783095,,,,,,,,,,,,,,,,,,,,,,,,,,,,,,,,,,,,,,
,,,down,1,1.5176,0,0.693164482,#f3af84,"[""0"",""-0.25""]",down_orange.png,down,7,3,31,2,1,,,left,left_blue.png,down_orange.png,down,left,down,57bf14513c449a000189c89a,2021-09-11_16h45.03.508,arrow_simon_vert,2021.1.2,Win32,60.11783095,,,,,,,,,,,,,,,,,,,,,,,,,,,,,,,,,,,,,,
,,,right,1,1.5346,0,0.850003913,#a3d0fb,"[""0.25"",""0""]",right_blue.png,right,8,0,32,1,1,,,right,right_blue.png,up_orange.png,up,right,up,57bf14513c449a000189c89a,2021-09-11_16h45.03.508,arrow_simon_vert,2021.1.2,Win32,60.11783095,,,,,,,,,,,,,,,,,,,,,,,,,,,,,,,,,,,,,,
,,,up,1,1.2842,0,0.239708459,#f3af84,"[""0"",""-0.25""]",up_orange.png,up,8,1,33,0,1,,,right,right_blue.png,up_orange.png,up,left,down,57bf14513c449a000189c89a,2021-09-11_16h45.03.508,arrow_simon_vert,2021.1.2,Win32,60.11783095,,,,,,,,,,,,,,,,,,,,,,,,,,,,,,,,,,,,,,
,,,left,1,1.7107,0,0.864950576,#a3d0fb,"[""0.25"",""0""]",left_blue.png,left,8,2,34,3,1,,,left,left_blue.png,down_orange.png,down,right,up,57bf14513c449a000189c89a,2021-09-11_16h45.03.508,arrow_simon_vert,2021.1.2,Win32,60.11783095,,,,,,,,,,,,,,,,,,,,,,,,,,,,,,,,,,,,,,
,,,up,1,1.5902,0,0.051966837,#f3af84,"[""0"",""-0.25""]",up_orange.png,up,8,3,35,0,1,,,right,right_blue.png,up_orange.png,up,left,down,57bf14513c449a000189c89a,2021-09-11_16h45.03.508,arrow_simon_vert,2021.1.2,Win32,60.11783095,,,,,,,,,,,,,,,,,,,,,,,,,,,,,,,,,,,,,,
,,,right,1,1.6826,0,0.68202527,#a3d0fb,"[""0.25"",""0""]",right_blue.png,right,9,0,36,1,1,,,right,right_blue.png,up_orange.png,up,right,up,57bf14513c449a000189c89a,2021-09-11_16h45.03.508,arrow_simon_vert,2021.1.2,Win32,60.11783095,,,,,,,,,,,,,,,,,,,,,,,,,,,,,,,,,,,,,,
,,,up,1,1.3827,0,0.213411225,#f3af84,"[""0"",""0.25""]",up_orange.png,up,9,1,37,1,1,,,right,right_blue.png,up_orange.png,up,right,up,57bf14513c449a000189c89a,2021-09-11_16h45.03.508,arrow_simon_vert,2021.1.2,Win32,60.11783095,,,,,,,,,,,,,,,,,,,,,,,,,,,,,,,,,,,,,,
,,,right,1,1.1175,0,0.319763266,#a3d0fb,"[""0.25"",""0""]",right_blue.png,right,9,2,38,1,1,,,right,right_blue.png,up_orange.png,up,right,up,57bf14513c449a000189c89a,2021-09-11_16h45.03.508,arrow_simon_vert,2021.1.2,Win32,60.11783095,,,,,,,,,,,,,,,,,,,,,,,,,,,,,,,,,,,,,,
,,,up,1,1.6727,0,0.909072364,#f3af84,"[""0"",""0.25""]",up_orange.png,up,9,3,39,1,1,,,right,right_blue.png,up_orange.png,up,right,up,57bf14513c449a000189c89a,2021-09-11_16h45.03.508,arrow_simon_vert,2021.1.2,Win32,60.11783095,,,,,,,,,,,,,,,,,,,,,,,,,,,,,,,,,,,,,,
,,,right,1,1.3506,0,0.249724447,#a3d0fb,"[""-0.25"",""0""]",right_blue.png,right,10,0,40,0,1,,,right,right_blue.png,up_orange.png,up,left,down,57bf14513c449a000189c89a,2021-09-11_16h45.03.508,arrow_simon_vert,2021.1.2,Win32,60.11783095,,,,,,,,,,,,,,,,,,,,,,,,,,,,,,,,,,,,,,
,,,up,1,1.4149,0,0.611838393,#f3af84,"[""0"",""0.25""]",up_orange.png,up,10,1,41,1,1,,,right,right_blue.png,up_orange.png,up,right,up,57bf14513c449a000189c89a,2021-09-11_16h45.03.508,arrow_simon_vert,2021.1.2,Win32,60.11783095,,,,,,,,,,,,,,,,,,,,,,,,,,,,,,,,,,,,,,
,,,left,1,1.6008,0,0.725220682,#a3d0fb,"[""0.25"",""0""]",left_blue.png,left,10,2,42,3,1,,,left,left_blue.png,down_orange.png,down,right,up,57bf14513c449a000189c89a,2021-09-11_16h45.03.508,arrow_simon_vert,2021.1.2,Win32,60.11783095,,,,,,,,,,,,,,,,,,,,,,,,,,,,,,,,,,,,,,
,,,up,1,1.5003,0,0.450065766,#f3af84,"[""0"",""-0.25""]",up_orange.png,up,10,3,43,0,1,,,right,right_blue.png,up_orange.png,up,left,down,57bf14513c449a000189c89a,2021-09-11_16h45.03.508,arrow_simon_vert,2021.1.2,Win32,60.11783095,,,,,,,,,,,,,,,,,,,,,,,,,,,,,,,,,,,,,,
,,,right,1,1.4007,0,0.582347219,#a3d0fb,"[""-0.25"",""0""]",right_blue.png,right,11,0,44,0,1,,,right,right_blue.png,up_orange.png,up,left,down,57bf14513c449a000189c89a,2021-09-11_16h45.03.508,arrow_simon_vert,2021.1.2,Win32,60.11783095,,,,,,,,,,,,,,,,,,,,,,,,,,,,,,,,,,,,,,
,,,down,1,0.7504,0,0.002069642,#f3af84,"[""0"",""0.25""]",down_orange.png,down,11,1,45,3,1,,,left,left_blue.png,down_orange.png,down,right,up,57bf14513c449a000189c89a,2021-09-11_16h45.03.508,arrow_simon_vert,2021.1.2,Win32,60.11783095,,,,,,,,,,,,,,,,,,,,,,,,,,,,,,,,,,,,,,
,,,left,1,1.5351,0,0.806597386,#a3d0fb,"[""0.25"",""0""]",left_blue.png,left,11,2,46,3,1,,,left,left_blue.png,down_orange.png,down,right,up,57bf14513c449a000189c89a,2021-09-11_16h45.03.508,arrow_simon_vert,2021.1.2,Win32,60.11783095,,,,,,,,,,,,,,,,,,,,,,,,,,,,,,,,,,,,,,
,,,up,1,0.8898,0,0.012778563,#f3af84,"[""0"",""0.25""]",up_orange.png,up,11,3,47,1,1,,,right,right_blue.png,up_orange.png,up,right,up,57bf14513c449a000189c89a,2021-09-11_16h45.03.508,arrow_simon_vert,2021.1.2,Win32,60.11783095,,,,,,,,,,,,,,,,,,,,,,,,,,,,,,,,,,,,,,
,,,left,1,0.8267,0,0.078510837,#a3d0fb,"[""-0.25"",""0""]",left_blue.png,left,12,0,48,2,1,,,left,left_blue.png,down_orange.png,down,left,down,57bf14513c449a000189c89a,2021-09-11_16h45.03.508,arrow_simon_vert,2021.1.2,Win32,60.11783095,,,,,,,,,,,,,,,,,,,,,,,,,,,,,,,,,,,,,,
,,,down,1,0.8496,0,0.029057155,#f3af84,"[""0"",""-0.25""]",down_orange.png,down,12,1,49,2,1,,,left,left_blue.png,down_orange.png,down,left,down,57bf14513c449a000189c89a,2021-09-11_16h45.03.508,arrow_simon_vert,2021.1.2,Win32,60.11783095,,,,,,,,,,,,,,,,,,,,,,,,,,,,,,,,,,,,,,
,,,right,1,1.3185,0,0.267131968,#a3d0fb,"[""-0.25"",""0""]",right_blue.png,right,12,2,50,0,1,,,right,right_blue.png,up_orange.png,up,left,down,57bf14513c449a000189c89a,2021-09-11_16h45.03.508,arrow_simon_vert,2021.1.2,Win32,60.11783095,,,,,,,,,,,,,,,,,,,,,,,,,,,,,,,,,,,,,,
,,,up,1,1.1087,0,0.52242835,#f3af84,"[""0"",""0.25""]",up_orange.png,up,12,3,51,1,1,,,right,right_blue.png,up_orange.png,up,right,up,57bf14513c449a000189c89a,2021-09-11_16h45.03.508,arrow_simon_vert,2021.1.2,Win32,60.11783095,,,,,,,,,,,,,,,,,,,,,,,,,,,,,,,,,,,,,,
,,,left,1,1.1312,0,0.357557277,#a3d0fb,"[""0.25"",""0""]",left_blue.png,left,13,0,52,3,1,,,left,left_blue.png,down_orange.png,down,right,up,57bf14513c449a000189c89a,2021-09-11_16h45.03.508,arrow_simon_vert,2021.1.2,Win32,60.11783095,,,,,,,,,,,,,,,,,,,,,,,,,,,,,,,,,,,,,,
,,,up,1,1.3024,0,0.378336,#f3af84,"[""0"",""-0.25""]",up_orange.png,up,13,1,53,0,1,,,right,right_blue.png,up_orange.png,up,left,down,57bf14513c449a000189c89a,2021-09-11_16h45.03.508,arrow_simon_vert,2021.1.2,Win32,60.11783095,,,,,,,,,,,,,,,,,,,,,,,,,,,,,,,,,,,,,,
,,,right,1,1.0031,0,0.039906175,#a3d0fb,"[""-0.25"",""0""]",right_blue.png,right,13,2,54,0,1,,,right,right_blue.png,up_orange.png,up,left,down,57bf14513c449a000189c89a,2021-09-11_16h45.03.508,arrow_simon_vert,2021.1.2,Win32,60.11783095,,,,,,,,,,,,,,,,,,,,,,,,,,,,,,,,,,,,,,
,,,down,1,1.8688,0,0.994048934,#f3af84,"[""0"",""0.25""]",down_orange.png,down,13,3,55,3,1,,,left,left_blue.png,down_orange.png,down,right,up,57bf14513c449a000189c89a,2021-09-11_16h45.03.508,arrow_simon_vert,2021.1.2,Win32,60.11783095,,,,,,,,,,,,,,,,,,,,,,,,,,,,,,,,,,,,,,
,,,left,1,1.545,0,0.891496015,#a3d0fb,"[""-0.25"",""0""]",left_blue.png,left,14,0,56,2,1,,,left,left_blue.png,down_orange.png,down,left,down,57bf14513c449a000189c89a,2021-09-11_16h45.03.508,arrow_simon_vert,2021.1.2,Win32,60.11783095,,,,,,,,,,,,,,,,,,,,,,,,,,,,,,,,,,,,,,
,,,down,1,1.833,0,0.827289116,#f3af84,"[""0"",""0.25""]",down_orange.png,down,14,1,57,3,1,,,left,left_blue.png,down_orange.png,down,right,up,57bf14513c449a000189c89a,2021-09-11_16h45.03.508,arrow_simon_vert,2021.1.2,Win32,60.11783095,,,,,,,,,,,,,,,,,,,,,,,,,,,,,,,,,,,,,,
,,,left,1,0.9738,0,0.144602624,#a3d0fb,"[""-0.25"",""0""]",left_blue.png,left,14,2,58,2,1,,,left,left_blue.png,down_orange.png,down,left,down,57bf14513c449a000189c89a,2021-09-11_16h45.03.508,arrow_simon_vert,2021.1.2,Win32,60.11783095,,,,,,,,,,,,,,,,,,,,,,,,,,,,,,,,,,,,,,
,,,up,1,1.1362,0,0.501146628,#f3af84,"[""0"",""0.25""]",up_orange.png,up,14,3,59,1,1,,,right,right_blue.png,up_orange.png,up,right,up,57bf14513c449a000189c89a,2021-09-11_16h45.03.508,arrow_simon_vert,2021.1.2,Win32,60.11783095,,,,,,,,,,,,,,,,,,,,,,,,,,,,,,,,,,,,,,
,,,,,,,,,,,,,,,,,,,,,,,,,57bf14513c449a000189c89a,2021-09-11_16h45.03.508,arrow_simon_vert,2021.1.2,Win32,60.11783095,space,19.469,0,0,0,0,1,,,,,,,,,,,,,,,,,,,,,,,,,,,,,,,
,,,left,1,0.9711,0,0.388346766,#a3d0fb,"[""-0.25"",""0""]",left_blue.png,left,0,0,0,2,1,,,left,left_blue.png,down_orange.png,down,left,down,57bf14513c449a000189c89a,2021-09-11_16h45.03.508,arrow_simon_vert,2021.1.2,Win32,60.11783095,,,,,,,,,,,,,,,,,,,,,,,,,,,,,,,,,,,,,,
,,,up,1,1.3372,0,0.509405533,#f3af84,"[""0"",""-0.25""]",up_orange.png,up,0,1,1,0,1,,,right,right_blue.png,up_orange.png,up,left,down,57bf14513c449a000189c89a,2021-09-11_16h45.03.508,arrow_simon_vert,2021.1.2,Win32,60.11783095,,,,,,,,,,,,,,,,,,,,,,,,,,,,,,,,,,,,,,
,,,right,1,1.0581,0,0.408909389,#a3d0fb,"[""0.25"",""0""]",right_blue.png,right,0,2,2,1,1,,,right,right_blue.png,up_orange.png,up,right,up,57bf14513c449a000189c89a,2021-09-11_16h45.03.508,arrow_simon_vert,2021.1.2,Win32,60.11783095,,,,,,,,,,,,,,,,,,,,,,,,,,,,,,,,,,,,,,
,,,up,1,0.9432,0,0.153388614,#f3af84,"[""0"",""-0.25""]",up_orange.png,up,0,3,3,0,1,,,right,right_blue.png,up_orange.png,up,left,down,57bf14513c449a000189c89a,2021-09-11_16h45.03.508,arrow_simon_vert,2021.1.2,Win32,60.11783095,,,,,,,,,,,,,,,,,,,,,,,,,,,,,,,,,,,,,,
,,,left,1,1.7564,0,0.994659213,#a3d0fb,"[""0.25"",""0""]",left_blue.png,left,1,0,4,3,1,,,left,left_blue.png,down_orange.png,down,right,up,57bf14513c449a000189c89a,2021-09-11_16h45.03.508,arrow_simon_vert,2021.1.2,Win32,60.11783095,,,,,,,,,,,,,,,,,,,,,,,,,,,,,,,,,,,,,,
,,,up,1,1.2904,0,0.616739672,#f3af84,"[""0"",""0.25""]",up_orange.png,up,1,1,5,1,1,,,right,right_blue.png,up_orange.png,up,right,up,57bf14513c449a000189c89a,2021-09-11_16h45.03.508,arrow_simon_vert,2021.1.2,Win32,60.11783095,,,,,,,,,,,,,,,,,,,,,,,,,,,,,,,,,,,,,,
,,,left,1,1.1011,0,0.40285486,#a3d0fb,"[""-0.25"",""0""]",left_blue.png,left,1,2,6,2,1,,,left,left_blue.png,down_orange.png,down,left,down,57bf14513c449a000189c89a,2021-09-11_16h45.03.508,arrow_simon_vert,2021.1.2,Win32,60.11783095,,,,,,,,,,,,,,,,,,,,,,,,,,,,,,,,,,,,,,
,,,down,1,1.6172,0,0.808800229,#f3af84,"[""0"",""0.25""]",down_orange.png,down,1,3,7,3,1,,,left,left_blue.png,down_orange.png,down,right,up,57bf14513c449a000189c89a,2021-09-11_16h45.03.508,arrow_simon_vert,2021.1.2,Win32,60.11783095,,,,,,,,,,,,,,,,,,,,,,,,,,,,,,,,,,,,,,
,,,left,1,1.2469,0,0.608975752,#a3d0fb,"[""-0.25"",""0""]",left_blue.png,left,2,0,8,2,1,,,left,left_blue.png,down_orange.png,down,left,down,57bf14513c449a000189c89a,2021-09-11_16h45.03.508,arrow_simon_vert,2021.1.2,Win32,60.11783095,,,,,,,,,,,,,,,,,,,,,,,,,,,,,,,,,,,,,,
,,,down,1,1.6842,0,0.744788483,#f3af84,"[""0"",""-0.25""]",down_orange.png,down,2,1,9,2,1,,,left,left_blue.png,down_orange.png,down,left,down,57bf14513c449a000189c89a,2021-09-11_16h45.03.508,arrow_simon_vert,2021.1.2,Win32,60.11783095,,,,,,,,,,,,,,,,,,,,,,,,,,,,,,,,,,,,,,
,,,right,1,1.1362,0,0.443005232,#a3d0fb,"[""0.25"",""0""]",right_blue.png,right,2,2,10,1,1,,,right,right_blue.png,up_orange.png,up,right,up,57bf14513c449a000189c89a,2021-09-11_16h45.03.508,arrow_simon_vert,2021.1.2,Win32,60.11783095,,,,,,,,,,,,,,,,,,,,,,,,,,,,,,,,,,,,,,
,,,down,1,1.337,0,0.697036685,#f3af84,"[""0"",""-0.25""]",down_orange.png,down,2,3,11,2,1,,,left,left_blue.png,down_orange.png,down,left,down,57bf14513c449a000189c89a,2021-09-11_16h45.03.508,arrow_simon_vert,2021.1.2,Win32,60.11783095,,,,,,,,,,,,,,,,,,,,,,,,,,,,,,,,,,,,,,
,,,right,1,1.2508,0,0.581176118,#a3d0fb,"[""0.25"",""0""]",right_blue.png,right,3,0,12,1,1,,,right,right_blue.png,up_orange.png,up,right,up,57bf14513c449a000189c89a,2021-09-11_16h45.03.508,arrow_simon_vert,2021.1.2,Win32,60.11783095,,,,,,,,,,,,,,,,,,,,,,,,,,,,,,,,,,,,,,
,,,up,1,1.2174,0,0.297039912,#f3af84,"[""0"",""-0.25""]",up_orange.png,up,3,1,13,0,1,,,right,right_blue.png,up_orange.png,up,left,down,57bf14513c449a000189c89a,2021-09-11_16h45.03.508,arrow_simon_vert,2021.1.2,Win32,60.11783095,,,,,,,,,,,,,,,,,,,,,,,,,,,,,,,,,,,,,,
,,,right,1,0.8839,0,0.209463496,#a3d0fb,"[""0.25"",""0""]",right_blue.png,right,3,2,14,1,1,,,right,right_blue.png,up_orange.png,up,right,up,57bf14513c449a000189c89a,2021-09-11_16h45.03.508,arrow_simon_vert,2021.1.2,Win32,60.11783095,,,,,,,,,,,,,,,,,,,,,,,,,,,,,,,,,,,,,,
,,,up,1,1.4643,0,0.507540281,#f3af84,"[""0"",""-0.25""]",up_orange.png,up,3,3,15,0,1,,,right,right_blue.png,up_orange.png,up,left,down,57bf14513c449a000189c89a,2021-09-11_16h45.03.508,arrow_simon_vert,2021.1.2,Win32,60.11783095,,,,,,,,,,,,,,,,,,,,,,,,,,,,,,,,,,,,,,
,,,left,1,1.0765,0,0.438928368,#a3d0fb,"[""0.25"",""0""]",left_blue.png,left,4,0,16,3,1,,,left,left_blue.png,down_orange.png,down,right,up,57bf14513c449a000189c89a,2021-09-11_16h45.03.508,arrow_simon_vert,2021.1.2,Win32,60.11783095,,,,,,,,,,,,,,,,,,,,,,,,,,,,,,,,,,,,,,
,,,down,1,1.1603,0,0.351692011,#f3af84,"[""0"",""-0.25""]",down_orange.png,down,4,1,17,2,1,,,left,left_blue.png,down_orange.png,down,left,down,57bf14513c449a000189c89a,2021-09-11_16h45.03.508,arrow_simon_vert,2021.1.2,Win32,60.11783095,,,,,,,,,,,,,,,,,,,,,,,,,,,,,,,,,,,,,,
,,,left,1,1.6166,0,0.956591212,#a3d0fb,"[""0.25"",""0""]",left_blue.png,left,4,2,18,3,1,,,left,left_blue.png,down_orange.png,down,right,up,57bf14513c449a000189c89a,2021-09-11_16h45.03.508,arrow_simon_vert,2021.1.2,Win32,60.11783095,,,,,,,,,,,,,,,,,,,,,,,,,,,,,,,,,,,,,,
,,,down,1,2.0576,0,0.960007675,#f3af84,"[""0"",""-0.25""]",down_orange.png,down,4,3,19,2,1,,,left,left_blue.png,down_orange.png,down,left,down,57bf14513c449a000189c89a,2021-09-11_16h45.03.508,arrow_simon_vert,2021.1.2,Win32,60.11783095,,,,,,,,,,,,,,,,,,,,,,,,,,,,,,,,,,,,,,
,,,left,1,0.979,0,0.255159286,#a3d0fb,"[""-0.25"",""0""]",left_blue.png,left,5,0,20,2,1,,,left,left_blue.png,down_orange.png,down,left,down,57bf14513c449a000189c89a,2021-09-11_16h45.03.508,arrow_simon_vert,2021.1.2,Win32,60.11783095,,,,,,,,,,,,,,,,,,,,,,,,,,,,,,,,,,,,,,
,,,up,1,0.8606,0,0.139606639,#f3af84,"[""0"",""0.25""]",up_orange.png,up,5,1,21,1,1,,,right,right_blue.png,up_orange.png,up,right,up,57bf14513c449a000189c89a,2021-09-11_16h45.03.508,arrow_simon_vert,2021.1.2,Win32,60.11783095,,,,,,,,,,,,,,,,,,,,,,,,,,,,,,,,,,,,,,
,,,right,1,1.3013,0,0.527525441,#a3d0fb,"[""-0.25"",""0""]",right_blue.png,right,5,2,22,0,1,,,right,right_blue.png,up_orange.png,up,left,down,57bf14513c449a000189c89a,2021-09-11_16h45.03.508,arrow_simon_vert,2021.1.2,Win32,60.11783095,,,,,,,,,,,,,,,,,,,,,,,,,,,,,,,,,,,,,,
,,,down,1,0.9433,0,0.181843542,#f3af84,"[""0"",""0.25""]",down_orange.png,down,5,3,23,3,1,,,left,left_blue.png,down_orange.png,down,right,up,57bf14513c449a000189c89a,2021-09-11_16h45.03.508,arrow_simon_vert,2021.1.2,Win32,60.11783095,,,,,,,,,,,,,,,,,,,,,,,,,,,,,,,,,,,,,,
,,,right,1,0.9441,0,0.106814437,#a3d0fb,"[""-0.25"",""0""]",right_blue.png,right,6,0,24,0,1,,,right,right_blue.png,up_orange.png,up,left,down,57bf14513c449a000189c89a,2021-09-11_16h45.03.508,arrow_simon_vert,2021.1.2,Win32,60.11783095,,,,,,,,,,,,,,,,,,,,,,,,,,,,,,,,,,,,,,
,,,down,1,1.3846,0,0.54796162,#f3af84,"[""0"",""-0.25""]",down_orange.png,down,6,1,25,2,1,,,left,left_blue.png,down_orange.png,down,left,down,57bf14513c449a000189c89a,2021-09-11_16h45.03.508,arrow_simon_vert,2021.1.2,Win32,60.11783095,,,,,,,,,,,,,,,,,,,,,,,,,,,,,,,,,,,,,,
,,,left,1,1.6911,0,0.91723168,#a3d0fb,"[""0.25"",""0""]",left_blue.png,left,6,2,26,3,1,,,left,left_blue.png,down_orange.png,down,right,up,57bf14513c449a000189c89a,2021-09-11_16h45.03.508,arrow_simon_vert,2021.1.2,Win32,60.11783095,,,,,,,,,,,,,,,,,,,,,,,,,,,,,,,,,,,,,,
,,,up,1,1.7152,0,0.971145832,#f3af84,"[""0"",""-0.25""]",up_orange.png,up,6,3,27,0,1,,,right,right_blue.png,up_orange.png,up,left,down,57bf14513c449a000189c89a,2021-09-11_16h45.03.508,arrow_simon_vert,2021.1.2,Win32,60.11783095,,,,,,,,,,,,,,,,,,,,,,,,,,,,,,,,,,,,,,
,,,right,1,1.7679,0,0.975654953,#a3d0fb,"[""0.25"",""0""]",right_blue.png,right,7,0,28,1,1,,,right,right_blue.png,up_orange.png,up,right,up,57bf14513c449a000189c89a,2021-09-11_16h45.03.508,arrow_simon_vert,2021.1.2,Win32,60.11783095,,,,,,,,,,,,,,,,,,,,,,,,,,,,,,,,,,,,,,
,,,down,1,1.684,0,0.876448491,#f3af84,"[""0"",""0.25""]",down_orange.png,down,7,1,29,3,1,,,left,left_blue.png,down_orange.png,down,right,up,57bf14513c449a000189c89a,2021-09-11_16h45.03.508,arrow_simon_vert,2021.1.2,Win32,60.11783095,,,,,,,,,,,,,,,,,,,,,,,,,,,,,,,,,,,,,,
,,,left,1,1.3851,0,0.77701229,#a3d0fb,"[""-0.25"",""0""]",left_blue.png,left,7,2,30,2,1,,,left,left_blue.png,down_orange.png,down,left,down,57bf14513c449a000189c89a,2021-09-11_16h45.03.508,arrow_simon_vert,2021.1.2,Win32,60.11783095,,,,,,,,,,,,,,,,,,,,,,,,,,,,,,,,,,,,,,
,,,up,1,1.234,0,0.5028289,#f3af84,"[""0"",""-0.25""]",up_orange.png,up,7,3,31,0,1,,,right,right_blue.png,up_orange.png,up,left,down,57bf14513c449a000189c89a,2021-09-11_16h45.03.508,arrow_simon_vert,2021.1.2,Win32,60.11783095,,,,,,,,,,,,,,,,,,,,,,,,,,,,,,,,,,,,,,
,,,left,1,1.434,0,0.732222323,#a3d0fb,"[""0.25"",""0""]",left_blue.png,left,8,0,32,3,1,,,left,left_blue.png,down_orange.png,down,right,up,57bf14513c449a000189c89a,2021-09-11_16h45.03.508,arrow_simon_vert,2021.1.2,Win32,60.11783095,,,,,,,,,,,,,,,,,,,,,,,,,,,,,,,,,,,,,,
,,,up,1,1.5745,0,0.842560052,#f3af84,"[""0"",""-0.25""]",up_orange.png,up,8,1,33,0,1,,,right,right_blue.png,up_orange.png,up,left,down,57bf14513c449a000189c89a,2021-09-11_16h45.03.508,arrow_simon_vert,2021.1.2,Win32,60.11783095,,,,,,,,,,,,,,,,,,,,,,,,,,,,,,,,,,,,,,
,,,left,1,1.0907,0,0.26287527,#a3d0fb,"[""-0.25"",""0""]",left_blue.png,left,8,2,34,2,1,,,left,left_blue.png,down_orange.png,down,left,down,57bf14513c449a000189c89a,2021-09-11_16h45.03.508,arrow_simon_vert,2021.1.2,Win32,60.11783095,,,,,,,,,,,,,,,,,,,,,,,,,,,,,,,,,,,,,,
,,,up,1,1.0176,0,0.160244936,#f3af84,"[""0"",""-0.25""]",up_orange.png,up,8,3,35,0,1,,,right,right_blue.png,up_orange.png,up,left,down,57bf14513c449a000189c89a,2021-09-11_16h45.03.508,arrow_simon_vert,2021.1.2,Win32,60.11783095,,,,,,,,,,,,,,,,,,,,,,,,,,,,,,,,,,,,,,
,,,right,1,1.5257,0,0.72604843,#a3d0fb,"[""-0.25"",""0""]",right_blue.png,right,9,0,36,0,1,,,right,right_blue.png,up_orange.png,up,left,down,57bf14513c449a000189c89a,2021-09-11_16h45.03.508,arrow_simon_vert,2021.1.2,Win32,60.11783095,,,,,,,,,,,,,,,,,,,,,,,,,,,,,,,,,,,,,,
,,,up,1,1.0778,0,0.121132157,#f3af84,"[""0"",""-0.25""]",up_orange.png,up,9,1,37,0,1,,,right,right_blue.png,up_orange.png,up,left,down,57bf14513c449a000189c89a,2021-09-11_16h45.03.508,arrow_simon_vert,2021.1.2,Win32,60.11783095,,,,,,,,,,,,,,,,,,,,,,,,,,,,,,,,,,,,,,
,,,left,1,0.9111,0,0.189785136,#a3d0fb,"[""-0.25"",""0""]",left_blue.png,left,9,2,38,2,1,,,left,left_blue.png,down_orange.png,down,left,down,57bf14513c449a000189c89a,2021-09-11_16h45.03.508,arrow_simon_vert,2021.1.2,Win32,60.11783095,,,,,,,,,,,,,,,,,,,,,,,,,,,,,,,,,,,,,,
,,,down,1,1.3267,0,0.464070534,#f3af84,"[""0"",""0.25""]",down_orange.png,down,9,3,39,3,1,,,left,left_blue.png,down_orange.png,down,right,up,57bf14513c449a000189c89a,2021-09-11_16h45.03.508,arrow_simon_vert,2021.1.2,Win32,60.11783095,,,,,,,,,,,,,,,,,,,,,,,,,,,,,,,,,,,,,,
,,,right,1,1.4966,0,0.843860929,#a3d0fb,"[""0.25"",""0""]",right_blue.png,right,10,0,40,1,1,,,right,right_blue.png,up_orange.png,up,right,up,57bf14513c449a000189c89a,2021-09-11_16h45.03.508,arrow_simon_vert,2021.1.2,Win32,60.11783095,,,,,,,,,,,,,,,,,,,,,,,,,,,,,,,,,,,,,,
,,,down,1,1.5951,0,0.825676695,#f3af84,"[""0"",""-0.25""]",down_orange.png,down,10,1,41,2,1,,,left,left_blue.png,down_orange.png,down,left,down,57bf14513c449a000189c89a,2021-09-11_16h45.03.508,arrow_simon_vert,2021.1.2,Win32,60.11783095,,,,,,,,,,,,,,,,,,,,,,,,,,,,,,,,,,,,,,
,,,right,1,1.0177,0,0.281559704,#a3d0fb,"[""0.25"",""0""]",right_blue.png,right,10,2,42,1,1,,,right,right_blue.png,up_orange.png,up,right,up,57bf14513c449a000189c89a,2021-09-11_16h45.03.508,arrow_simon_vert,2021.1.2,Win32,60.11783095,,,,,,,,,,,,,,,,,,,,,,,,,,,,,,,,,,,,,,
,,,down,1,1.2752,0,0.599882529,#f3af84,"[""0"",""-0.25""]",down_orange.png,down,10,3,43,2,1,,,left,left_blue.png,down_orange.png,down,left,down,57bf14513c449a000189c89a,2021-09-11_16h45.03.508,arrow_simon_vert,2021.1.2,Win32,60.11783095,,,,,,,,,,,,,,,,,,,,,,,,,,,,,,,,,,,,,,
,,,right,1,1.437,0,0.755134963,#a3d0fb,"[""0.25"",""0""]",right_blue.png,right,11,0,44,1,1,,,right,right_blue.png,up_orange.png,up,right,up,57bf14513c449a000189c89a,2021-09-11_16h45.03.508,arrow_simon_vert,2021.1.2,Win32,60.11783095,,,,,,,,,,,,,,,,,,,,,,,,,,,,,,,,,,,,,,
,,,down,1,1.6342,0,0.707478282,#f3af84,"[""0"",""0.25""]",down_orange.png,down,11,1,45,3,1,,,left,left_blue.png,down_orange.png,down,right,up,57bf14513c449a000189c89a,2021-09-11_16h45.03.508,arrow_simon_vert,2021.1.2,Win32,60.11783095,,,,,,,,,,,,,,,,,,,,,,,,,,,,,,,,,,,,,,
,,,right,1,0.8676,0,0.009354577,#a3d0fb,"[""0.25"",""0""]",right_blue.png,right,11,2,46,1,1,,,right,right_blue.png,up_orange.png,up,right,up,57bf14513c449a000189c89a,2021-09-11_16h45.03.508,arrow_simon_vert,2021.1.2,Win32,60.11783095,,,,,,,,,,,,,,,,,,,,,,,,,,,,,,,,,,,,,,
,,,up,1,1.5422,0,0.89431515,#f3af84,"[""0"",""0.25""]",up_orange.png,up,11,3,47,1,1,,,right,right_blue.png,up_orange.png,up,right,up,57bf14513c449a000189c89a,2021-09-11_16h45.03.508,arrow_simon_vert,2021.1.2,Win32,60.11783095,,,,,,,,,,,,,,,,,,,,,,,,,,,,,,,,,,,,,,
,,,right,1,1.5677,0,0.873904104,#a3d0fb,"[""0.25"",""0""]",right_blue.png,right,12,0,48,1,1,,,right,right_blue.png,up_orange.png,up,right,up,57bf14513c449a000189c89a,2021-09-11_16h45.03.508,arrow_simon_vert,2021.1.2,Win32,60.11783095,,,,,,,,,,,,,,,,,,,,,,,,,,,,,,,,,,,,,,
,,,down,1,1.4581,0,0.8432064,#f3af84,"[""0"",""-0.25""]",down_orange.png,down,12,1,49,2,1,,,left,left_blue.png,down_orange.png,down,left,down,57bf14513c449a000189c89a,2021-09-11_16h45.03.508,arrow_simon_vert,2021.1.2,Win32,60.11783095,,,,,,,,,,,,,,,,,,,,,,,,,,,,,,,,,,,,,,
,,,right,1,1.3941,0,0.572243575,#a3d0fb,"[""-0.25"",""0""]",right_blue.png,right,12,2,50,0,1,,,right,right_blue.png,up_orange.png,up,left,down,57bf14513c449a000189c89a,2021-09-11_16h45.03.508,arrow_simon_vert,2021.1.2,Win32,60.11783095,,,,,,,,,,,,,,,,,,,,,,,,,,,,,,,,,,,,,,
,,,down,1,1.5005,0,0.692534482,#f3af84,"[""0"",""0.25""]",down_orange.png,down,12,3,51,3,1,,,left,left_blue.png,down_orange.png,down,right,up,57bf14513c449a000189c89a,2021-09-11_16h45.03.508,arrow_simon_vert,2021.1.2,Win32,60.11783095,,,,,,,,,,,,,,,,,,,,,,,,,,,,,,,,,,,,,,
,,,right,1,1.0928,0,0.23277247,#a3d0fb,"[""-0.25"",""0""]",right_blue.png,right,13,0,52,0,1,,,right,right_blue.png,up_orange.png,up,left,down,57bf14513c449a000189c89a,2021-09-11_16h45.03.508,arrow_simon_vert,2021.1.2,Win32,60.11783095,,,,,,,,,,,,,,,,,,,,,,,,,,,,,,,,,,,,,,
,,,up,1,0.9076,0,0.100378794,#f3af84,"[""0"",""0.25""]",up_orange.png,up,13,1,53,1,1,,,right,right_blue.png,up_orange.png,up,right,up,57bf14513c449a000189c89a,2021-09-11_16h45.03.508,arrow_simon_vert,2021.1.2,Win32,60.11783095,,,,,,,,,,,,,,,,,,,,,,,,,,,,,,,,,,,,,,
,,,left,1,1.4195,0,0.693831142,#a3d0fb,"[""0.25"",""0""]",left_blue.png,left,13,2,54,3,1,,,left,left_blue.png,down_orange.png,down,right,up,57bf14513c449a000189c89a,2021-09-11_16h45.03.508,arrow_simon_vert,2021.1.2,Win32,60.11783095,,,,,,,,,,,,,,,,,,,,,,,,,,,,,,,,,,,,,,
,,,down,1,1.0062,0,0.263328396,#f3af84,"[""0"",""0.25""]",down_orange.png,down,13,3,55,3,1,,,left,left_blue.png,down_orange.png,down,right,up,57bf14513c449a000189c89a,2021-09-11_16h45.03.508,arrow_simon_vert,2021.1.2,Win32,60.11783095,,,,,,,,,,,,,,,,,,,,,,,,,,,,,,,,,,,,,,
,,,left,1,0.8073,0,0.141965654,#a3d0fb,"[""0.25"",""0""]",left_blue.png,left,14,0,56,3,1,,,left,left_blue.png,down_orange.png,down,right,up,57bf14513c449a000189c89a,2021-09-11_16h45.03.508,arrow_simon_vert,2021.1.2,Win32,60.11783095,,,,,,,,,,,,,,,,,,,,,,,,,,,,,,,,,,,,,,
,,,down,1,1.7107,0,0.994139802,#f3af84,"[""0"",""0.25""]",down_orange.png,down,14,1,57,3,1,,,left,left_blue.png,down_orange.png,down,right,up,57bf14513c449a000189c89a,2021-09-11_16h45.03.508,arrow_simon_vert,2021.1.2,Win32,60.11783095,,,,,,,,,,,,,,,,,,,,,,,,,,,,,,,,,,,,,,
,,,right,1,1.5798,0,0.878467613,#a3d0fb,"[""-0.25"",""0""]",right_blue.png,right,14,2,58,0,1,,,right,right_blue.png,up_orange.png,up,left,down,57bf14513c449a000189c89a,2021-09-11_16h45.03.508,arrow_simon_vert,2021.1.2,Win32,60.11783095,,,,,,,,,,,,,,,,,,,,,,,,,,,,,,,,,,,,,,
,,,up,1,1.5712,0,0.72136029,#f3af84,"[""0"",""0.25""]",up_orange.png,up,14,3,59,1,1,,,right,right_blue.png,up_orange.png,up,right,up,57bf14513c449a000189c89a,2021-09-11_16h45.03.508,arrow_simon_vert,2021.1.2,Win32,60.11783095,,,,,,,,,,,,,,,,,,,,,,,,,,,,,,,,,,,,,,
,,,,,,,,,,,,,,,,,,,,,,,,,57bf14513c449a000189c89a,2021-09-11_16h45.03.508,arrow_simon_vert,2021.1.2,Win32,60.11783095,space,18.0299,1,0,1,0,1,,,,,,,,,,,,,,,,,,,,,,,,,,,,,,,
,,,,,,,,,,,,,,,,,,,,,,,,,57bf14513c449a000189c89a,2021-09-11_16h45.03.508,arrow_simon_vert,2021.1.2,Win32,60.11783095,,,,,,,,space,0,167.1849,up,3.1438,0,0,0,0,1,,,,,,,,,,,,,,,,,,,,,
,,,,,,,,,,,,,,,,,,,,,,,,,57bf14513c449a000189c89a,2021-09-11_16h45.03.508,arrow_simon_vert,2021.1.2,Win32,60.11783095,,,,,,,,,,,up,3.0093,1,0,1,0,1,,,,,,,,,,,,,,,,,,,,,
,,,,,,,,,,,,,,,,,,,,,,,,,57bf14513c449a000189c89a,2021-09-11_16h45.03.508,arrow_simon_vert,2021.1.2,Win32,60.11783095,,,,,,,,,,,left,2.2836,2,0,2,0,1,,,,,,,,,,,,,,,,,,,,,
,,,,,,,,,,,,,,,,,,,,,,,,,57bf14513c449a000189c89a,2021-09-11_16h45.03.508,arrow_simon_vert,2021.1.2,Win32,60.11783095,,,,,,,,,,,up,3.2749,3,0,3,0,1,,,,,,,,,,,,,,,,,,,,,
,,,,,,,,,,,,,,,,,,,,,,,,,57bf14513c449a000189c89a,2021-09-11_16h45.03.508,arrow_simon_vert,2021.1.2,Win32,60.11783095,,,,,,,,,,,right,2.8711,4,0,4,0,1,,,,,,,,,,,,,,,,,,,,,
,,,,,,,,,,,,,,,,,,,,,,,,,57bf14513c449a000189c89a,2021-09-11_16h45.03.508,arrow_simon_vert,2021.1.2,Win32,60.11783095,,,,,,,,,,,up,2.7336,5,0,5,0,1,,,,,,,,,,,,,,,,,,,,,
,,,,,,,,,,,,,,,,,,,,,,,,,57bf14513c449a000189c89a,2021-09-11_16h45.03.508,arrow_simon_vert,2021.1.2,Win32,60.11783095,,,,,,,,,,,left,2.94,6,0,6,0,1,,,,,,,,,,,,,,,,,,,,,
,,,,,,,,,,,,,,,,,,,,,,,,,57bf14513c449a000189c89a,2021-09-11_16h45.03.508,arrow_simon_vert,2021.1.2,Win32,60.11783095,,,,,,,,,,,up,2.9012,7,0,7,0,1,,,,,,,,,,,,,,,,,,,,,
,,,,,,,,,,,,,,,,,,,,,,,,,57bf14513c449a000189c89a,2021-09-11_16h45.03.508,arrow_simon_vert,2021.1.2,Win32,60.11783095,,,,,,,,,,,left,2.8573,8,0,8,0,1,,,,,,,,,,,,,,,,,,,,,
,,,,,,,,,,,,,,,,,,,,,,,,,57bf14513c449a000189c89a,2021-09-11_16h45.03.508,arrow_simon_vert,2021.1.2,Win32,60.11783095,,,,,,,,,,,up,2.868,9,0,9,0,1,,,,,,,,,,,,,,,,,,,,,
,,,,,,,,,,,,,,,,,,,,,,,,,57bf14513c449a000189c89a,2021-09-11_16h45.03.508,arrow_simon_vert,2021.1.2,Win32,60.11783095,,,,,,,,,,,left,2.6836,10,0,10,0,1,,,,,,,,,,,,,,,,,,,,,
,,,,,,,,,,,,,,,,,,,,,,,,,57bf14513c449a000189c89a,2021-09-11_16h45.03.508,arrow_simon_vert,2021.1.2,Win32,60.11783095,,,,,,,,,,,up,2.5895,11,0,11,0,1,,,,,,,,,,,,,,,,,,,,,
,,,,,,,,,,,,,,,,,,,,,,,,,57bf14513c449a000189c89a,2021-09-11_16h45.03.508,arrow_simon_vert,2021.1.2,Win32,60.11783095,,,,,,,,,,,left,2.7004,12,0,12,0,1,,,,,,,,,,,,,,,,,,,,,
,,,,,,,,,,,,,,,,,,,,,,,,,57bf14513c449a000189c89a,2021-09-11_16h45.03.508,arrow_simon_vert,2021.1.2,Win32,60.11783095,,,,,,,,,,,up,2.5566,13,0,13,0,1,,,,,,,,,,,,,,,,,,,,,
,,,,,,,,,,,,,,,,,,,,,,,,,57bf14513c449a000189c89a,2021-09-11_16h45.03.508,arrow_simon_vert,2021.1.2,Win32,60.11783095,,,,,,,,,,,left,2.743,14,0,14,0,1,,,,,,,,,,,,,,,,,,,,,
,,,,,,,,,,,,,,,,,,,,,,,,,57bf14513c449a000189c89a,2021-09-11_16h45.03.508,arrow_simon_vert,2021.1.2,Win32,60.11783095,,,,,,,,,,,up,2.7342,15,0,15,0,1,,,,,,,,,,,,,,,,,,,,,
,,,,,,,,,,,,,,,,,,,,,,,,,57bf14513c449a000189c89a,2021-09-11_16h45.03.508,arrow_simon_vert,2021.1.2,Win32,60.11783095,,,,,,,,,,,left,2.808,16,0,16,0,1,,,,,,,,,,,,,,,,,,,,,
,,,,,,,,,,,,,,,,,,,,,,,,,57bf14513c449a000189c89a,2021-09-11_16h45.03.508,arrow_simon_vert,2021.1.2,Win32,60.11783095,,,,,,,,,,,up,2.6957,17,0,17,0,1,,,,,,,,,,,,,,,,,,,,,
,,,,,,,,,,,,,,,,,,,,,,,,,57bf14513c449a000189c89a,2021-09-11_16h45.03.508,arrow_simon_vert,2021.1.2,Win32,60.11783095,,,,,,,,,,,left,2.3451,18,0,18,0,1,,,,,,,,,,,,,,,,,,,,,
,,,,,,,,,,,,,,,,,,,,,,,,,57bf14513c449a000189c89a,2021-09-11_16h45.03.508,arrow_simon_vert,2021.1.2,Win32,60.11783095,,,,,,,,,,,up,2.4581,19,0,19,0,1,,,,,,,,,,,,,,,,,,,,,
,,,,,,,,,,,,,,,,,,,,,,,,,57bf14513c449a000189c89a,2021-09-11_16h45.03.508,arrow_simon_vert,2021.1.2,Win32,60.11783095,,,,,,,,,,,left,2.6506,20,0,20,0,1,,,,,,,,,,,,,,,,,,,,,
,,,,,,,,,,,,,,,,,,,,,,,,,57bf14513c449a000189c89a,2021-09-11_16h45.03.508,arrow_simon_vert,2021.1.2,Win32,60.11783095,,,,,,,,,,,up,2.6278,21,0,21,0,1,,,,,,,,,,,,,,,,,,,,,
,,,,,,,,,,,,,,,,,,,,,,,,,57bf14513c449a000189c89a,2021-09-11_16h45.03.508,arrow_simon_vert,2021.1.2,Win32,60.11783095,,,,,,,,,,,left,2.6017,22,0,22,0,1,,,,,,,,,,,,,,,,,,,,,
,,,,,,,,,,,,,,,,,,,,,,,,,57bf14513c449a000189c89a,2021-09-11_16h45.03.508,arrow_simon_vert,2021.1.2,Win32,60.11783095,,,,,,,,,,,up,2.7171,23,0,23,0,1,,,,,,,,,,,,,,,,,,,,,
,,,,,,,,,,,,,,,,,,,,,,,,,57bf14513c449a000189c89a,2021-09-11_16h45.03.508,arrow_simon_vert,2021.1.2,Win32,60.11783095,,,,,,,,,,,left,2.5463,24,0,24,0,1,,,,,,,,,,,,,,,,,,,,,
,,,,,,,,,,,,,,,,,,,,,,,,,57bf14513c449a000189c89a,2021-09-11_16h45.03.508,arrow_simon_vert,2021.1.2,Win32,60.11783095,,,,,,,,,,,up,2.5233,25,0,25,0,1,,,,,,,,,,,,,,,,,,,,,
,,,,,,,,,,,,,,,,,,,,,,,,,57bf14513c449a000189c89a,2021-09-11_16h45.03.508,arrow_simon_vert,2021.1.2,Win32,60.11783095,,,,,,,,,,,left,2.5431,26,0,26,0,1,,,,,,,,,,,,,,,,,,,,,
,,,,,,,,,,,,,,,,,,,,,,,,,57bf14513c449a000189c89a,2021-09-11_16h45.03.508,arrow_simon_vert,2021.1.2,Win32,60.11783095,,,,,,,,,,,up,2.7184,27,0,27,0,1,,,,,,,,,,,,,,,,,,,,,
,,,,,,,,,,,,,,,,,,,,,,,,,57bf14513c449a000189c89a,2021-09-11_16h45.03.508,arrow_simon_vert,2021.1.2,Win32,60.11783095,,,,,,,,,,,left,2.6562,28,0,28,0,1,,,,,,,,,,,,,,,,,,,,,
,,,,,,,,,,,,,,,,,,,,,,,,,57bf14513c449a000189c89a,2021-09-11_16h45.03.508,arrow_simon_vert,2021.1.2,Win32,60.11783095,,,,,,,,,,,up,2.4707,29,0,29,0,1,,,,,,,,,,,,,,,,,,,,,
,,,,,,,,,,,,,,,,,,,,,,,,,57bf14513c449a000189c89a,2021-09-11_16h45.03.508,arrow_simon_vert,2021.1.2,Win32,60.11783095,,,,,,,,,,,left,2.6085,30,0,30,0,1,,,,,,,,,,,,,,,,,,,,,
,,,,,,,,,,,,,,,,,,,,,,,,,57bf14513c449a000189c89a,2021-09-11_16h45.03.508,arrow_simon_vert,2021.1.2,Win32,60.11783095,,,,,,,,,,,up,2.511,31,0,31,0,1,,,,,,,,,,,,,,,,,,,,,
,,,,,,,,,,,,,,,,,,,,,,,,,57bf14513c449a000189c89a,2021-09-11_16h45.03.508,arrow_simon_vert,2021.1.2,Win32,60.11783095,,,,,,,,,,,left,2.5004,32,0,32,0,1,,,,,,,,,,,,,,,,,,,,,
,,,,,,,,,,,,,,,,,,,,,,,,,57bf14513c449a000189c89a,2021-09-11_16h45.03.508,arrow_simon_vert,2021.1.2,Win32,60.11783095,,,,,,,,,,,up,2.484,33,0,33,0,1,,,,,,,,,,,,,,,,,,,,,
,,,,,,,,,,,,,,,,,,,,,,,,,57bf14513c449a000189c89a,2021-09-11_16h45.03.508,arrow_simon_vert,2021.1.2,Win32,60.11783095,,,,,,,,,,,left,2.6502,34,0,34,0,1,,,,,,,,,,,,,,,,,,,,,
,,,,,,,,,,,,,,,,,,,,,,,,,57bf14513c449a000189c89a,2021-09-11_16h45.03.508,arrow_simon_vert,2021.1.2,Win32,60.11783095,,,,,,,,,,,up,2.5838,35,0,35,0,1,,,,,,,,,,,,,,,,,,,,,
,,,,,,,,,,,,,,,,,,,,,,,,,57bf14513c449a000189c89a,2021-09-11_16h45.03.508,arrow_simon_vert,2021.1.2,Win32,60.11783095,,,,,,,,,,,left,2.5068,36,0,36,0,1,,,,,,,,,,,,,,,,,,,,,
,,,,,,,,,,,,,,,,,,,,,,,,,57bf14513c449a000189c89a,2021-09-11_16h45.03.508,arrow_simon_vert,2021.1.2,Win32,60.11783095,,,,,,,,,,,up,2.6002,37,0,37,0,1,,,,,,,,,,,,,,,,,,,,,
,,,,,,,,,,,,,,,,,,,,,,,,,57bf14513c449a000189c89a,2021-09-11_16h45.03.508,arrow_simon_vert,2021.1.2,Win32,60.11783095,,,,,,,,,,,left,2.5257,38,0,38,0,1,,,,,,,,,,,,,,,,,,,,,
,,,,,,,,,,,,,,,,,,,,,,,,,57bf14513c449a000189c89a,2021-09-11_16h45.03.508,arrow_simon_vert,2021.1.2,Win32,60.11783095,,,,,,,,,,,up,2.4614,39,0,39,0,1,,,,,,,,,,,,,,,,,,,,,
,,,,,,,,,,,,,,,,,,,,,,,,,57bf14513c449a000189c89a,2021-09-11_16h45.03.508,arrow_simon_vert,2021.1.2,Win32,60.11783095,,,,,,,,,,,left,2.5003,40,0,40,0,1,,,,,,,,,,,,,,,,,,,,,
,,,,,,,,,,,,,,,,,,,,,,,,,57bf14513c449a000189c89a,2021-09-11_16h45.03.508,arrow_simon_vert,2021.1.2,Win32,60.11783095,,,,,,,,,,,up,2.6505,41,0,41,0,1,,,,,,,,,,,,,,,,,,,,,
,,,,,,,,,,,,,,,,,,,,,,,,,57bf14513c449a000189c89a,2021-09-11_16h45.03.508,arrow_simon_vert,2021.1.2,Win32,60.11783095,,,,,,,,,,,left,2.5451,42,0,42,0,1,,,,,,,,,,,,,,,,,,,,,
,,,,,,,,,,,,,,,,,,,,,,,,,57bf14513c449a000189c89a,2021-09-11_16h45.03.508,arrow_simon_vert,2021.1.2,Win32,60.11783095,,,,,,,,,,,up,2.5785,43,0,43,0,1,,,,,,,,,,,,,,,,,,,,,
,,,,,,,,,,,,,,,,,,,,,,,,,57bf14513c449a000189c89a,2021-09-11_16h45.03.508,arrow_simon_vert,2021.1.2,Win32,60.11783095,,,,,,,,,,,left,2.5672,44,0,44,0,1,,,,,,,,,,,,,,,,,,,,,
,,,,,,,,,,,,,,,,,,,,,,,,,57bf14513c449a000189c89a,2021-09-11_16h45.03.508,arrow_simon_vert,2021.1.2,Win32,60.11783095,,,,,,,,,,,up,2.5463,45,0,45,0,1,,,,,,,,,,,,,,,,,,,,,
,,,,,,,,,,,,,,,,,,,,,,,,,57bf14513c449a000189c89a,2021-09-11_16h45.03.508,arrow_simon_vert,2021.1.2,Win32,60.11783095,,,,,,,,,,,left,2.6587,46,0,46,0,1,,,,,,,,,,,,,,,,,,,,,
,,,,,,,,,,,,,,,,,,,,,,,,,57bf14513c449a000189c89a,2021-09-11_16h45.03.508,arrow_simon_vert,2021.1.2,Win32,60.11783095,,,,,,,,,,,up,2.4746,47,0,47,0,1,,,,,,,,,,,,,,,,,,,,,
,,,,,,,,,,,,,,,,,,,,,,,,,57bf14513c449a000189c89a,2021-09-11_16h45.03.508,arrow_simon_vert,2021.1.2,Win32,60.11783095,,,,,,,,,,,left,2.5953,48,0,48,0,1,,,,,,,,,,,,,,,,,,,,,
,,,,,,,,,,,,,,,,,,,,,,,,,57bf14513c449a000189c89a,2021-09-11_16h45.03.508,arrow_simon_vert,2021.1.2,Win32,60.11783095,,,,,,,,,,,up,2.5506,49,0,49,0,1,,,,,,,,,,,,,,,,,,,,,
,,,,,,,,,,,,,,,,,,,,,,,,,57bf14513c449a000189c89a,2021-09-11_16h45.03.508,arrow_simon_vert,2021.1.2,Win32,60.11783095,,,,,,,,,,,left,2.6057,50,0,50,0,1,,,,,,,,,,,,,,,,,,,,,
,,,,,,,,,,,,,,,,,,,,,,,,,57bf14513c449a000189c89a,2021-09-11_16h45.03.508,arrow_simon_vert,2021.1.2,Win32,60.11783095,,,,,,,,,,,up,2.5381,51,0,51,0,1,,,,,,,,,,,,,,,,,,,,,
,,,,,,,,,,,,,,,,,,,,,,,,,57bf14513c449a000189c89a,2021-09-11_16h45.03.508,arrow_simon_vert,2021.1.2,Win32,60.11783095,,,,,,,,,,,left,2.6512,52,0,52,0,1,,,,,,,,,,,,,,,,,,,,,
,,,,,,,,,,,,,,,,,,,,,,,,,57bf14513c449a000189c89a,2021-09-11_16h45.03.508,arrow_simon_vert,2021.1.2,Win32,60.11783095,,,,,,,,,,,up,2.5059,53,0,53,0,1,,,,,,,,,,,,,,,,,,,,,
,,,,,,,,,,,,,,,,,,,,,,,,,57bf14513c449a000189c89a,2021-09-11_16h45.03.508,arrow_simon_vert,2021.1.2,Win32,60.11783095,,,,,,,,,,,left,2.8344,54,0,54,0,1,,,,,,,,,,,,,,,,,,,,,
,,,,,,,,,,,,,,,,,,,,,,,,,57bf14513c449a000189c89a,2021-09-11_16h45.03.508,arrow_simon_vert,2021.1.2,Win32,60.11783095,,,,,,,,,,,up,2.5675,55,0,55,0,1,,,,,,,,,,,,,,,,,,,,,
,,,,,,,,,,,,,,,,,,,,,,,,,57bf14513c449a000189c89a,2021-09-11_16h45.03.508,arrow_simon_vert,2021.1.2,Win32,60.11783095,,,,,,,,,,,left,2.577,56,0,56,0,1,,,,,,,,,,,,,,,,,,,,,
,,,,,,,,,,,,,,,,,,,,,,,,,57bf14513c449a000189c89a,2021-09-11_16h45.03.508,arrow_simon_vert,2021.1.2,Win32,60.11783095,,,,,,,,,,,up,2.5513,57,0,57,0,1,,,,,,,,,,,,,,,,,,,,,
,,,,,,,,,,,,,,,,,,,,,,,,,57bf14513c449a000189c89a,2021-09-11_16h45.03.508,arrow_simon_vert,2021.1.2,Win32,60.11783095,,,,,,,,,,,left,2.2675,58,0,58,0,1,,,,,,,,,,,,,,,,,,,,,
,,,,,,,,,,,,,,,,,,,,,,,,,57bf14513c449a000189c89a,2021-09-11_16h45.03.508,arrow_simon_vert,2021.1.2,Win32,60.11783095,,,,,,,,,,,up,2.6772,59,0,59,0,1,,,,,,,,,,,,,,,,,,,,,
,,,,,,0,1.534508804,#a3d0fb,"[""-0.25"",""0""]",right_blue.png,right,,,,,,,,right,right_blue.png,up_orange.png,up,left,down,57bf14513c449a000189c89a,2021-09-11_16h45.03.508,arrow_simon_vert,2021.1.2,Win32,60.11783095,,,,,,,,,,,,,,,,,,space,0,270.2016,right,1,1.8502,1,TRUE,FALSE,0,0,0,0,1,,,,,,,
,,,,,,0,2.440083674,#f3af84,"[""0"",""-0.25""]",up_orange.png,up,,,,,,,,right,right_blue.png,up_orange.png,up,left,down,57bf14513c449a000189c89a,2021-09-11_16h45.03.508,arrow_simon_vert,2021.1.2,Win32,60.11783095,,,,,,,,,,,,,,,,,,,,,up,1,2.0006,2,TRUE,FALSE,0,1,1,0,1,,,,,,,
,,,,,,0,1.964734508,#a3d0fb,"[""0.25"",""0""]",left_blue.png,left,,,,,,,,left,left_blue.png,down_orange.png,down,right,up,57bf14513c449a000189c89a,2021-09-11_16h45.03.508,arrow_simon_vert,2021.1.2,Win32,60.11783095,,,,,,,,,,,,,,,,,,,,,left,1,1.534,3,FALSE,FALSE,0,2,2,3,1,,,,,,,
,,,,,,0,2.265676227,#f3af84,"[""0"",""-0.25""]",down_orange.png,down,,,,,,,,left,left_blue.png,down_orange.png,down,left,down,57bf14513c449a000189c89a,2021-09-11_16h45.03.508,arrow_simon_vert,2021.1.2,Win32,60.11783095,,,,,,,,,,,,,,,,,,,,,left,0,2.3839,4,TRUE,FALSE,0,3,3,2,1,,,,,,,
,,,,,,1,2.010524481,#a3d0fb,"[""-0.25"",""0""]",left_blue.png,left,,,,,,,,left,left_blue.png,down_orange.png,down,left,down,57bf14513c449a000189c89a,2021-09-11_16h45.03.508,arrow_simon_vert,2021.1.2,Win32,60.11783095,,,,,,,,,,,,,,,,,,,,,up,0,1.5673,5,FALSE,FALSE,1,0,4,2,1,,,,,,,
,,,,,,1,1.750005889,#f3af84,"[""0"",""-0.25""]",up_orange.png,up,,,,,,,,right,right_blue.png,up_orange.png,up,left,down,57bf14513c449a000189c89a,2021-09-11_16h45.03.508,arrow_simon_vert,2021.1.2,Win32,60.11783095,,,,,,,,,,,,,,,,,,,,,up,1,1.284,6,FALSE,TRUE,1,1,5,0,1,,,,,,,
,,,,,,1,2.351659739,#a3d0fb,"[""-0.25"",""0""]",left_blue.png,left,,,,,,,,left,left_blue.png,down_orange.png,down,left,down,57bf14513c449a000189c89a,2021-09-11_16h45.03.508,arrow_simon_vert,2021.1.2,Win32,60.11783095,,,,,,,,,,,,,,,,,,,,,left,1,1.7669,7,TRUE,FALSE,1,2,6,2,1,,,,,,,
,,,,,,1,2.009955286,#f3af84,"[""0"",""0.25""]",down_orange.png,down,,,,,,,,left,left_blue.png,down_orange.png,down,right,up,57bf14513c449a000189c89a,2021-09-11_16h45.03.508,arrow_simon_vert,2021.1.2,Win32,60.11783095,,,,,,,,,,,,,,,,,,,,,up,0,1.4507,8,FALSE,FALSE,1,3,7,3,1,,,,,,,
,,,,,,0,1.866969808,#a3d0fb,"[""-0.25"",""0""]",right_blue.png,right,,,,,,,,right,right_blue.png,up_orange.png,up,left,down,57bf14513c449a000189c89a,2021-09-11_16h45.03.508,arrow_simon_vert,2021.1.2,Win32,60.11783095,,,,,,,,,,,,,,,,,,,,,right,1,1.4507,9,FALSE,FALSE,2,0,8,0,1,,,,,,,
,,,,,,0,2.278645332,#f3af84,"[""0"",""0.25""]",down_orange.png,down,,,,,,,,left,left_blue.png,down_orange.png,down,right,up,57bf14513c449a000189c89a,2021-09-11_16h45.03.508,arrow_simon_vert,2021.1.2,Win32,60.11783095,,,,,,,,,,,,,,,,,,,,,up,0,1.8169,10,TRUE,FALSE,2,1,9,3,1,,,,,,,
,,,,,,0,1.700470237,#a3d0fb,"[""-0.25"",""0""]",left_blue.png,left,,,,,,,,left,left_blue.png,down_orange.png,down,left,down,57bf14513c449a000189c89a,2021-09-11_16h45.03.508,arrow_simon_vert,2021.1.2,Win32,60.11783095,,,,,,,,,,,,,,,,,,,,,left,1,1.1838,11,FALSE,TRUE,2,2,10,2,1,,,,,,,
,,,,,,0,1.774932826,#f3af84,"[""0"",""0.25""]",up_orange.png,up,,,,,,,,right,right_blue.png,up_orange.png,up,right,up,57bf14513c449a000189c89a,2021-09-11_16h45.03.508,arrow_simon_vert,2021.1.2,Win32,60.11783095,,,,,,,,,,,,,,,,,,,,,up,1,1.336,12,FALSE,TRUE,2,3,11,1,1,,,,,,,
,,,,,,0,1.964173706,#a3d0fb,"[""0.25"",""0""]",right_blue.png,right,,,,,,,,right,right_blue.png,up_orange.png,up,right,up,57bf14513c449a000189c89a,2021-09-11_16h45.03.508,arrow_simon_vert,2021.1.2,Win32,60.11783095,,,,,,,,,,,,,,,,,,,,,right,1,1.5031,13,FALSE,FALSE,3,0,12,1,1,,,,,,,
,,,,,,0,1.832658017,#f3af84,"[""0"",""0.25""]",down_orange.png,down,,,,,,,,left,left_blue.png,down_orange.png,down,right,up,57bf14513c449a000189c89a,2021-09-11_16h45.03.508,arrow_simon_vert,2021.1.2,Win32,60.11783095,,,,,,,,,,,,,,,,,,,,,down,1,1.8337,14,TRUE,FALSE,3,1,13,3,1,,,,,,,
,,,,,,0,2.423557443,#a3d0fb,"[""-0.25"",""0""]",left_blue.png,left,,,,,,,,left,left_blue.png,down_orange.png,down,left,down,57bf14513c449a000189c89a,2021-09-11_16h45.03.508,arrow_simon_vert,2021.1.2,Win32,60.11783095,,,,,,,,,,,,,,,,,,,,,left,1,1.7528,15,TRUE,FALSE,3,2,14,2,1,,,,,,,
,,,,,,0,1.534002981,#f3af84,"[""0"",""0.25""]",up_orange.png,up,,,,,,,,right,right_blue.png,up_orange.png,up,right,up,57bf14513c449a000189c89a,2021-09-11_16h45.03.508,arrow_simon_vert,2021.1.2,Win32,60.11783095,,,,,,,,,,,,,,,,,,,,,up,1,1.2172,16,FALSE,TRUE,3,3,15,1,1,,,,,,,
,,,,,,0,1.524810686,#a3d0fb,"[""0.25"",""0""]",left_blue.png,left,,,,,,,,left,left_blue.png,down_orange.png,down,right,up,57bf14513c449a000189c89a,2021-09-11_16h45.03.508,arrow_simon_vert,2021.1.2,Win32,60.11783095,,,,,,,,,,,,,,,,,,,,,left,1,1.8051,17,TRUE,FALSE,4,0,16,3,1,,,,,,,
,,,,,,0,2.062443381,#f3af84,"[""0"",""-0.25""]",down_orange.png,down,,,,,,,,left,left_blue.png,down_orange.png,down,left,down,57bf14513c449a000189c89a,2021-09-11_16h45.03.508,arrow_simon_vert,2021.1.2,Win32,60.11783095,,,,,,,,,,,,,,,,,,,,,down,1,1.5415,18,FALSE,FALSE,4,1,17,2,1,,,,,,,
,,,,,,0,2.32409491,#a3d0fb,"[""0.25"",""0""]",right_blue.png,right,,,,,,,,right,right_blue.png,up_orange.png,up,right,up,57bf14513c449a000189c89a,2021-09-11_16h45.03.508,arrow_simon_vert,2021.1.2,Win32,60.11783095,,,,,,,,,,,,,,,,,,,,,right,1,1.8527,19,TRUE,FALSE,4,2,18,1,1,,,,,,,
,,,,,,0,1.815412543,#f3af84,"[""0"",""-0.25""]",down_orange.png,down,,,,,,,,left,left_blue.png,down_orange.png,down,left,down,57bf14513c449a000189c89a,2021-09-11_16h45.03.508,arrow_simon_vert,2021.1.2,Win32,60.11783095,,,,,,,,,,,,,,,,,,,,,down,1,1.5934,20,FALSE,FALSE,4,3,19,2,1,,,,,,,
,,,,,,0,2.357901242,#a3d0fb,"[""0.25"",""0""]",right_blue.png,right,,,,,,,,right,right_blue.png,up_orange.png,up,right,up,57bf14513c449a000189c89a,2021-09-11_16h45.03.508,arrow_simon_vert,2021.1.2,Win32,60.11783095,,,,,,,,,,,,,,,,,,,,,right,1,1.8426,21,TRUE,FALSE,5,0,20,1,1,,,,,,,
,,,,,,0,1.851454818,#f3af84,"[""0"",""-0.25""]",up_orange.png,up,,,,,,,,right,right_blue.png,up_orange.png,up,left,down,57bf14513c449a000189c89a,2021-09-11_16h45.03.508,arrow_simon_vert,2021.1.2,Win32,60.11783095,,,,,,,,,,,,,,,,,,,,,up,1,1.6215,22,TRUE,FALSE,5,1,21,0,1,,,,,,,
,,,,,,0,1.93979525,#a3d0fb,"[""-0.25"",""0""]",right_blue.png,right,,,,,,,,right,right_blue.png,up_orange.png,up,left,down,57bf14513c449a000189c89a,2021-09-11_16h45.03.508,arrow_simon_vert,2021.1.2,Win32,60.11783095,,,,,,,,,,,,,,,,,,,,,right,1,1.4492,23,FALSE,FALSE,5,2,22,0,1,,,,,,,
,,,,,,0,1.545409084,#f3af84,"[""0"",""-0.25""]",up_orange.png,up,,,,,,,,right,right_blue.png,up_orange.png,up,left,down,57bf14513c449a000189c89a,2021-09-11_16h45.03.508,arrow_simon_vert,2021.1.2,Win32,60.11783095,,,,,,,,,,,,,,,,,,,,,up,1,1.7946,24,TRUE,FALSE,5,3,23,0,1,,,,,,,
,,,,,,0,1.665806773,#a3d0fb,"[""-0.25"",""0""]",left_blue.png,left,,,,,,,,left,left_blue.png,down_orange.png,down,left,down,57bf14513c449a000189c89a,2021-09-11_16h45.03.508,arrow_simon_vert,2021.1.2,Win32,60.11783095,,,,,,,,,,,,,,,,,,,,,left,1,1.776,25,TRUE,FALSE,6,0,24,2,1,,,,,,,
,,,,,,0,2.250276921,#f3af84,"[""0"",""0.25""]",down_orange.png,down,,,,,,,,left,left_blue.png,down_orange.png,down,right,up,57bf14513c449a000189c89a,2021-09-11_16h45.03.508,arrow_simon_vert,2021.1.2,Win32,60.11783095,,,,,,,,,,,,,,,,,,,,,down,1,1.5918,26,FALSE,FALSE,6,1,25,3,1,,,,,,,
,,,,,,0,2.439189307,#a3d0fb,"[""0.25"",""0""]",left_blue.png,left,,,,,,,,left,left_blue.png,down_orange.png,down,right,up,57bf14513c449a000189c89a,2021-09-11_16h45.03.508,arrow_simon_vert,2021.1.2,Win32,60.11783095,,,,,,,,,,,,,,,,,,,,,left,1,1.9007,27,TRUE,FALSE,6,2,26,3,1,,,,,,,
,,,,,,0,1.510055924,#f3af84,"[""0"",""-0.25""]",up_orange.png,up,,,,,,,,right,right_blue.png,up_orange.png,up,left,down,57bf14513c449a000189c89a,2021-09-11_16h45.03.508,arrow_simon_vert,2021.1.2,Win32,60.11783095,,,,,,,,,,,,,,,,,,,,,up,1,1.6252,28,TRUE,FALSE,6,3,27,0,1,,,,,,,
,,,,,,0,1.803238966,#a3d0fb,"[""0.25"",""0""]",left_blue.png,left,,,,,,,,left,left_blue.png,down_orange.png,down,right,up,57bf14513c449a000189c89a,2021-09-11_16h45.03.508,arrow_simon_vert,2021.1.2,Win32,60.11783095,,,,,,,,,,,,,,,,,,,,,left,1,1.7749,29,TRUE,FALSE,7,0,28,3,1,,,,,,,
,,,,,,0,2.108997293,#f3af84,"[""0"",""0.25""]",down_orange.png,down,,,,,,,,left,left_blue.png,down_orange.png,down,right,up,57bf14513c449a000189c89a,2021-09-11_16h45.03.508,arrow_simon_vert,2021.1.2,Win32,60.11783095,,,,,,,,,,,,,,,,,,,,,down,1,1.4882,30,FALSE,FALSE,7,1,29,3,1,,,,,,,
,,,,,,0,2.245129267,#a3d0fb,"[""0.25"",""0""]",left_blue.png,left,,,,,,,,left,left_blue.png,down_orange.png,down,right,up,57bf14513c449a000189c89a,2021-09-11_16h45.03.508,arrow_simon_vert,2021.1.2,Win32,60.11783095,,,,,,,,,,,,,,,,,,,,,left,1,1.6593,31,TRUE,FALSE,7,2,30,3,1,,,,,,,
,,,,,,0,1.940639349,#f3af84,"[""0"",""0.25""]",up_orange.png,up,,,,,,,,right,right_blue.png,up_orange.png,up,right,up,57bf14513c449a000189c89a,2021-09-11_16h45.03.508,arrow_simon_vert,2021.1.2,Win32,60.11783095,,,,,,,,,,,,,,,,,,,,,up,1,1.6385,32,TRUE,FALSE,7,3,31,1,1,,,,,,,
,,,,,,0,1.773940888,#a3d0fb,"[""0.25"",""0""]",left_blue.png,left,,,,,,,,left,left_blue.png,down_orange.png,down,right,up,57bf14513c449a000189c89a,2021-09-11_16h45.03.508,arrow_simon_vert,2021.1.2,Win32,60.11783095,,,,,,,,,,,,,,,,,,,,,left,1,1.3576,33,FALSE,TRUE,8,0,32,3,1,,,,,,,
,,,,,,0,1.664617712,#f3af84,"[""0"",""0.25""]",up_orange.png,up,,,,,,,,right,right_blue.png,up_orange.png,up,right,up,57bf14513c449a000189c89a,2021-09-11_16h45.03.508,arrow_simon_vert,2021.1.2,Win32,60.11783095,,,,,,,,,,,,,,,,,,,,,up,1,1.5241,34,FALSE,FALSE,8,1,33,1,1,,,,,,,
,,,,,,0,1.646134544,#a3d0fb,"[""-0.25"",""0""]",right_blue.png,right,,,,,,,,right,right_blue.png,up_orange.png,up,left,down,57bf14513c449a000189c89a,2021-09-11_16h45.03.508,arrow_simon_vert,2021.1.2,Win32,60.11783095,,,,,,,,,,,,,,,,,,,,,right,1,1.5099,35,FALSE,FALSE,8,2,34,0,1,,,,,,,
,,,,,,0,1.781262775,#f3af84,"[""0"",""-0.25""]",down_orange.png,down,,,,,,,,left,left_blue.png,down_orange.png,down,left,down,57bf14513c449a000189c89a,2021-09-11_16h45.03.508,arrow_simon_vert,2021.1.2,Win32,60.11783095,,,,,,,,,,,,,,,,,,,,,down,1,1.4263,36,FALSE,FALSE,8,3,35,2,1,,,,,,,
,,,,,,0,2.418219753,#a3d0fb,"[""-0.25"",""0""]",right_blue.png,right,,,,,,,,right,right_blue.png,up_orange.png,up,left,down,57bf14513c449a000189c89a,2021-09-11_16h45.03.508,arrow_simon_vert,2021.1.2,Win32,60.11783095,,,,,,,,,,,,,,,,,,,,,left,0,1.7583,37,TRUE,FALSE,9,0,36,0,1,,,,,,,
,,,,,,0,1.630734583,#f3af84,"[""0"",""0.25""]",down_orange.png,down,,,,,,,,left,left_blue.png,down_orange.png,down,right,up,57bf14513c449a000189c89a,2021-09-11_16h45.03.508,arrow_simon_vert,2021.1.2,Win32,60.11783095,,,,,,,,,,,,,,,,,,,,,down,1,1.5107,38,FALSE,FALSE,9,1,37,3,1,,,,,,,
,,,,,,0,1.549778695,#a3d0fb,"[""0.25"",""0""]",right_blue.png,right,,,,,,,,right,right_blue.png,up_orange.png,up,right,up,57bf14513c449a000189c89a,2021-09-11_16h45.03.508,arrow_simon_vert,2021.1.2,Win32,60.11783095,,,,,,,,,,,,,,,,,,,,,right,1,1.5006,39,FALSE,FALSE,9,2,38,1,1,,,,,,,
,,,,,,0,1.75851487,#f3af84,"[""0"",""0.25""]",up_orange.png,up,,,,,,,,right,right_blue.png,up_orange.png,up,right,up,57bf14513c449a000189c89a,2021-09-11_16h45.03.508,arrow_simon_vert,2021.1.2,Win32,60.11783095,,,,,,,,,,,,,,,,,,,,,up,1,1.417,40,FALSE,FALSE,9,3,39,1,1,,,,,,,
,,,,,,0,2.060728627,#a3d0fb,"[""0.25"",""0""]",right_blue.png,right,,,,,,,,right,right_blue.png,up_orange.png,up,right,up,57bf14513c449a000189c89a,2021-09-11_16h45.03.508,arrow_simon_vert,2021.1.2,Win32,60.11783095,,,,,,,,,,,,,,,,,,,,,right,1,1.4504,41,FALSE,FALSE,10,0,40,1,1,,,,,,,
,,,,,,0,2.231929678,#f3af84,"[""0"",""-0.25""]",down_orange.png,down,,,,,,,,left,left_blue.png,down_orange.png,down,left,down,57bf14513c449a000189c89a,2021-09-11_16h45.03.508,arrow_simon_vert,2021.1.2,Win32,60.11783095,,,,,,,,,,,,,,,,,,,,,down,1,1.6897,42,TRUE,FALSE,10,1,41,2,1,,,,,,,
,,,,,,0,1.827806613,#a3d0fb,"[""0.25"",""0""]",right_blue.png,right,,,,,,,,right,right_blue.png,up_orange.png,up,right,up,57bf14513c449a000189c89a,2021-09-11_16h45.03.508,arrow_simon_vert,2021.1.2,Win32,60.11783095,,,,,,,,,,,,,,,,,,,,,right,1,1.7461,43,TRUE,FALSE,10,2,42,1,1,,,,,,,
,,,,,,0,1.672592366,#f3af84,"[""0"",""-0.25""]",up_orange.png,up,,,,,,,,right,right_blue.png,up_orange.png,up,left,down,57bf14513c449a000189c89a,2021-09-11_16h45.03.508,arrow_simon_vert,2021.1.2,Win32,60.11783095,,,,,,,,,,,,,,,,,,,,,up,1,1.3222,44,FALSE,TRUE,10,3,43,0,1,,,,,,,
,,,,,,0,1.844950079,#a3d0fb,"[""-0.25"",""0""]",right_blue.png,right,,,,,,,,right,right_blue.png,up_orange.png,up,left,down,57bf14513c449a000189c89a,2021-09-11_16h45.03.508,arrow_simon_vert,2021.1.2,Win32,60.11783095,,,,,,,,,,,,,,,,,,,,,right,1,1.6547,45,TRUE,FALSE,11,0,44,0,1,,,,,,,
,,,,,,0,2.109238494,#f3af84,"[""0"",""0.25""]",up_orange.png,up,,,,,,,,right,right_blue.png,up_orange.png,up,right,up,57bf14513c449a000189c89a,2021-09-11_16h45.03.508,arrow_simon_vert,2021.1.2,Win32,60.11783095,,,,,,,,,,,,,,,,,,,,,up,1,2.1455,46,TRUE,FALSE,11,1,45,1,1,,,,,,,
,,,,,,0,1.962883639,#a3d0fb,"[""0.25"",""0""]",right_blue.png,right,,,,,,,,right,right_blue.png,up_orange.png,up,right,up,57bf14513c449a000189c89a,2021-09-11_16h45.03.508,arrow_simon_vert,2021.1.2,Win32,60.11783095,,,,,,,,,,,,,,,,,,,,,right,1,1.6845,47,TRUE,FALSE,11,2,46,1,1,,,,,,,
,,,,,,0,2.319609456,#f3af84,"[""0"",""-0.25""]",up_orange.png,up,,,,,,,,right,right_blue.png,up_orange.png,up,left,down,57bf14513c449a000189c89a,2021-09-11_16h45.03.508,arrow_simon_vert,2021.1.2,Win32,60.11783095,,,,,,,,,,,,,,,,,,,,,up,1,1.8237,48,TRUE,FALSE,11,3,47,0,1,,,,,,,
,,,,,,0,2.362155587,#a3d0fb,"[""-0.25"",""0""]",left_blue.png,left,,,,,,,,left,left_blue.png,down_orange.png,down,left,down,57bf14513c449a000189c89a,2021-09-11_16h45.03.508,arrow_simon_vert,2021.1.2,Win32,60.11783095,,,,,,,,,,,,,,,,,,,,,left,1,1.8195,49,TRUE,FALSE,12,0,48,2,1,,,,,,,
,,,,,,0,1.560925513,#f3af84,"[""0"",""0.25""]",down_orange.png,down,,,,,,,,left,left_blue.png,down_orange.png,down,right,up,57bf14513c449a000189c89a,2021-09-11_16h45.03.508,arrow_simon_vert,2021.1.2,Win32,60.11783095,,,,,,,,,,,,,,,,,,,,,down,1,1.4336,50,FALSE,FALSE,12,1,49,3,1,,,,,,,
,,,,,,0,1.808274395,#a3d0fb,"[""-0.25"",""0""]",left_blue.png,left,,,,,,,,left,left_blue.png,down_orange.png,down,left,down,57bf14513c449a000189c89a,2021-09-11_16h45.03.508,arrow_simon_vert,2021.1.2,Win32,60.11783095,,,,,,,,,,,,,,,,,,,,,left,1,1.5282,51,FALSE,FALSE,12,2,50,2,1,,,,,,,
,,,,,,0,2.289935047,#f3af84,"[""0"",""-0.25""]",down_orange.png,down,,,,,,,,left,left_blue.png,down_orange.png,down,left,down,57bf14513c449a000189c89a,2021-09-11_16h45.03.508,arrow_simon_vert,2021.1.2,Win32,60.11783095,,,,,,,,,,,,,,,,,,,,,down,1,1.9764,52,TRUE,FALSE,12,3,51,2,1,,,,,,,
,,,,,,0,2.180839764,#a3d0fb,"[""0.25"",""0""]",right_blue.png,right,,,,,,,,right,right_blue.png,up_orange.png,up,right,up,57bf14513c449a000189c89a,2021-09-11_16h45.03.508,arrow_simon_vert,2021.1.2,Win32,60.11783095,,,,,,,,,,,,,,,,,,,,,right,1,1.6005,53,TRUE,FALSE,13,0,52,1,1,,,,,,,
,,,,,,0,2.132600082,#f3af84,"[""0"",""-0.25""]",down_orange.png,down,,,,,,,,left,left_blue.png,down_orange.png,down,left,down,57bf14513c449a000189c89a,2021-09-11_16h45.03.508,arrow_simon_vert,2021.1.2,Win32,60.11783095,,,,,,,,,,,,,,,,,,,,,down,1,1.4405,54,FALSE,FALSE,13,1,53,2,1,,,,,,,
,,,,,,0,1.68758419,#a3d0fb,"[""0.25"",""0""]",right_blue.png,right,,,,,,,,right,right_blue.png,up_orange.png,up,right,up,57bf14513c449a000189c89a,2021-09-11_16h45.03.508,arrow_simon_vert,2021.1.2,Win32,60.11783095,,,,,,,,,,,,,,,,,,,,,right,1,1.4439,55,FALSE,FALSE,13,2,54,1,1,,,,,,,
,,,,,,0,2.391016254,#f3af84,"[""0"",""-0.25""]",down_orange.png,down,,,,,,,,left,left_blue.png,down_orange.png,down,left,down,57bf14513c449a000189c89a,2021-09-11_16h45.03.508,arrow_simon_vert,2021.1.2,Win32,60.11783095,,,,,,,,,,,,,,,,,,,,,down,1,1.8171,56,TRUE,FALSE,13,3,55,2,1,,,,,,,
,,,,,,0,2.102063522,#a3d0fb,"[""-0.25"",""0""]",right_blue.png,right,,,,,,,,right,right_blue.png,up_orange.png,up,left,down,57bf14513c449a000189c89a,2021-09-11_16h45.03.508,arrow_simon_vert,2021.1.2,Win32,60.11783095,,,,,,,,,,,,,,,,,,,,,right,1,1.7847,57,TRUE,FALSE,14,0,56,0,1,,,,,,,
,,,,,,0,1.882930217,#f3af84,"[""0"",""0.25""]",down_orange.png,down,,,,,,,,left,left_blue.png,down_orange.png,down,right,up,57bf14513c449a000189c89a,2021-09-11_16h45.03.508,arrow_simon_vert,2021.1.2,Win32,60.11783095,,,,,,,,,,,,,,,,,,,,,down,1,1.7506,58,TRUE,FALSE,14,1,57,3,1,,,,,,,
,,,,,,0,1.787113054,#a3d0fb,"[""0.25"",""0""]",left_blue.png,left,,,,,,,,left,left_blue.png,down_orange.png,down,right,up,57bf14513c449a000189c89a,2021-09-11_16h45.03.508,arrow_simon_vert,2021.1.2,Win32,60.11783095,,,,,,,,,,,,,,,,,,,,,left,1,1.6066,59,TRUE,FALSE,14,2,58,3,1,,,,,,,
,,,,,,0,1.590908213,#f3af84,"[""0"",""-0.25""]",up_orange.png,up,,,,,,,,right,right_blue.png,up_orange.png,up,left,down,57bf14513c449a000189c89a,2021-09-11_16h45.03.508,arrow_simon_vert,2021.1.2,Win32,60.11783095,,,,,,,,,,,,,,,,,,,,,up,1,1.4381,60,FALSE,FALSE,14,3,59,0,1,,,,,,,
,,,,,,,,,,,,,,,,,,,,,,,,,57bf14513c449a000189c89a,2021-09-11_16h45.03.508,arrow_simon_vert,2021.1.2,Win32,60.11783095,,,,,,,,,,,,,,,,,,,,,,,,,,,,,,,,space,12.2637,0,0,0,0,1
,,,,,,0,2.195197486,#a3d0fb,"[""-0.25"",""0""]",right_blue.png,right,,,,,,,,right,right_blue.png,up_orange.png,up,left,down,57bf14513c449a000189c89a,2021-09-11_16h45.03.508,arrow_simon_vert,2021.1.2,Win32,60.11783095,,,,,,,,,,,,,,,,,,,,,right,1,1.7338,1,TRUE,FALSE,0,0,0,0,1,,,,,,,
,,,,,,1,1.984741271,#f3af84,"[""0"",""-0.25""]",up_orange.png,up,,,,,,,,right,right_blue.png,up_orange.png,up,left,down,57bf14513c449a000189c89a,2021-09-11_16h45.03.508,arrow_simon_vert,2021.1.2,Win32,60.11783095,,,,,,,,,,,,,,,,,,,,,down,0,1.5741,2,FALSE,FALSE,0,1,1,0,1,,,,,,,
,,,,,,1,1.583870822,#a3d0fb,"[""0.25"",""0""]",right_blue.png,right,,,,,,,,right,right_blue.png,up_orange.png,up,right,up,57bf14513c449a000189c89a,2021-09-11_16h45.03.508,arrow_simon_vert,2021.1.2,Win32,60.11783095,,,,,,,,,,,,,,,,,,,,,right,1,1.8876,3,TRUE,FALSE,0,2,2,1,1,,,,,,,
,,,,,,1,1.675133888,#f3af84,"[""0"",""0.25""]",up_orange.png,up,,,,,,,,right,right_blue.png,up_orange.png,up,right,up,57bf14513c449a000189c89a,2021-09-11_16h45.03.508,arrow_simon_vert,2021.1.2,Win32,60.11783095,,,,,,,,,,,,,,,,,,,,,up,1,1.0504,4,FALSE,TRUE,0,3,3,1,1,,,,,,,
,,,,,,0,1.956865618,#a3d0fb,"[""-0.25"",""0""]",right_blue.png,right,,,,,,,,right,right_blue.png,up_orange.png,up,left,down,57bf14513c449a000189c89a,2021-09-11_16h45.03.508,arrow_simon_vert,2021.1.2,Win32,60.11783095,,,,,,,,,,,,,,,,,,,,,right,1,1.516,5,FALSE,FALSE,1,0,4,0,1,,,,,,,
,,,,,,0,2.411785553,#f3af84,"[""0"",""-0.25""]",up_orange.png,up,,,,,,,,right,right_blue.png,up_orange.png,up,left,down,57bf14513c449a000189c89a,2021-09-11_16h45.03.508,arrow_simon_vert,2021.1.2,Win32,60.11783095,,,,,,,,,,,,,,,,,,,,,up,1,1.786,6,TRUE,FALSE,1,1,5,0,1,,,,,,,
,,,,,,0,2.050430021,#a3d0fb,"[""-0.25"",""0""]",left_blue.png,left,,,,,,,,left,left_blue.png,down_orange.png,down,left,down,57bf14513c449a000189c89a,2021-09-11_16h45.03.508,arrow_simon_vert,2021.1.2,Win32,60.11783095,,,,,,,,,,,,,,,,,,,,,left,1,1.5262,7,FALSE,FALSE,1,2,6,2,1,,,,,,,
,,,,,,0,1.766216125,#f3af84,"[""0"",""-0.25""]",down_orange.png,down,,,,,,,,left,left_blue.png,down_orange.png,down,left,down,57bf14513c449a000189c89a,2021-09-11_16h45.03.508,arrow_simon_vert,2021.1.2,Win32,60.11783095,,,,,,,,,,,,,,,,,,,,,down,1,1.2838,8,FALSE,TRUE,1,3,7,2,1,,,,,,,
,,,,,,0,2.046200259,#a3d0fb,"[""-0.25"",""0""]",left_blue.png,left,,,,,,,,left,left_blue.png,down_orange.png,down,left,down,57bf14513c449a000189c89a,2021-09-11_16h45.03.508,arrow_simon_vert,2021.1.2,Win32,60.11783095,,,,,,,,,,,,,,,,,,,,,left,1,1.654,9,TRUE,FALSE,2,0,8,2,1,,,,,,,
,,,,,,0,1.778094909,#f3af84,"[""0"",""-0.25""]",up_orange.png,up,,,,,,,,right,right_blue.png,up_orange.png,up,left,down,57bf14513c449a000189c89a,2021-09-11_16h45.03.508,arrow_simon_vert,2021.1.2,Win32,60.11783095,,,,,,,,,,,,,,,,,,,,,up,1,1.5127,10,FALSE,FALSE,2,1,9,0,1,,,,,,,
,,,,,,0,2.192427516,#a3d0fb,"[""0.25"",""0""]",right_blue.png,right,,,,,,,,right,right_blue.png,up_orange.png,up,right,up,57bf14513c449a000189c89a,2021-09-11_16h45.03.508,arrow_simon_vert,2021.1.2,Win32,60.11783095,,,,,,,,,,,,,,,,,,,,,right,1,1.5713,11,FALSE,FALSE,2,2,10,1,1,,,,,,,
,,,,,,0,1.546506928,#f3af84,"[""0"",""-0.25""]",down_orange.png,down,,,,,,,,left,left_blue.png,down_orange.png,down,left,down,57bf14513c449a000189c89a,2021-09-11_16h45.03.508,arrow_simon_vert,2021.1.2,Win32,60.11783095,,,,,,,,,,,,,,,,,,,,,down,1,0.9743,12,FALSE,TRUE,2,3,11,2,1,,,,,,,
,,,,,,1,2.19189725,#a3d0fb,"[""0.25"",""0""]",left_blue.png,left,,,,,,,,left,left_blue.png,down_orange.png,down,right,up,57bf14513c449a000189c89a,2021-09-11_16h45.03.508,arrow_simon_vert,2021.1.2,Win32,60.11783095,,,,,,,,,,,,,,,,,,,,,down,0,1.5708,13,FALSE,FALSE,3,0,12,3,1,,,,,,,
,,,,,,1,1.535267625,#f3af84,"[""0"",""0.25""]",down_orange.png,down,,,,,,,,left,left_blue.png,down_orange.png,down,right,up,57bf14513c449a000189c89a,2021-09-11_16h45.03.508,arrow_simon_vert,2021.1.2,Win32,60.11783095,,,,,,,,,,,,,,,,,,,,,down,1,1.2348,14,FALSE,TRUE,3,1,13,3,1,,,,,,,
,,,,,,0,1.938257665,#a3d0fb,"[""-0.25"",""0""]",left_blue.png,left,,,,,,,,left,left_blue.png,down_orange.png,down,left,down,57bf14513c449a000189c89a,2021-09-11_16h45.03.508,arrow_simon_vert,2021.1.2,Win32,60.11783095,,,,,,,,,,,,,,,,,,,,,left,1,1.5004,15,FALSE,FALSE,3,2,14,2,1,,,,,,,
,,,,,,0,1.575896993,#f3af84,"[""0"",""-0.25""]",up_orange.png,up,,,,,,,,right,right_blue.png,up_orange.png,up,left,down,57bf14513c449a000189c89a,2021-09-11_16h45.03.508,arrow_simon_vert,2021.1.2,Win32,60.11783095,,,,,,,,,,,,,,,,,,,,,up,1,1.4344,16,FALSE,FALSE,3,3,15,0,1,,,,,,,
,,,,,,0,1.786080887,#a3d0fb,"[""0.25"",""0""]",left_blue.png,left,,,,,,,,left,left_blue.png,down_orange.png,down,right,up,57bf14513c449a000189c89a,2021-09-11_16h45.03.508,arrow_simon_vert,2021.1.2,Win32,60.11783095,,,,,,,,,,,,,,,,,,,,,left,1,1.4075,17,FALSE,FALSE,4,0,16,3,1,,,,,,,
,,,,,,0,2.425282542,#f3af84,"[""0"",""0.25""]",down_orange.png,down,,,,,,,,left,left_blue.png,down_orange.png,down,right,up,57bf14513c449a000189c89a,2021-09-11_16h45.03.508,arrow_simon_vert,2021.1.2,Win32,60.11783095,,,,,,,,,,,,,,,,,,,,,down,1,1.8176,18,TRUE,FALSE,4,1,17,3,1,,,,,,,
,,,,,,0,1.925786557,#a3d0fb,"[""0.25"",""0""]",left_blue.png,left,,,,,,,,left,left_blue.png,down_orange.png,down,right,up,57bf14513c449a000189c89a,2021-09-11_16h45.03.508,arrow_simon_vert,2021.1.2,Win32,60.11783095,,,,,,,,,,,,,,,,,,,,,left,1,1.5839,19,FALSE,FALSE,4,2,18,3,1,,,,,,,
,,,,,,0,2.423150903,#f3af84,"[""0"",""-0.25""]",down_orange.png,down,,,,,,,,left,left_blue.png,down_orange.png,down,left,down,57bf14513c449a000189c89a,2021-09-11_16h45.03.508,arrow_simon_vert,2021.1.2,Win32,60.11783095,,,,,,,,,,,,,,,,,,,,,down,1,1.8658,20,TRUE,FALSE,4,3,19,2,1,,,,,,,
,,,,,,0,1.54388472,#a3d0fb,"[""-0.25"",""0""]",right_blue.png,right,,,,,,,,right,right_blue.png,up_orange.png,up,left,down,57bf14513c449a000189c89a,2021-09-11_16h45.03.508,arrow_simon_vert,2021.1.2,Win32,60.11783095,,,,,,,,,,,,,,,,,,,,,right,1,1.554,21,FALSE,FALSE,5,0,20,0,1,,,,,,,
,,,,,,0,2.496834005,#f3af84,"[""0"",""-0.25""]",down_orange.png,down,,,,,,,,left,left_blue.png,down_orange.png,down,left,down,57bf14513c449a000189c89a,2021-09-11_16h45.03.508,arrow_simon_vert,2021.1.2,Win32,60.11783095,,,,,,,,,,,,,,,,,,,,,down,1,1.9287,22,TRUE,FALSE,5,1,21,2,1,,,,,,,
,,,,,,0,1.760636132,#a3d0fb,"[""0.25"",""0""]",right_blue.png,right,,,,,,,,right,right_blue.png,up_orange.png,up,right,up,57bf14513c449a000189c89a,2021-09-11_16h45.03.508,arrow_simon_vert,2021.1.2,Win32,60.11783095,,,,,,,,,,,,,,,,,,,,,right,1,1.4904,23,FALSE,FALSE,5,2,22,1,1,,,,,,,
,,,,,,1,2.102000204,#f3af84,"[""0"",""-0.25""]",up_orange.png,up,,,,,,,,right,right_blue.png,up_orange.png,up,left,down,57bf14513c449a000189c89a,2021-09-11_16h45.03.508,arrow_simon_vert,2021.1.2,Win32,60.11783095,,,,,,,,,,,,,,,,,,,,,down,0,1.5196,24,FALSE,FALSE,5,3,23,0,1,,,,,,,
,,,,,,1,1.826017024,#a3d0fb,"[""0.25"",""0""]",left_blue.png,left,,,,,,,,left,left_blue.png,down_orange.png,down,right,up,57bf14513c449a000189c89a,2021-09-11_16h45.03.508,arrow_simon_vert,2021.1.2,Win32,60.11783095,,,,,,,,,,,,,,,,,,,,,left,1,2.0953,25,TRUE,FALSE,6,0,24,3,1,,,,,,,
,,,,,,1,2.39273327,#f3af84,"[""0"",""0.25""]",up_orange.png,up,,,,,,,,right,right_blue.png,up_orange.png,up,right,up,57bf14513c449a000189c89a,2021-09-11_16h45.03.508,arrow_simon_vert,2021.1.2,Win32,60.11783095,,,,,,,,,,,,,,,,,,,,,up,1,1.7228,26,TRUE,FALSE,6,1,25,1,1,,,,,,,
,,,,,,0,1.818279395,#a3d0fb,"[""-0.25"",""0""]",left_blue.png,left,,,,,,,,left,left_blue.png,down_orange.png,down,left,down,57bf14513c449a000189c89a,2021-09-11_16h45.03.508,arrow_simon_vert,2021.1.2,Win32,60.11783095,,,,,,,,,,,,,,,,,,,,,left,1,1.5344,27,FALSE,FALSE,6,2,26,2,1,,,,,,,
,,,,,,0,1.676644542,#f3af84,"[""0"",""-0.25""]",up_orange.png,up,,,,,,,,right,right_blue.png,up_orange.png,up,left,down,57bf14513c449a000189c89a,2021-09-11_16h45.03.508,arrow_simon_vert,2021.1.2,Win32,60.11783095,,,,,,,,,,,,,,,,,,,,,up,1,1.518,28,FALSE,FALSE,6,3,27,0,1,,,,,,,
,,,,,,0,2.079489012,#a3d0fb,"[""-0.25"",""0""]",right_blue.png,right,,,,,,,,right,right_blue.png,up_orange.png,up,left,down,57bf14513c449a000189c89a,2021-09-11_16h45.03.508,arrow_simon_vert,2021.1.2,Win32,60.11783095,,,,,,,,,,,,,,,,,,,,,right,1,1.6508,29,TRUE,FALSE,7,0,28,0,1,,,,,,,
,,,,,,0,2.061531029,#f3af84,"[""0"",""0.25""]",down_orange.png,down,,,,,,,,left,left_blue.png,down_orange.png,down,right,up,57bf14513c449a000189c89a,2021-09-11_16h45.03.508,arrow_simon_vert,2021.1.2,Win32,60.11783095,,,,,,,,,,,,,,,,,,,,,up,0,1.7338,30,TRUE,FALSE,7,1,29,3,1,,,,,,,
,,,,,,0,2.264402357,#a3d0fb,"[""0.25"",""0""]",right_blue.png,right,,,,,,,,right,right_blue.png,up_orange.png,up,right,up,57bf14513c449a000189c89a,2021-09-11_16h45.03.508,arrow_simon_vert,2021.1.2,Win32,60.11783095,,,,,,,,,,,,,,,,,,,,,right,1,1.6449,31,TRUE,FALSE,7,2,30,1,1,,,,,,,
,,,,,,0,2.163271031,#f3af84,"[""0"",""-0.25""]",up_orange.png,up,,,,,,,,right,right_blue.png,up_orange.png,up,left,down,57bf14513c449a000189c89a,2021-09-11_16h45.03.508,arrow_simon_vert,2021.1.2,Win32,60.11783095,,,,,,,,,,,,,,,,,,,,,up,1,1.754,32,TRUE,FALSE,7,3,31,0,1,,,,,,,
,,,,,,0,1.501441509,#a3d0fb,"[""0.25"",""0""]",right_blue.png,right,,,,,,,,right,right_blue.png,up_orange.png,up,right,up,57bf14513c449a000189c89a,2021-09-11_16h45.03.508,arrow_simon_vert,2021.1.2,Win32,60.11783095,,,,,,,,,,,,,,,,,,,,,right,1,1.3726,33,FALSE,TRUE,8,0,32,1,1,,,,,,,
,,,,,,0,2.271342164,#f3af84,"[""0"",""0.25""]",down_orange.png,down,,,,,,,,left,left_blue.png,down_orange.png,down,right,up,57bf14513c449a000189c89a,2021-09-11_16h45.03.508,arrow_simon_vert,2021.1.2,Win32,60.11783095,,,,,,,,,,,,,,,,,,,,,down,1,1.8105,34,TRUE,FALSE,8,1,33,3,1,,,,,,,
,,,,,,0,2.060953689,#a3d0fb,"[""0.25"",""0""]",right_blue.png,right,,,,,,,,right,right_blue.png,up_orange.png,up,right,up,57bf14513c449a000189c89a,2021-09-11_16h45.03.508,arrow_simon_vert,2021.1.2,Win32,60.11783095,,,,,,,,,,,,,,,,,,,,,right,1,1.521,35,FALSE,FALSE,8,2,34,1,1,,,,,,,
,,,,,,0,2.023130846,#f3af84,"[""0"",""-0.25""]",down_orange.png,down,,,,,,,,left,left_blue.png,down_orange.png,down,left,down,57bf14513c449a000189c89a,2021-09-11_16h45.03.508,arrow_simon_vert,2021.1.2,Win32,60.11783095,,,,,,,,,,,,,,,,,,,,,down,1,1.6607,36,TRUE,FALSE,8,3,35,2,1,,,,,,,
,,,,,,0,2.411839072,#a3d0fb,"[""0.25"",""0""]",left_blue.png,left,,,,,,,,left,left_blue.png,down_orange.png,down,right,up,57bf14513c449a000189c89a,2021-09-11_16h45.03.508,arrow_simon_vert,2021.1.2,Win32,60.11783095,,,,,,,,,,,,,,,,,,,,,left,1,1.8553,37,TRUE,FALSE,9,0,36,3,1,,,,,,,
,,,,,,0,2.092825849,#f3af84,"[""0"",""0.25""]",down_orange.png,down,,,,,,,,left,left_blue.png,down_orange.png,down,right,up,57bf14513c449a000189c89a,2021-09-11_16h45.03.508,arrow_simon_vert,2021.1.2,Win32,60.11783095,,,,,,,,,,,,,,,,,,,,,down,1,0.9505,38,FALSE,TRUE,9,1,37,3,1,,,,,,,
,,,,,,0,2.338529114,#a3d0fb,"[""-0.25"",""0""]",left_blue.png,left,,,,,,,,left,left_blue.png,down_orange.png,down,left,down,57bf14513c449a000189c89a,2021-09-11_16h45.03.508,arrow_simon_vert,2021.1.2,Win32,60.11783095,,,,,,,,,,,,,,,,,,,,,left,1,1.7183,39,TRUE,FALSE,9,2,38,2,1,,,,,,,
,,,,,,0,1.585522376,#f3af84,"[""0"",""-0.25""]",down_orange.png,down,,,,,,,,left,left_blue.png,down_orange.png,down,left,down,57bf14513c449a000189c89a,2021-09-11_16h45.03.508,arrow_simon_vert,2021.1.2,Win32,60.11783095,,,,,,,,,,,,,,,,,,,,,down,1,1.3181,40,FALSE,TRUE,9,3,39,2,1,,,,,,,
,,,,,,0,2.323072434,#a3d0fb,"[""0.25"",""0""]",right_blue.png,right,,,,,,,,right,right_blue.png,up_orange.png,up,right,up,57bf14513c449a000189c89a,2021-09-11_16h45.03.508,arrow_simon_vert,2021.1.2,Win32,60.11783095,,,,,,,,,,,,,,,,,,,,,right,1,2.0339,41,TRUE,FALSE,10,0,40,1,1,,,,,,,
,,,,,,0,2.485550035,#f3af84,"[""0"",""0.25""]",down_orange.png,down,,,,,,,,left,left_blue.png,down_orange.png,down,right,up,57bf14513c449a000189c89a,2021-09-11_16h45.03.508,arrow_simon_vert,2021.1.2,Win32,60.11783095,,,,,,,,,,,,,,,,,,,,,up,0,1.943,42,TRUE,FALSE,10,1,41,3,1,,,,,,,
,,,,,,0,1.944478919,#a3d0fb,"[""0.25"",""0""]",right_blue.png,right,,,,,,,,right,right_blue.png,up_orange.png,up,right,up,57bf14513c449a000189c89a,2021-09-11_16h45.03.508,arrow_simon_vert,2021.1.2,Win32,60.11783095,,,,,,,,,,,,,,,,,,,,,right,1,1.6382,43,TRUE,FALSE,10,2,42,1,1,,,,,,,
,,,,,,0,1.62670275,#f3af84,"[""0"",""0.25""]",up_orange.png,up,,,,,,,,right,right_blue.png,up_orange.png,up,right,up,57bf14513c449a000189c89a,2021-09-11_16h45.03.508,arrow_simon_vert,2021.1.2,Win32,60.11783095,,,,,,,,,,,,,,,,,,,,,up,1,1.8754,44,TRUE,FALSE,10,3,43,1,1,,,,,,,
,,,,,,0,2.256038108,#a3d0fb,"[""-0.25"",""0""]",right_blue.png,right,,,,,,,,right,right_blue.png,up_orange.png,up,left,down,57bf14513c449a000189c89a,2021-09-11_16h45.03.508,arrow_simon_vert,2021.1.2,Win32,60.11783095,,,,,,,,,,,,,,,,,,,,,right,1,1.787,45,TRUE,FALSE,11,0,44,0,1,,,,,,,
,,,,,,0,2.071081428,#f3af84,"[""0"",""0.25""]",down_orange.png,down,,,,,,,,left,left_blue.png,down_orange.png,down,right,up,57bf14513c449a000189c89a,2021-09-11_16h45.03.508,arrow_simon_vert,2021.1.2,Win32,60.11783095,,,,,,,,,,,,,,,,,,,,,down,1,1.5507,46,FALSE,FALSE,11,1,45,3,1,,,,,,,
,,,,,,1,2.146386586,#a3d0fb,"[""-0.25"",""0""]",right_blue.png,right,,,,,,,,right,right_blue.png,up_orange.png,up,left,down,57bf14513c449a000189c89a,2021-09-11_16h45.03.508,arrow_simon_vert,2021.1.2,Win32,60.11783095,,,,,,,,,,,,,,,,,,,,,left,0,1.5032,47,FALSE,FALSE,11,2,46,0,1,,,,,,,
,,,,,,1,1.602636004,#f3af84,"[""0"",""-0.25""]",down_orange.png,down,,,,,,,,left,left_blue.png,down_orange.png,down,left,down,57bf14513c449a000189c89a,2021-09-11_16h45.03.508,arrow_simon_vert,2021.1.2,Win32,60.11783095,,,,,,,,,,,,,,,,,,,,,down,1,1.308,48,FALSE,TRUE,11,3,47,2,1,,,,,,,
,,,,,,0,1.796226914,#a3d0fb,"[""0.25"",""0""]",right_blue.png,right,,,,,,,,right,right_blue.png,up_orange.png,up,right,up,57bf14513c449a000189c89a,2021-09-11_16h45.03.508,arrow_simon_vert,2021.1.2,Win32,60.11783095,,,,,,,,,,,,,,,,,,,,,right,1,1.4838,49,FALSE,FALSE,12,0,48,1,1,,,,,,,
,,,,,,0,2.011434253,#f3af84,"[""0"",""-0.25""]",up_orange.png,up,,,,,,,,right,right_blue.png,up_orange.png,up,left,down,57bf14513c449a000189c89a,2021-09-11_16h45.03.508,arrow_simon_vert,2021.1.2,Win32,60.11783095,,,,,,,,,,,,,,,,,,,,,up,1,1.6625,50,TRUE,FALSE,12,1,49,0,1,,,,,,,
,,,,,,0,1.81269379,#a3d0fb,"[""0.25"",""0""]",left_blue.png,left,,,,,,,,left,left_blue.png,down_orange.png,down,right,up,57bf14513c449a000189c89a,2021-09-11_16h45.03.508,arrow_simon_vert,2021.1.2,Win32,60.11783095,,,,,,,,,,,,,,,,,,,,,left,1,1.4609,51,FALSE,FALSE,12,2,50,3,1,,,,,,,
,,,,,,0,1.860885587,#f3af84,"[""0"",""-0.25""]",down_orange.png,down,,,,,,,,left,left_blue.png,down_orange.png,down,left,down,57bf14513c449a000189c89a,2021-09-11_16h45.03.508,arrow_simon_vert,2021.1.2,Win32,60.11783095,,,,,,,,,,,,,,,,,,,,,down,1,1.5276,52,FALSE,FALSE,12,3,51,2,1,,,,,,,
,,,,,,0,1.970333622,#a3d0fb,"[""0.25"",""0""]",right_blue.png,right,,,,,,,,right,right_blue.png,up_orange.png,up,right,up,57bf14513c449a000189c89a,2021-09-11_16h45.03.508,arrow_simon_vert,2021.1.2,Win32,60.11783095,,,,,,,,,,,,,,,,,,,,,right,1,1.5005,53,FALSE,FALSE,13,0,52,1,1,,,,,,,
,,,,,,0,1.970998283,#f3af84,"[""0"",""-0.25""]",down_orange.png,down,,,,,,,,left,left_blue.png,down_orange.png,down,left,down,57bf14513c449a000189c89a,2021-09-11_16h45.03.508,arrow_simon_vert,2021.1.2,Win32,60.11783095,,,,,,,,,,,,,,,,,,,,,down,1,1.4937,54,FALSE,FALSE,13,1,53,2,1,,,,,,,
,,,,,,0,2.261947248,#a3d0fb,"[""-0.25"",""0""]",left_blue.png,left,,,,,,,,left,left_blue.png,down_orange.png,down,left,down,57bf14513c449a000189c89a,2021-09-11_16h45.03.508,arrow_simon_vert,2021.1.2,Win32,60.11783095,,,,,,,,,,,,,,,,,,,,,left,1,1.7029,55,TRUE,FALSE,13,2,54,2,1,,,,,,,
,,,,,,0,2.213697855,#f3af84,"[""0"",""-0.25""]",up_orange.png,up,,,,,,,,right,right_blue.png,up_orange.png,up,left,down,57bf14513c449a000189c89a,2021-09-11_16h45.03.508,arrow_simon_vert,2021.1.2,Win32,60.11783095,,,,,,,,,,,,,,,,,,,,,up,1,1.7618,56,TRUE,FALSE,13,3,55,0,1,,,,,,,
,,,,,,0,1.813083068,#a3d0fb,"[""0.25"",""0""]",right_blue.png,right,,,,,,,,right,right_blue.png,up_orange.png,up,right,up,57bf14513c449a000189c89a,2021-09-11_16h45.03.508,arrow_simon_vert,2021.1.2,Win32,60.11783095,,,,,,,,,,,,,,,,,,,,,right,1,1.6597,57,TRUE,FALSE,14,0,56,1,1,,,,,,,
,,,,,,0,1.817417673,#f3af84,"[""0"",""0.25""]",down_orange.png,down,,,,,,,,left,left_blue.png,down_orange.png,down,right,up,57bf14513c449a000189c89a,2021-09-11_16h45.03.508,arrow_simon_vert,2021.1.2,Win32,60.11783095,,,,,,,,,,,,,,,,,,,,,down,1,1.6224,58,TRUE,FALSE,14,1,57,3,1,,,,,,,
,,,,,,0,1.941383412,#a3d0fb,"[""0.25"",""0""]",right_blue.png,right,,,,,,,,right,right_blue.png,up_orange.png,up,right,up,57bf14513c449a000189c89a,2021-09-11_16h45.03.508,arrow_simon_vert,2021.1.2,Win32,60.11783095,,,,,,,,,,,,,,,,,,,,,right,1,1.9964,59,TRUE,FALSE,14,2,58,1,1,,,,,,,
,,,,,,0,1.799693182,#f3af84,"[""0"",""0.25""]",down_orange.png,down,,,,,,,,left,left_blue.png,down_orange.png,down,right,up,57bf14513c449a000189c89a,2021-09-11_16h45.03.508,arrow_simon_vert,2021.1.2,Win32,60.11783095,,,,,,,,,,,,,,,,,,,,,down,1,1.4292,60,FALSE,FALSE,14,3,59,3,1,,,,,,,
,,,,,,,,,,,,,,,,,,,,,,,,,57bf14513c449a000189c89a,2021-09-11_16h45.03.508,arrow_simon_vert,2021.1.2,Win32,60.11783095,,,,,,,,,,,,,,,,,,,,,,,,,,,,,,,,space,10.3481,1,0,1,0,1
,,,,,,0,2.42816466,#a3d0fb,"[""-0.25"",""0""]",left_blue.png,left,,,,,,,,left,left_blue.png,down_orange.png,down,left,down,57bf14513c449a000189c89a,2021-09-11_16h45.03.508,arrow_simon_vert,2021.1.2,Win32,60.11783095,,,,,,,,,,,,,,,,,,,,,left,1,1.8255,1,TRUE,FALSE,0,0,0,2,1,,,,,,,
,,,,,,0,2.1942588,#f3af84,"[""0"",""-0.25""]",down_orange.png,down,,,,,,,,left,left_blue.png,down_orange.png,down,left,down,57bf14513c449a000189c89a,2021-09-11_16h45.03.508,arrow_simon_vert,2021.1.2,Win32,60.11783095,,,,,,,,,,,,,,,,,,,,,down,1,1.5432,2,FALSE,FALSE,0,1,1,2,1,,,,,,,
,,,,,,0,1.839511599,#a3d0fb,"[""0.25"",""0""]",right_blue.png,right,,,,,,,,right,right_blue.png,up_orange.png,up,right,up,57bf14513c449a000189c89a,2021-09-11_16h45.03.508,arrow_simon_vert,2021.1.2,Win32,60.11783095,,,,,,,,,,,,,,,,,,,,,right,1,1.4885,3,FALSE,FALSE,0,2,2,1,1,,,,,,,
,,,,,,0,1.691525676,#f3af84,"[""0"",""-0.25""]",down_orange.png,down,,,,,,,,left,left_blue.png,down_orange.png,down,left,down,57bf14513c449a000189c89a,2021-09-11_16h45.03.508,arrow_simon_vert,2021.1.2,Win32,60.11783095,,,,,,,,,,,,,,,,,,,,,down,1,1.3837,4,FALSE,TRUE,0,3,3,2,1,,,,,,,
,,,,,,0,2.460398957,#a3d0fb,"[""-0.25"",""0""]",left_blue.png,left,,,,,,,,left,left_blue.png,down_orange.png,down,left,down,57bf14513c449a000189c89a,2021-09-11_16h45.03.508,arrow_simon_vert,2021.1.2,Win32,60.11783095,,,,,,,,,,,,,,,,,,,,,left,1,1.7946,5,TRUE,FALSE,1,0,4,2,1,,,,,,,
,,,,,,0,2.300806577,#f3af84,"[""0"",""-0.25""]",up_orange.png,up,,,,,,,,right,right_blue.png,up_orange.png,up,left,down,57bf14513c449a000189c89a,2021-09-11_16h45.03.508,arrow_simon_vert,2021.1.2,Win32,60.11783095,,,,,,,,,,,,,,,,,,,,,down,0,1.6098,6,TRUE,FALSE,1,1,5,0,1,,,,,,,
,,,,,,0,2.182929124,#a3d0fb,"[""0.25"",""0""]",right_blue.png,right,,,,,,,,right,right_blue.png,up_orange.png,up,right,up,57bf14513c449a000189c89a,2021-09-11_16h45.03.508,arrow_simon_vert,2021.1.2,Win32,60.11783095,,,,,,,,,,,,,,,,,,,,,right,1,1.5991,7,FALSE,FALSE,1,2,6,1,1,,,,,,,
,,,,,,0,2.435979348,#f3af84,"[""0"",""0.25""]",up_orange.png,up,,,,,,,,right,right_blue.png,up_orange.png,up,right,up,57bf14513c449a000189c89a,2021-09-11_16h45.03.508,arrow_simon_vert,2021.1.2,Win32,60.11783095,,,,,,,,,,,,,,,,,,,,,up,1,1.7033,8,TRUE,FALSE,1,3,7,1,1,,,,,,,
,,,,,,0,1.8486428,#a3d0fb,"[""0.25"",""0""]",left_blue.png,left,,,,,,,,left,left_blue.png,down_orange.png,down,right,up,57bf14513c449a000189c89a,2021-09-11_16h45.03.508,arrow_simon_vert,2021.1.2,Win32,60.11783095,,,,,,,,,,,,,,,,,,,,,left,1,1.538,9,FALSE,FALSE,2,0,8,3,1,,,,,,,
,,,,,,0,1.749498464,#f3af84,"[""0"",""-0.25""]",down_orange.png,down,,,,,,,,left,left_blue.png,down_orange.png,down,left,down,57bf14513c449a000189c89a,2021-09-11_16h45.03.508,arrow_simon_vert,2021.1.2,Win32,60.11783095,,,,,,,,,,,,,,,,,,,,,down,1,1.5507,10,FALSE,FALSE,2,1,9,2,1,,,,,,,
,,,,,,0,2.323553601,#a3d0fb,"[""0.25"",""0""]",left_blue.png,left,,,,,,,,left,left_blue.png,down_orange.png,down,right,up,57bf14513c449a000189c89a,2021-09-11_16h45.03.508,arrow_simon_vert,2021.1.2,Win32,60.11783095,,,,,,,,,,,,,,,,,,,,,left,1,1.6597,11,TRUE,FALSE,2,2,10,3,1,,,,,,,
,,,,,,0,2.116941133,#f3af84,"[""0"",""-0.25""]",up_orange.png,up,,,,,,,,right,right_blue.png,up_orange.png,up,left,down,57bf14513c449a000189c89a,2021-09-11_16h45.03.508,arrow_simon_vert,2021.1.2,Win32,60.11783095,,,,,,,,,,,,,,,,,,,,,up,1,1.7362,12,TRUE,FALSE,2,3,11,0,1,,,,,,,
,,,,,,0,1.878717579,#a3d0fb,"[""-0.25"",""0""]",right_blue.png,right,,,,,,,,right,right_blue.png,up_orange.png,up,left,down,57bf14513c449a000189c89a,2021-09-11_16h45.03.508,arrow_simon_vert,2021.1.2,Win32,60.11783095,,,,,,,,,,,,,,,,,,,,,right,1,1.4196,13,FALSE,FALSE,3,0,12,0,1,,,,,,,
,,,,,,0,2.396023732,#f3af84,"[""0"",""0.25""]",up_orange.png,up,,,,,,,,right,right_blue.png,up_orange.png,up,right,up,57bf14513c449a000189c89a,2021-09-11_16h45.03.508,arrow_simon_vert,2021.1.2,Win32,60.11783095,,,,,,,,,,,,,,,,,,,,,up,1,1.8173,14,TRUE,FALSE,3,1,13,1,1,,,,,,,
,,,,,,1,2.144943504,#a3d0fb,"[""-0.25"",""0""]",right_blue.png,right,,,,,,,,right,right_blue.png,up_orange.png,up,left,down,57bf14513c449a000189c89a,2021-09-11_16h45.03.508,arrow_simon_vert,2021.1.2,Win32,60.11783095,,,,,,,,,,,,,,,,,,,,,left,0,1.5729,15,FALSE,FALSE,3,2,14,0,1,,,,,,,
,,,,,,1,2.094688112,#f3af84,"[""0"",""0.25""]",up_orange.png,up,,,,,,,,right,right_blue.png,up_orange.png,up,right,up,57bf14513c449a000189c89a,2021-09-11_16h45.03.508,arrow_simon_vert,2021.1.2,Win32,60.11783095,,,,,,,,,,,,,,,,,,,,,up,1,1.8066,16,TRUE,FALSE,3,3,15,1,1,,,,,,,
,,,,,,1,1.529131958,#a3d0fb,"[""-0.25"",""0""]",left_blue.png,left,,,,,,,,left,left_blue.png,down_orange.png,down,left,down,57bf14513c449a000189c89a,2021-09-11_16h45.03.508,arrow_simon_vert,2021.1.2,Win32,60.11783095,,,,,,,,,,,,,,,,,,,,,left,1,1.3552,17,FALSE,TRUE,4,0,16,2,1,,,,,,,
,,,,,,1,1.573123899,#f3af84,"[""0"",""-0.25""]",up_orange.png,up,,,,,,,,right,right_blue.png,up_orange.png,up,left,down,57bf14513c449a000189c89a,2021-09-11_16h45.03.508,arrow_simon_vert,2021.1.2,Win32,60.11783095,,,,,,,,,,,,,,,,,,,,,up,1,1.6197,18,TRUE,FALSE,4,1,17,0,1,,,,,,,
,,,,,,0,2.089302161,#a3d0fb,"[""0.25"",""0""]",right_blue.png,right,,,,,,,,right,right_blue.png,up_orange.png,up,right,up,57bf14513c449a000189c89a,2021-09-11_16h45.03.508,arrow_simon_vert,2021.1.2,Win32,60.11783095,,,,,,,,,,,,,,,,,,,,,right,1,1.5505,19,FALSE,FALSE,4,2,18,1,1,,,,,,,
,,,,,,0,2.45555798,#f3af84,"[""0"",""-0.25""]",down_orange.png,down,,,,,,,,left,left_blue.png,down_orange.png,down,left,down,57bf14513c449a000189c89a,2021-09-11_16h45.03.508,arrow_simon_vert,2021.1.2,Win32,60.11783095,,,,,,,,,,,,,,,,,,,,,down,1,2.1856,20,TRUE,FALSE,4,3,19,2,1,,,,,,,
,,,,,,0,2.372262088,#a3d0fb,"[""-0.25"",""0""]",left_blue.png,left,,,,,,,,left,left_blue.png,down_orange.png,down,left,down,57bf14513c449a000189c89a,2021-09-11_16h45.03.508,arrow_simon_vert,2021.1.2,Win32,60.11783095,,,,,,,,,,,,,,,,,,,,,left,1,1.785,21,TRUE,FALSE,5,0,20,2,1,,,,,,,
,,,,,,0,1.99117951,#f3af84,"[""0"",""0.25""]",down_orange.png,down,,,,,,,,left,left_blue.png,down_orange.png,down,right,up,57bf14513c449a000189c89a,2021-09-11_16h45.03.508,arrow_simon_vert,2021.1.2,Win32,60.11783095,,,,,,,,,,,,,,,,,,,,,down,1,1.4423,22,FALSE,FALSE,5,1,21,3,1,,,,,,,
,,,,,,0,2.349344495,#a3d0fb,"[""0.25"",""0""]",right_blue.png,right,,,,,,,,right,right_blue.png,up_orange.png,up,right,up,57bf14513c449a000189c89a,2021-09-11_16h45.03.508,arrow_simon_vert,2021.1.2,Win32,60.11783095,,,,,,,,,,,,,,,,,,,,,right,1,1.7093,23,TRUE,FALSE,5,2,22,1,1,,,,,,,
,,,,,,0,1.878127837,#f3af84,"[""0"",""0.25""]",up_orange.png,up,,,,,,,,right,right_blue.png,up_orange.png,up,right,up,57bf14513c449a000189c89a,2021-09-11_16h45.03.508,arrow_simon_vert,2021.1.2,Win32,60.11783095,,,,,,,,,,,,,,,,,,,,,up,1,1.6559,24,TRUE,FALSE,5,3,23,1,1,,,,,,,
,,,,,,0,1.845082775,#a3d0fb,"[""-0.25"",""0""]",left_blue.png,left,,,,,,,,left,left_blue.png,down_orange.png,down,left,down,57bf14513c449a000189c89a,2021-09-11_16h45.03.508,arrow_simon_vert,2021.1.2,Win32,60.11783095,,,,,,,,,,,,,,,,,,,,,left,1,1.5104,25,FALSE,FALSE,6,0,24,2,1,,,,,,,
,,,,,,0,2.229671305,#f3af84,"[""0"",""0.25""]",down_orange.png,down,,,,,,,,left,left_blue.png,down_orange.png,down,right,up,57bf14513c449a000189c89a,2021-09-11_16h45.03.508,arrow_simon_vert,2021.1.2,Win32,60.11783095,,,,,,,,,,,,,,,,,,,,,down,1,1.8505,26,TRUE,FALSE,6,1,25,3,1,,,,,,,
,,,,,,0,2.055833193,#a3d0fb,"[""0.25"",""0""]",left_blue.png,left,,,,,,,,left,left_blue.png,down_orange.png,down,right,up,57bf14513c449a000189c89a,2021-09-11_16h45.03.508,arrow_simon_vert,2021.1.2,Win32,60.11783095,,,,,,,,,,,,,,,,,,,,,left,1,1.6922,27,TRUE,FALSE,6,2,26,3,1,,,,,,,
,,,,,,0,2.239875796,#f3af84,"[""0"",""0.25""]",down_orange.png,down,,,,,,,,left,left_blue.png,down_orange.png,down,right,up,57bf14513c449a000189c89a,2021-09-11_16h45.03.508,arrow_simon_vert,2021.1.2,Win32,60.11783095,,,,,,,,,,,,,,,,,,,,,down,1,1.8004,28,TRUE,FALSE,6,3,27,3,1,,,,,,,
,,,,,,0,1.841173735,#a3d0fb,"[""0.25"",""0""]",left_blue.png,left,,,,,,,,left,left_blue.png,down_orange.png,down,right,up,57bf14513c449a000189c89a,2021-09-11_16h45.03.508,arrow_simon_vert,2021.1.2,Win32,60.11783095,,,,,,,,,,,,,,,,,,,,,left,1,1.5339,29,FALSE,FALSE,7,0,28,3,1,,,,,,,
,,,,,,0,2.368630319,#f3af84,"[""0"",""0.25""]",down_orange.png,down,,,,,,,,left,left_blue.png,down_orange.png,down,right,up,57bf14513c449a000189c89a,2021-09-11_16h45.03.508,arrow_simon_vert,2021.1.2,Win32,60.11783095,,,,,,,,,,,,,,,,,,,,,down,1,1.7583,30,TRUE,FALSE,7,1,29,3,1,,,,,,,
,,,,,,0,1.590370247,#a3d0fb,"[""-0.25"",""0""]",left_blue.png,left,,,,,,,,left,left_blue.png,down_orange.png,down,left,down,57bf14513c449a000189c89a,2021-09-11_16h45.03.508,arrow_simon_vert,2021.1.2,Win32,60.11783095,,,,,,,,,,,,,,,,,,,,,left,1,1.7226,31,TRUE,FALSE,7,2,30,2,1,,,,,,,
,,,,,,0,1.608160071,#f3af84,"[""0"",""-0.25""]",up_orange.png,up,,,,,,,,right,right_blue.png,up_orange.png,up,left,down,57bf14513c449a000189c89a,2021-09-11_16h45.03.508,arrow_simon_vert,2021.1.2,Win32,60.11783095,,,,,,,,,,,,,,,,,,,,,up,1,1.8673,32,TRUE,FALSE,7,3,31,0,1,,,,,,,
,,,,,,0,1.721722648,#a3d0fb,"[""0.25"",""0""]",left_blue.png,left,,,,,,,,left,left_blue.png,down_orange.png,down,right,up,57bf14513c449a000189c89a,2021-09-11_16h45.03.508,arrow_simon_vert,2021.1.2,Win32,60.11783095,,,,,,,,,,,,,,,,,,,,,left,1,1.6659,33,TRUE,FALSE,8,0,32,3,1,,,,,,,
,,,,,,0,2.382400482,#f3af84,"[""0"",""-0.25""]",down_orange.png,down,,,,,,,,left,left_blue.png,down_orange.png,down,left,down,57bf14513c449a000189c89a,2021-09-11_16h45.03.508,arrow_simon_vert,2021.1.2,Win32,60.11783095,,,,,,,,,,,,,,,,,,,,,down,1,1.7553,34,TRUE,FALSE,8,1,33,2,1,,,,,,,
,,,,,,0,1.776959661,#a3d0fb,"[""0.25"",""0""]",left_blue.png,left,,,,,,,,left,left_blue.png,down_orange.png,down,right,up,57bf14513c449a000189c89a,2021-09-11_16h45.03.508,arrow_simon_vert,2021.1.2,Win32,60.11783095,,,,,,,,,,,,,,,,,,,,,left,1,1.5005,35,FALSE,FALSE,8,2,34,3,1,,,,,,,
,,,,,,0,1.611154492,#f3af84,"[""0"",""0.25""]",up_orange.png,up,,,,,,,,right,right_blue.png,up_orange.png,up,right,up,57bf14513c449a000189c89a,2021-09-11_16h45.03.508,arrow_simon_vert,2021.1.2,Win32,60.11783095,,,,,,,,,,,,,,,,,,,,,up,1,1.7173,36,TRUE,FALSE,8,3,35,1,1,,,,,,,
,,,,,,0,2.210049459,#a3d0fb,"[""-0.25"",""0""]",left_blue.png,left,,,,,,,,left,left_blue.png,down_orange.png,down,left,down,57bf14513c449a000189c89a,2021-09-11_16h45.03.508,arrow_simon_vert,2021.1.2,Win32,60.11783095,,,,,,,,,,,,,,,,,,,,,left,1,1.9012,37,TRUE,FALSE,9,0,36,2,1,,,,,,,
,,,,,,0,1.773658785,#f3af84,"[""0"",""0.25""]",up_orange.png,up,,,,,,,,right,right_blue.png,up_orange.png,up,right,up,57bf14513c449a000189c89a,2021-09-11_16h45.03.508,arrow_simon_vert,2021.1.2,Win32,60.11783095,,,,,,,,,,,,,,,,,,,,,up,1,1.6255,38,TRUE,FALSE,9,1,37,1,1,,,,,,,
,,,,,,0,2.477840024,#a3d0fb,"[""-0.25"",""0""]",left_blue.png,left,,,,,,,,left,left_blue.png,down_orange.png,down,left,down,57bf14513c449a000189c89a,2021-09-11_16h45.03.508,arrow_simon_vert,2021.1.2,Win32,60.11783095,,,,,,,,,,,,,,,,,,,,,left,1,1.7913,39,TRUE,FALSE,9,2,38,2,1,,,,,,,
,,,,,,0,2.011501598,#f3af84,"[""0"",""-0.25""]",up_orange.png,up,,,,,,,,right,right_blue.png,up_orange.png,up,left,down,57bf14513c449a000189c89a,2021-09-11_16h45.03.508,arrow_simon_vert,2021.1.2,Win32,60.11783095,,,,,,,,,,,,,,,,,,,,,up,1,1.6404,40,TRUE,FALSE,9,3,39,0,1,,,,,,,
,,,,,,0,2.328324125,#a3d0fb,"[""0.25"",""0""]",left_blue.png,left,,,,,,,,left,left_blue.png,down_orange.png,down,right,up,57bf14513c449a000189c89a,2021-09-11_16h45.03.508,arrow_simon_vert,2021.1.2,Win32,60.11783095,,,,,,,,,,,,,,,,,,,,,left,1,1.6676,41,TRUE,FALSE,10,0,40,3,1,,,,,,,
,,,,,,0,2.074400212,#f3af84,"[""0"",""0.25""]",up_orange.png,up,,,,,,,,right,right_blue.png,up_orange.png,up,right,up,57bf14513c449a000189c89a,2021-09-11_16h45.03.508,arrow_simon_vert,2021.1.2,Win32,60.11783095,,,,,,,,,,,,,,,,,,,,,up,1,1.6235,42,TRUE,FALSE,10,1,41,1,1,,,,,,,
,,,,,,0,1.610794065,#a3d0fb,"[""0.25"",""0""]",right_blue.png,right,,,,,,,,right,right_blue.png,up_orange.png,up,right,up,57bf14513c449a000189c89a,2021-09-11_16h45.03.508,arrow_simon_vert,2021.1.2,Win32,60.11783095,,,,,,,,,,,,,,,,,,,,,right,1,1.2792,43,FALSE,TRUE,10,2,42,1,1,,,,,,,
,,,,,,0,1.95347556,#f3af84,"[""0"",""-0.25""]",down_orange.png,down,,,,,,,,left,left_blue.png,down_orange.png,down,left,down,57bf14513c449a000189c89a,2021-09-11_16h45.03.508,arrow_simon_vert,2021.1.2,Win32,60.11783095,,,,,,,,,,,,,,,,,,,,,down,1,1.729,44,TRUE,FALSE,10,3,43,2,1,,,,,,,
,,,,,,0,1.598516345,#a3d0fb,"[""0.25"",""0""]",right_blue.png,right,,,,,,,,right,right_blue.png,up_orange.png,up,right,up,57bf14513c449a000189c89a,2021-09-11_16h45.03.508,arrow_simon_vert,2021.1.2,Win32,60.11783095,,,,,,,,,,,,,,,,,,,,,left,0,0.9789,45,FALSE,TRUE,11,0,44,1,1,,,,,,,
,,,,,,0,2.376425,#f3af84,"[""0"",""-0.25""]",up_orange.png,up,,,,,,,,right,right_blue.png,up_orange.png,up,left,down,57bf14513c449a000189c89a,2021-09-11_16h45.03.508,arrow_simon_vert,2021.1.2,Win32,60.11783095,,,,,,,,,,,,,,,,,,,,,up,1,1.8126,46,TRUE,FALSE,11,1,45,0,1,,,,,,,
,,,,,,0,2.079262,#a3d0fb,"[""0.25"",""0""]",left_blue.png,left,,,,,,,,left,left_blue.png,down_orange.png,down,right,up,57bf14513c449a000189c89a,2021-09-11_16h45.03.508,arrow_simon_vert,2021.1.2,Win32,60.11783095,,,,,,,,,,,,,,,,,,,,,left,1,1.4341,47,FALSE,FALSE,11,2,46,3,1,,,,,,,
,,,,,,0,2.098880995,#f3af84,"[""0"",""-0.25""]",up_orange.png,up,,,,,,,,right,right_blue.png,up_orange.png,up,left,down,57bf14513c449a000189c89a,2021-09-11_16h45.03.508,arrow_simon_vert,2021.1.2,Win32,60.11783095,,,,,,,,,,,,,,,,,,,,,up,1,1.8794,48,TRUE,FALSE,11,3,47,0,1,,,,,,,
,,,,,,0,2.433540013,#a3d0fb,"[""-0.25"",""0""]",left_blue.png,left,,,,,,,,left,left_blue.png,down_orange.png,down,left,down,57bf14513c449a000189c89a,2021-09-11_16h45.03.508,arrow_simon_vert,2021.1.2,Win32,60.11783095,,,,,,,,,,,,,,,,,,,,,left,1,1.7839,49,TRUE,FALSE,12,0,48,2,1,,,,,,,
,,,,,,0,1.703000674,#f3af84,"[""0"",""0.25""]",down_orange.png,down,,,,,,,,left,left_blue.png,down_orange.png,down,right,up,57bf14513c449a000189c89a,2021-09-11_16h45.03.508,arrow_simon_vert,2021.1.2,Win32,60.11783095,,,,,,,,,,,,,,,,,,,,,left,0,2.6341,50,TRUE,FALSE,12,1,49,3,1,,,,,,,
,,,,,,0,2.268790431,#a3d0fb,"[""0.25"",""0""]",right_blue.png,right,,,,,,,,right,right_blue.png,up_orange.png,up,right,up,57bf14513c449a000189c89a,2021-09-11_16h45.03.508,arrow_simon_vert,2021.1.2,Win32,60.11783095,,,,,,,,,,,,,,,,,,,,,right,1,1.7512,51,TRUE,FALSE,12,2,50,1,1,,,,,,,
,,,,,,0,2.123761422,#f3af84,"[""0"",""-0.25""]",up_orange.png,up,,,,,,,,right,right_blue.png,up_orange.png,up,left,down,57bf14513c449a000189c89a,2021-09-11_16h45.03.508,arrow_simon_vert,2021.1.2,Win32,60.11783095,,,,,,,,,,,,,,,,,,,,,up,1,1.7536,52,TRUE,FALSE,12,3,51,0,1,,,,,,,
,,,,,,0,2.132525262,#a3d0fb,"[""-0.25"",""0""]",right_blue.png,right,,,,,,,,right,right_blue.png,up_orange.png,up,left,down,57bf14513c449a000189c89a,2021-09-11_16h45.03.508,arrow_simon_vert,2021.1.2,Win32,60.11783095,,,,,,,,,,,,,,,,,,,,,right,1,1.6883,53,TRUE,FALSE,13,0,52,0,1,,,,,,,
,,,,,,0,2.068976603,#f3af84,"[""0"",""0.25""]",down_orange.png,down,,,,,,,,left,left_blue.png,down_orange.png,down,right,up,57bf14513c449a000189c89a,2021-09-11_16h45.03.508,arrow_simon_vert,2021.1.2,Win32,60.11783095,,,,,,,,,,,,,,,,,,,,,down,1,1.7671,54,TRUE,FALSE,13,1,53,3,1,,,,,,,
,,,,,,0,2.213625764,#a3d0fb,"[""-0.25"",""0""]",right_blue.png,right,,,,,,,,right,right_blue.png,up_orange.png,up,left,down,57bf14513c449a000189c89a,2021-09-11_16h45.03.508,arrow_simon_vert,2021.1.2,Win32,60.11783095,,,,,,,,,,,,,,,,,,,,,left,0,1.6051,55,TRUE,FALSE,13,2,54,0,1,,,,,,,
,,,,,,0,1.73314083,#f3af84,"[""0"",""-0.25""]",up_orange.png,up,,,,,,,,right,right_blue.png,up_orange.png,up,left,down,57bf14513c449a000189c89a,2021-09-11_16h45.03.508,arrow_simon_vert,2021.1.2,Win32,60.11783095,,,,,,,,,,,,,,,,,,,,,up,1,1.4087,56,FALSE,FALSE,13,3,55,0,1,,,,,,,
,,,,,,0,1.593787292,#a3d0fb,"[""-0.25"",""0""]",right_blue.png,right,,,,,,,,right,right_blue.png,up_orange.png,up,left,down,57bf14513c449a000189c89a,2021-09-11_16h45.03.508,arrow_simon_vert,2021.1.2,Win32,60.11783095,,,,,,,,,,,,,,,,,,,,,right,1,1.3115,57,FALSE,TRUE,14,0,56,0,1,,,,,,,
,,,,,,0,2.402619205,#f3af84,"[""0"",""0.25""]",up_orange.png,up,,,,,,,,right,right_blue.png,up_orange.png,up,right,up,57bf14513c449a000189c89a,2021-09-11_16h45.03.508,arrow_simon_vert,2021.1.2,Win32,60.11783095,,,,,,,,,,,,,,,,,,,,,down,0,1.7843,58,TRUE,FALSE,14,1,57,1,1,,,,,,,
,,,,,,0,2.038357678,#a3d0fb,"[""-0.25"",""0""]",right_blue.png,right,,,,,,,,right,right_blue.png,up_orange.png,up,left,down,57bf14513c449a000189c89a,2021-09-11_16h45.03.508,arrow_simon_vert,2021.1.2,Win32,60.11783095,,,,,,,,,,,,,,,,,,,,,right,1,1.6418,59,TRUE,FALSE,14,2,58,0,1,,,,,,,
,,,,,,0,2.402016967,#f3af84,"[""0"",""0.25""]",down_orange.png,down,,,,,,,,left,left_blue.png,down_orange.png,down,right,up,57bf14513c449a000189c89a,2021-09-11_16h45.03.508,arrow_simon_vert,2021.1.2,Win32,60.11783095,,,,,,,,,,,,,,,,,,,,,up,0,1.7508,60,TRUE,FALSE,14,3,59,3,1,,,,,,,
,,,,,,,,,,,,,,,,,,,,,,,,,57bf14513c449a000189c89a,2021-09-11_16h45.03.508,arrow_simon_vert,2021.1.2,Win32,60.11783095,,,,,,,,,,,,,,,,,,,,,,,,,,,,,,,,space,11.6885,2,0,2,0,1
,,,,,,0,2.239082002,#a3d0fb,"[""0.25"",""0""]",right_blue.png,right,,,,,,,,right,right_blue.png,up_orange.png,up,right,up,57bf14513c449a000189c89a,2021-09-11_16h45.03.508,arrow_simon_vert,2021.1.2,Win32,60.11783095,,,,,,,,,,,,,,,,,,,,,right,1,1.6595,1,TRUE,FALSE,0,0,0,1,1,,,,,,,
,,,,,,0,2.202544181,#f3af84,"[""0"",""0.25""]",down_orange.png,down,,,,,,,,left,left_blue.png,down_orange.png,down,right,up,57bf14513c449a000189c89a,2021-09-11_16h45.03.508,arrow_simon_vert,2021.1.2,Win32,60.11783095,,,,,,,,,,,,,,,,,,,,,up,0,1.6003,2,TRUE,FALSE,0,1,1,3,1,,,,,,,
,,,,,,0,2.186919714,#a3d0fb,"[""0.25"",""0""]",right_blue.png,right,,,,,,,,right,right_blue.png,up_orange.png,up,right,up,57bf14513c449a000189c89a,2021-09-11_16h45.03.508,arrow_simon_vert,2021.1.2,Win32,60.11783095,,,,,,,,,,,,,,,,,,,,,left,0,1.2363,3,FALSE,TRUE,0,2,2,1,1,,,,,,,
,,,,,,0,1.968308425,#f3af84,"[""0"",""0.25""]",down_orange.png,down,,,,,,,,left,left_blue.png,down_orange.png,down,right,up,57bf14513c449a000189c89a,2021-09-11_16h45.03.508,arrow_simon_vert,2021.1.2,Win32,60.11783095,,,,,,,,,,,,,,,,,,,,,down,1,1.5068,4,FALSE,FALSE,0,3,3,3,1,,,,,,,
,,,,,,0,1.828790878,#a3d0fb,"[""-0.25"",""0""]",left_blue.png,left,,,,,,,,left,left_blue.png,down_orange.png,down,left,down,57bf14513c449a000189c89a,2021-09-11_16h45.03.508,arrow_simon_vert,2021.1.2,Win32,60.11783095,,,,,,,,,,,,,,,,,,,,,left,1,1.4514,5,FALSE,FALSE,1,0,4,2,1,,,,,,,
,,,,,,0,1.67990982,#f3af84,"[""0"",""-0.25""]",down_orange.png,down,,,,,,,,left,left_blue.png,down_orange.png,down,left,down,57bf14513c449a000189c89a,2021-09-11_16h45.03.508,arrow_simon_vert,2021.1.2,Win32,60.11783095,,,,,,,,,,,,,,,,,,,,,down,1,1.4671,6,FALSE,FALSE,1,1,5,2,1,,,,,,,
,,,,,,0,1.533239887,#a3d0fb,"[""-0.25"",""0""]",right_blue.png,right,,,,,,,,right,right_blue.png,up_orange.png,up,left,down,57bf14513c449a000189c89a,2021-09-11_16h45.03.508,arrow_simon_vert,2021.1.2,Win32,60.11783095,,,,,,,,,,,,,,,,,,,,,right,1,1.2941,7,FALSE,TRUE,1,2,6,0,1,,,,,,,
,,,,,,0,1.689423557,#f3af84,"[""0"",""-0.25""]",down_orange.png,down,,,,,,,,left,left_blue.png,down_orange.png,down,left,down,57bf14513c449a000189c89a,2021-09-11_16h45.03.508,arrow_simon_vert,2021.1.2,Win32,60.11783095,,,,,,,,,,,,,,,,,,,,,down,1,1.6005,8,TRUE,FALSE,1,3,7,2,1,,,,,,,
,,,,,,0,2.108861027,#a3d0fb,"[""-0.25"",""0""]",left_blue.png,left,,,,,,,,left,left_blue.png,down_orange.png,down,left,down,57bf14513c449a000189c89a,2021-09-11_16h45.03.508,arrow_simon_vert,2021.1.2,Win32,60.11783095,,,,,,,,,,,,,,,,,,,,,left,1,1.5021,9,FALSE,FALSE,2,0,8,2,1,,,,,,,
,,,,,,0,1.837260112,#f3af84,"[""0"",""-0.25""]",up_orange.png,up,,,,,,,,right,right_blue.png,up_orange.png,up,left,down,57bf14513c449a000189c89a,2021-09-11_16h45.03.508,arrow_simon_vert,2021.1.2,Win32,60.11783095,,,,,,,,,,,,,,,,,,,,,up,1,1.6586,10,TRUE,FALSE,2,1,9,0,1,,,,,,,
,,,,,,0,1.978576427,#a3d0fb,"[""-0.25"",""0""]",left_blue.png,left,,,,,,,,left,left_blue.png,down_orange.png,down,left,down,57bf14513c449a000189c89a,2021-09-11_16h45.03.508,arrow_simon_vert,2021.1.2,Win32,60.11783095,,,,,,,,,,,,,,,,,,,,,left,1,1.6771,11,TRUE,FALSE,2,2,10,2,1,,,,,,,
,,,,,,0,2.209388174,#f3af84,"[""0"",""-0.25""]",up_orange.png,up,,,,,,,,right,right_blue.png,up_orange.png,up,left,down,57bf14513c449a000189c89a,2021-09-11_16h45.03.508,arrow_simon_vert,2021.1.2,Win32,60.11783095,,,,,,,,,,,,,,,,,,,,,down,0,1.6338,12,TRUE,FALSE,2,3,11,0,1,,,,,,,
,,,,,,0,1.714803792,#a3d0fb,"[""0.25"",""0""]",right_blue.png,right,,,,,,,,right,right_blue.png,up_orange.png,up,right,up,57bf14513c449a000189c89a,2021-09-11_16h45.03.508,arrow_simon_vert,2021.1.2,Win32,60.11783095,,,,,,,,,,,,,,,,,,,,,right,1,1.5441,13,FALSE,FALSE,3,0,12,1,1,,,,,,,
,,,,,,0,1.568898348,#f3af84,"[""0"",""0.25""]",up_orange.png,up,,,,,,,,right,right_blue.png,up_orange.png,up,right,up,57bf14513c449a000189c89a,2021-09-11_16h45.03.508,arrow_simon_vert,2021.1.2,Win32,60.11783095,,,,,,,,,,,,,,,,,,,,,up,1,1.7032,14,TRUE,FALSE,3,1,13,1,1,,,,,,,
,,,,,,0,1.640068072,#a3d0fb,"[""-0.25"",""0""]",left_blue.png,left,,,,,,,,left,left_blue.png,down_orange.png,down,left,down,57bf14513c449a000189c89a,2021-09-11_16h45.03.508,arrow_simon_vert,2021.1.2,Win32,60.11783095,,,,,,,,,,,,,,,,,,,,,left,1,1.5618,15,FALSE,FALSE,3,2,14,2,1,,,,,,,
