instruct_resp_simon.keys,instruct_resp_simon.corr,instruct_resp_simon.rt,trial_resp_simon.keys,trial_resp_simon.corr,trial_resp_simon.rt,kerr,target_onset,target_color,target_pos,target_file,target_resp,trials_train_simon.thisRepN,trials_train_simon.thisTrialN,trials_train_simon.thisN,trials_train_simon.thisIndex,trials_train_simon.ran,odd_target_pos,even_target_pos,odd_target_resp,odd_target_file,even_target_file,even_target_resp,odd_target_side,even_target_side,participant,date,expName,psychopyVersion,OS,frameRate,train_block_note_resp.keys,train_block_note_resp.rt,blocks_train.thisRepN,blocks_train.thisTrialN,blocks_train.thisN,blocks_train.thisIndex,blocks_train.ran,instruct_resp_timing.keys,instruct_resp_timing.corr,instruct_resp_timing.rt,trial_resp_timing.keys,trial_resp_timing.rt,trials_train_timing.thisRepN,trials_train_timing.thisTrialN,trials_train_timing.thisN,trials_train_timing.thisIndex,trials_train_timing.ran,instruct_resp.keys,instruct_resp.corr,instruct_resp.rt,trial_resp.keys,trial_resp.corr,trial_resp.rt,trial_num,too_slow,too_soon,trials.thisRepN,trials.thisTrialN,trials.thisN,trials.thisIndex,trials.ran,block_note_resp.keys,block_note_resp.rt,blocks.thisRepN,blocks.thisTrialN,blocks.thisN,blocks.thisIndex,blocks.ran
space,0,100.2688,right,1,1.6554,0,0.672340993,#a3d0fb,"[""0.25"",""0""]",right_blue.png,right,0,0,0,1,1,,,right,right_blue.png,up_orange.png,up,right,up,5be76e0505e5cd00017a1f8e,2021-09-11_16h40.13.723,arrow_simon_vert,2021.1.2,Win32,58.02146794,,,,,,,,,,,,,,,,,,,,,,,,,,,,,,,,,,,,,,
,,,down,1,0.937,0,0.129645817,#f3af84,"[""0"",""0.25""]",down_orange.png,down,0,1,1,3,1,,,left,left_blue.png,down_orange.png,down,right,up,5be76e0505e5cd00017a1f8e,2021-09-11_16h40.13.723,arrow_simon_vert,2021.1.2,Win32,58.02146794,,,,,,,,,,,,,,,,,,,,,,,,,,,,,,,,,,,,,,
,,,right,1,1.4237,0,0.938832465,#a3d0fb,"[""0.25"",""0""]",right_blue.png,right,0,2,2,1,1,,,right,right_blue.png,up_orange.png,up,right,up,5be76e0505e5cd00017a1f8e,2021-09-11_16h40.13.723,arrow_simon_vert,2021.1.2,Win32,58.02146794,,,,,,,,,,,,,,,,,,,,,,,,,,,,,,,,,,,,,,
,,,down,1,0.791,0,0.060068933,#f3af84,"[""0"",""0.25""]",down_orange.png,down,0,3,3,3,1,,,left,left_blue.png,down_orange.png,down,right,up,5be76e0505e5cd00017a1f8e,2021-09-11_16h40.13.723,arrow_simon_vert,2021.1.2,Win32,58.02146794,,,,,,,,,,,,,,,,,,,,,,,,,,,,,,,,,,,,,,
,,,left,1,1.4028,0,0.897392349,#a3d0fb,"[""-0.25"",""0""]",left_blue.png,left,1,0,4,2,1,,,left,left_blue.png,down_orange.png,down,left,down,5be76e0505e5cd00017a1f8e,2021-09-11_16h40.13.723,arrow_simon_vert,2021.1.2,Win32,58.02146794,,,,,,,,,,,,,,,,,,,,,,,,,,,,,,,,,,,,,,
,,,up,1,1.4539,0,0.832038763,#f3af84,"[""0"",""-0.25""]",up_orange.png,up,1,1,5,0,1,,,right,right_blue.png,up_orange.png,up,left,down,5be76e0505e5cd00017a1f8e,2021-09-11_16h40.13.723,arrow_simon_vert,2021.1.2,Win32,58.02146794,,,,,,,,,,,,,,,,,,,,,,,,,,,,,,,,,,,,,,
,,,left,0,0.9934,1,0.402306761,#a3d0fb,"[""-0.25"",""0""]",right_blue.png,right,1,2,6,0,1,,,right,right_blue.png,up_orange.png,up,left,down,5be76e0505e5cd00017a1f8e,2021-09-11_16h40.13.723,arrow_simon_vert,2021.1.2,Win32,58.02146794,,,,,,,,,,,,,,,,,,,,,,,,,,,,,,,,,,,,,,
,,,up,1,1.1557,0,0.192702609,#f3af84,"[""0"",""-0.25""]",up_orange.png,up,1,3,7,0,1,,,right,right_blue.png,up_orange.png,up,left,down,5be76e0505e5cd00017a1f8e,2021-09-11_16h40.13.723,arrow_simon_vert,2021.1.2,Win32,58.02146794,,,,,,,,,,,,,,,,,,,,,,,,,,,,,,,,,,,,,,
,,,right,1,1.3934,0,0.340626868,#a3d0fb,"[""0.25"",""0""]",right_blue.png,right,2,0,8,1,1,,,right,right_blue.png,up_orange.png,up,right,up,5be76e0505e5cd00017a1f8e,2021-09-11_16h40.13.723,arrow_simon_vert,2021.1.2,Win32,58.02146794,,,,,,,,,,,,,,,,,,,,,,,,,,,,,,,,,,,,,,
,,,down,1,1.5005,0,0.376801983,#f3af84,"[""0"",""0.25""]",down_orange.png,down,2,1,9,3,1,,,left,left_blue.png,down_orange.png,down,right,up,5be76e0505e5cd00017a1f8e,2021-09-11_16h40.13.723,arrow_simon_vert,2021.1.2,Win32,58.02146794,,,,,,,,,,,,,,,,,,,,,,,,,,,,,,,,,,,,,,
,,,left,1,1.2359,0,0.562108749,#a3d0fb,"[""-0.25"",""0""]",left_blue.png,left,2,2,10,2,1,,,left,left_blue.png,down_orange.png,down,left,down,5be76e0505e5cd00017a1f8e,2021-09-11_16h40.13.723,arrow_simon_vert,2021.1.2,Win32,58.02146794,,,,,,,,,,,,,,,,,,,,,,,,,,,,,,,,,,,,,,
,,,down,1,1.2905,0,0.713229232,#f3af84,"[""0"",""-0.25""]",down_orange.png,down,2,3,11,2,1,,,left,left_blue.png,down_orange.png,down,left,down,5be76e0505e5cd00017a1f8e,2021-09-11_16h40.13.723,arrow_simon_vert,2021.1.2,Win32,58.02146794,,,,,,,,,,,,,,,,,,,,,,,,,,,,,,,,,,,,,,
,,,left,1,1.4383,0,0.874156162,#a3d0fb,"[""-0.25"",""0""]",left_blue.png,left,3,0,12,2,1,,,left,left_blue.png,down_orange.png,down,left,down,5be76e0505e5cd00017a1f8e,2021-09-11_16h40.13.723,arrow_simon_vert,2021.1.2,Win32,58.02146794,,,,,,,,,,,,,,,,,,,,,,,,,,,,,,,,,,,,,,
,,,up,1,1.7717,0,0.650736406,#f3af84,"[""0"",""0.25""]",up_orange.png,up,3,1,13,1,1,,,right,right_blue.png,up_orange.png,up,right,up,5be76e0505e5cd00017a1f8e,2021-09-11_16h40.13.723,arrow_simon_vert,2021.1.2,Win32,58.02146794,,,,,,,,,,,,,,,,,,,,,,,,,,,,,,,,,,,,,,
,,,left,1,0.9709,0,0.476705848,#a3d0fb,"[""-0.25"",""0""]",left_blue.png,left,3,2,14,2,1,,,left,left_blue.png,down_orange.png,down,left,down,5be76e0505e5cd00017a1f8e,2021-09-11_16h40.13.723,arrow_simon_vert,2021.1.2,Win32,58.02146794,,,,,,,,,,,,,,,,,,,,,,,,,,,,,,,,,,,,,,
,,,down,1,1.237,0,0.353915769,#f3af84,"[""0"",""-0.25""]",down_orange.png,down,3,3,15,2,1,,,left,left_blue.png,down_orange.png,down,left,down,5be76e0505e5cd00017a1f8e,2021-09-11_16h40.13.723,arrow_simon_vert,2021.1.2,Win32,58.02146794,,,,,,,,,,,,,,,,,,,,,,,,,,,,,,,,,,,,,,
,,,right,1,1.4405,0,0.626952762,#a3d0fb,"[""-0.25"",""0""]",right_blue.png,right,4,0,16,0,1,,,right,right_blue.png,up_orange.png,up,left,down,5be76e0505e5cd00017a1f8e,2021-09-11_16h40.13.723,arrow_simon_vert,2021.1.2,Win32,58.02146794,,,,,,,,,,,,,,,,,,,,,,,,,,,,,,,,,,,,,,
,,,up,1,1.1193,0,0.393949083,#f3af84,"[""0"",""-0.25""]",up_orange.png,up,4,1,17,0,1,,,right,right_blue.png,up_orange.png,up,left,down,5be76e0505e5cd00017a1f8e,2021-09-11_16h40.13.723,arrow_simon_vert,2021.1.2,Win32,58.02146794,,,,,,,,,,,,,,,,,,,,,,,,,,,,,,,,,,,,,,
,,,left,1,1.5871,0,0.777389688,#a3d0fb,"[""-0.25"",""0""]",left_blue.png,left,4,2,18,2,1,,,left,left_blue.png,down_orange.png,down,left,down,5be76e0505e5cd00017a1f8e,2021-09-11_16h40.13.723,arrow_simon_vert,2021.1.2,Win32,58.02146794,,,,,,,,,,,,,,,,,,,,,,,,,,,,,,,,,,,,,,
,,,up,1,1.1407,0,0.685669841,#f3af84,"[""0"",""0.25""]",up_orange.png,up,4,3,19,1,1,,,right,right_blue.png,up_orange.png,up,right,up,5be76e0505e5cd00017a1f8e,2021-09-11_16h40.13.723,arrow_simon_vert,2021.1.2,Win32,58.02146794,,,,,,,,,,,,,,,,,,,,,,,,,,,,,,,,,,,,,,
,,,left,1,1.2026,0,0.638857072,#a3d0fb,"[""-0.25"",""0""]",left_blue.png,left,5,0,20,2,1,,,left,left_blue.png,down_orange.png,down,left,down,5be76e0505e5cd00017a1f8e,2021-09-11_16h40.13.723,arrow_simon_vert,2021.1.2,Win32,58.02146794,,,,,,,,,,,,,,,,,,,,,,,,,,,,,,,,,,,,,,
,,,down,1,1.1419,0,0.226955865,#f3af84,"[""0"",""0.25""]",down_orange.png,down,5,1,21,3,1,,,left,left_blue.png,down_orange.png,down,right,up,5be76e0505e5cd00017a1f8e,2021-09-11_16h40.13.723,arrow_simon_vert,2021.1.2,Win32,58.02146794,,,,,,,,,,,,,,,,,,,,,,,,,,,,,,,,,,,,,,
,,,right,1,0.9361,0,0.296323385,#a3d0fb,"[""0.25"",""0""]",right_blue.png,right,5,2,22,1,1,,,right,right_blue.png,up_orange.png,up,right,up,5be76e0505e5cd00017a1f8e,2021-09-11_16h40.13.723,arrow_simon_vert,2021.1.2,Win32,58.02146794,,,,,,,,,,,,,,,,,,,,,,,,,,,,,,,,,,,,,,
,,,up,1,1.5272,0,0.959402271,#f3af84,"[""0"",""0.25""]",up_orange.png,up,5,3,23,1,1,,,right,right_blue.png,up_orange.png,up,right,up,5be76e0505e5cd00017a1f8e,2021-09-11_16h40.13.723,arrow_simon_vert,2021.1.2,Win32,58.02146794,,,,,,,,,,,,,,,,,,,,,,,,,,,,,,,,,,,,,,
,,,right,1,1.0902,0,0.237343415,#a3d0fb,"[""-0.25"",""0""]",right_blue.png,right,6,0,24,0,1,,,right,right_blue.png,up_orange.png,up,left,down,5be76e0505e5cd00017a1f8e,2021-09-11_16h40.13.723,arrow_simon_vert,2021.1.2,Win32,58.02146794,,,,,,,,,,,,,,,,,,,,,,,,,,,,,,,,,,,,,,
,,,down,1,0.7967,0,0.108392715,#f3af84,"[""0"",""-0.25""]",down_orange.png,down,6,1,25,2,1,,,left,left_blue.png,down_orange.png,down,left,down,5be76e0505e5cd00017a1f8e,2021-09-11_16h40.13.723,arrow_simon_vert,2021.1.2,Win32,58.02146794,,,,,,,,,,,,,,,,,,,,,,,,,,,,,,,,,,,,,,
,,,left,1,1.3401,0,0.713686092,#a3d0fb,"[""0.25"",""0""]",left_blue.png,left,6,2,26,3,1,,,left,left_blue.png,down_orange.png,down,right,up,5be76e0505e5cd00017a1f8e,2021-09-11_16h40.13.723,arrow_simon_vert,2021.1.2,Win32,58.02146794,,,,,,,,,,,,,,,,,,,,,,,,,,,,,,,,,,,,,,
,,,up,1,1.1369,0,0.428227876,#f3af84,"[""0"",""-0.25""]",up_orange.png,up,6,3,27,0,1,,,right,right_blue.png,up_orange.png,up,left,down,5be76e0505e5cd00017a1f8e,2021-09-11_16h40.13.723,arrow_simon_vert,2021.1.2,Win32,58.02146794,,,,,,,,,,,,,,,,,,,,,,,,,,,,,,,,,,,,,,
,,,right,1,0.9535,0,0.226283274,#a3d0fb,"[""0.25"",""0""]",right_blue.png,right,7,0,28,1,1,,,right,right_blue.png,up_orange.png,up,right,up,5be76e0505e5cd00017a1f8e,2021-09-11_16h40.13.723,arrow_simon_vert,2021.1.2,Win32,58.02146794,,,,,,,,,,,,,,,,,,,,,,,,,,,,,,,,,,,,,,
,,,down,1,1.6077,0,0.925776268,#f3af84,"[""0"",""0.25""]",down_orange.png,down,7,1,29,3,1,,,left,left_blue.png,down_orange.png,down,right,up,5be76e0505e5cd00017a1f8e,2021-09-11_16h40.13.723,arrow_simon_vert,2021.1.2,Win32,58.02146794,,,,,,,,,,,,,,,,,,,,,,,,,,,,,,,,,,,,,,
,,,left,1,0.8869,0,0.352242453,#a3d0fb,"[""-0.25"",""0""]",left_blue.png,left,7,2,30,2,1,,,left,left_blue.png,down_orange.png,down,left,down,5be76e0505e5cd00017a1f8e,2021-09-11_16h40.13.723,arrow_simon_vert,2021.1.2,Win32,58.02146794,,,,,,,,,,,,,,,,,,,,,,,,,,,,,,,,,,,,,,
,,,down,1,1.5281,0,0.760474473,#f3af84,"[""0"",""0.25""]",down_orange.png,down,7,3,31,3,1,,,left,left_blue.png,down_orange.png,down,right,up,5be76e0505e5cd00017a1f8e,2021-09-11_16h40.13.723,arrow_simon_vert,2021.1.2,Win32,58.02146794,,,,,,,,,,,,,,,,,,,,,,,,,,,,,,,,,,,,,,
,,,right,1,1.3709,0,0.879369658,#a3d0fb,"[""-0.25"",""0""]",right_blue.png,right,8,0,32,0,1,,,right,right_blue.png,up_orange.png,up,left,down,5be76e0505e5cd00017a1f8e,2021-09-11_16h40.13.723,arrow_simon_vert,2021.1.2,Win32,58.02146794,,,,,,,,,,,,,,,,,,,,,,,,,,,,,,,,,,,,,,
,,,up,1,0.9551,0,0.071395289,#f3af84,"[""0"",""0.25""]",up_orange.png,up,8,1,33,1,1,,,right,right_blue.png,up_orange.png,up,right,up,5be76e0505e5cd00017a1f8e,2021-09-11_16h40.13.723,arrow_simon_vert,2021.1.2,Win32,58.02146794,,,,,,,,,,,,,,,,,,,,,,,,,,,,,,,,,,,,,,
,,,right,1,1.0444,0,0.428815224,#a3d0fb,"[""0.25"",""0""]",right_blue.png,right,8,2,34,1,1,,,right,right_blue.png,up_orange.png,up,right,up,5be76e0505e5cd00017a1f8e,2021-09-11_16h40.13.723,arrow_simon_vert,2021.1.2,Win32,58.02146794,,,,,,,,,,,,,,,,,,,,,,,,,,,,,,,,,,,,,,
,,,down,1,1.0401,0,0.624918283,#f3af84,"[""0"",""-0.25""]",down_orange.png,down,8,3,35,2,1,,,left,left_blue.png,down_orange.png,down,left,down,5be76e0505e5cd00017a1f8e,2021-09-11_16h40.13.723,arrow_simon_vert,2021.1.2,Win32,58.02146794,,,,,,,,,,,,,,,,,,,,,,,,,,,,,,,,,,,,,,
,,,left,1,1.31,0,0.800336319,#a3d0fb,"[""0.25"",""0""]",left_blue.png,left,9,0,36,3,1,,,left,left_blue.png,down_orange.png,down,right,up,5be76e0505e5cd00017a1f8e,2021-09-11_16h40.13.723,arrow_simon_vert,2021.1.2,Win32,58.02146794,,,,,,,,,,,,,,,,,,,,,,,,,,,,,,,,,,,,,,
,,,down,1,1.0652,0,0.12890897,#f3af84,"[""0"",""0.25""]",down_orange.png,down,9,1,37,3,1,,,left,left_blue.png,down_orange.png,down,right,up,5be76e0505e5cd00017a1f8e,2021-09-11_16h40.13.723,arrow_simon_vert,2021.1.2,Win32,58.02146794,,,,,,,,,,,,,,,,,,,,,,,,,,,,,,,,,,,,,,
,,,right,1,1.2531,0,0.587594735,#a3d0fb,"[""-0.25"",""0""]",right_blue.png,right,9,2,38,0,1,,,right,right_blue.png,up_orange.png,up,left,down,5be76e0505e5cd00017a1f8e,2021-09-11_16h40.13.723,arrow_simon_vert,2021.1.2,Win32,58.02146794,,,,,,,,,,,,,,,,,,,,,,,,,,,,,,,,,,,,,,
,,,down,1,0.8691,0,0.251123214,#f3af84,"[""0"",""0.25""]",down_orange.png,down,9,3,39,3,1,,,left,left_blue.png,down_orange.png,down,right,up,5be76e0505e5cd00017a1f8e,2021-09-11_16h40.13.723,arrow_simon_vert,2021.1.2,Win32,58.02146794,,,,,,,,,,,,,,,,,,,,,,,,,,,,,,,,,,,,,,
,,,right,1,0.7207,0,0.12474574,#a3d0fb,"[""0.25"",""0""]",right_blue.png,right,10,0,40,1,1,,,right,right_blue.png,up_orange.png,up,right,up,5be76e0505e5cd00017a1f8e,2021-09-11_16h40.13.723,arrow_simon_vert,2021.1.2,Win32,58.02146794,,,,,,,,,,,,,,,,,,,,,,,,,,,,,,,,,,,,,,
,,,up,1,0.7753,0,0.250631945,#f3af84,"[""0"",""0.25""]",up_orange.png,up,10,1,41,1,1,,,right,right_blue.png,up_orange.png,up,right,up,5be76e0505e5cd00017a1f8e,2021-09-11_16h40.13.723,arrow_simon_vert,2021.1.2,Win32,58.02146794,,,,,,,,,,,,,,,,,,,,,,,,,,,,,,,,,,,,,,
,,,right,1,1.2078,0,0.833743456,#a3d0fb,"[""0.25"",""0""]",right_blue.png,right,10,2,42,1,1,,,right,right_blue.png,up_orange.png,up,right,up,5be76e0505e5cd00017a1f8e,2021-09-11_16h40.13.723,arrow_simon_vert,2021.1.2,Win32,58.02146794,,,,,,,,,,,,,,,,,,,,,,,,,,,,,,,,,,,,,,
,,,down,1,1.1695,0,0.555078972,#f3af84,"[""0"",""0.25""]",down_orange.png,down,10,3,43,3,1,,,left,left_blue.png,down_orange.png,down,right,up,5be76e0505e5cd00017a1f8e,2021-09-11_16h40.13.723,arrow_simon_vert,2021.1.2,Win32,58.02146794,,,,,,,,,,,,,,,,,,,,,,,,,,,,,,,,,,,,,,
,,,left,1,1.0779,0,0.593836874,#a3d0fb,"[""0.25"",""0""]",left_blue.png,left,11,0,44,3,1,,,left,left_blue.png,down_orange.png,down,right,up,5be76e0505e5cd00017a1f8e,2021-09-11_16h40.13.723,arrow_simon_vert,2021.1.2,Win32,58.02146794,,,,,,,,,,,,,,,,,,,,,,,,,,,,,,,,,,,,,,
,,,up,1,1.3774,0,0.822615632,#f3af84,"[""0"",""-0.25""]",up_orange.png,up,11,1,45,0,1,,,right,right_blue.png,up_orange.png,up,left,down,5be76e0505e5cd00017a1f8e,2021-09-11_16h40.13.723,arrow_simon_vert,2021.1.2,Win32,58.02146794,,,,,,,,,,,,,,,,,,,,,,,,,,,,,,,,,,,,,,
,,,right,1,0.7867,0,0.229029952,#a3d0fb,"[""-0.25"",""0""]",right_blue.png,right,11,2,46,0,1,,,right,right_blue.png,up_orange.png,up,left,down,5be76e0505e5cd00017a1f8e,2021-09-11_16h40.13.723,arrow_simon_vert,2021.1.2,Win32,58.02146794,,,,,,,,,,,,,,,,,,,,,,,,,,,,,,,,,,,,,,
,,,up,1,1.1282,0,0.62229496,#f3af84,"[""0"",""0.25""]",up_orange.png,up,11,3,47,1,1,,,right,right_blue.png,up_orange.png,up,right,up,5be76e0505e5cd00017a1f8e,2021-09-11_16h40.13.723,arrow_simon_vert,2021.1.2,Win32,58.02146794,,,,,,,,,,,,,,,,,,,,,,,,,,,,,,,,,,,,,,
,,,left,1,1.2914,0,0.348672474,#a3d0fb,"[""0.25"",""0""]",left_blue.png,left,12,0,48,3,1,,,left,left_blue.png,down_orange.png,down,right,up,5be76e0505e5cd00017a1f8e,2021-09-11_16h40.13.723,arrow_simon_vert,2021.1.2,Win32,58.02146794,,,,,,,,,,,,,,,,,,,,,,,,,,,,,,,,,,,,,,
,,,down,1,0.9731,0,0.162721565,#f3af84,"[""0"",""-0.25""]",down_orange.png,down,12,1,49,2,1,,,left,left_blue.png,down_orange.png,down,left,down,5be76e0505e5cd00017a1f8e,2021-09-11_16h40.13.723,arrow_simon_vert,2021.1.2,Win32,58.02146794,,,,,,,,,,,,,,,,,,,,,,,,,,,,,,,,,,,,,,
,,,left,1,1.0943,0,0.481439117,#a3d0fb,"[""-0.25"",""0""]",left_blue.png,left,12,2,50,2,1,,,left,left_blue.png,down_orange.png,down,left,down,5be76e0505e5cd00017a1f8e,2021-09-11_16h40.13.723,arrow_simon_vert,2021.1.2,Win32,58.02146794,,,,,,,,,,,,,,,,,,,,,,,,,,,,,,,,,,,,,,
,,,down,1,1.2721,0,0.627260787,#f3af84,"[""0"",""0.25""]",down_orange.png,down,12,3,51,3,1,,,left,left_blue.png,down_orange.png,down,right,up,5be76e0505e5cd00017a1f8e,2021-09-11_16h40.13.723,arrow_simon_vert,2021.1.2,Win32,58.02146794,,,,,,,,,,,,,,,,,,,,,,,,,,,,,,,,,,,,,,
,,,right,1,0.8066,0,0.094650193,#a3d0fb,"[""-0.25"",""0""]",right_blue.png,right,13,0,52,0,1,,,right,right_blue.png,up_orange.png,up,left,down,5be76e0505e5cd00017a1f8e,2021-09-11_16h40.13.723,arrow_simon_vert,2021.1.2,Win32,58.02146794,,,,,,,,,,,,,,,,,,,,,,,,,,,,,,,,,,,,,,
,,,down,1,0.8198,0,0.111223707,#f3af84,"[""0"",""-0.25""]",down_orange.png,down,13,1,53,2,1,,,left,left_blue.png,down_orange.png,down,left,down,5be76e0505e5cd00017a1f8e,2021-09-11_16h40.13.723,arrow_simon_vert,2021.1.2,Win32,58.02146794,,,,,,,,,,,,,,,,,,,,,,,,,,,,,,,,,,,,,,
,,,left,1,0.8029,0,0.270496807,#a3d0fb,"[""0.25"",""0""]",left_blue.png,left,13,2,54,3,1,,,left,left_blue.png,down_orange.png,down,right,up,5be76e0505e5cd00017a1f8e,2021-09-11_16h40.13.723,arrow_simon_vert,2021.1.2,Win32,58.02146794,,,,,,,,,,,,,,,,,,,,,,,,,,,,,,,,,,,,,,
,,,up,1,1.0031,0,0.260486108,#f3af84,"[""0"",""-0.25""]",up_orange.png,up,13,3,55,0,1,,,right,right_blue.png,up_orange.png,up,left,down,5be76e0505e5cd00017a1f8e,2021-09-11_16h40.13.723,arrow_simon_vert,2021.1.2,Win32,58.02146794,,,,,,,,,,,,,,,,,,,,,,,,,,,,,,,,,,,,,,
,,,right,1,0.8707,0,0.285085776,#a3d0fb,"[""-0.25"",""0""]",right_blue.png,right,14,0,56,0,1,,,right,right_blue.png,up_orange.png,up,left,down,5be76e0505e5cd00017a1f8e,2021-09-11_16h40.13.723,arrow_simon_vert,2021.1.2,Win32,58.02146794,,,,,,,,,,,,,,,,,,,,,,,,,,,,,,,,,,,,,,
,,,up,1,0.9712,0,0.420560037,#f3af84,"[""0"",""0.25""]",up_orange.png,up,14,1,57,1,1,,,right,right_blue.png,up_orange.png,up,right,up,5be76e0505e5cd00017a1f8e,2021-09-11_16h40.13.723,arrow_simon_vert,2021.1.2,Win32,58.02146794,,,,,,,,,,,,,,,,,,,,,,,,,,,,,,,,,,,,,,
,,,left,1,1.3919,0,0.903195004,#a3d0fb,"[""-0.25"",""0""]",left_blue.png,left,14,2,58,2,1,,,left,left_blue.png,down_orange.png,down,left,down,5be76e0505e5cd00017a1f8e,2021-09-11_16h40.13.723,arrow_simon_vert,2021.1.2,Win32,58.02146794,,,,,,,,,,,,,,,,,,,,,,,,,,,,,,,,,,,,,,
,,,up,1,1.0662,0,0.301018933,#f3af84,"[""0"",""-0.25""]",up_orange.png,up,14,3,59,0,1,,,right,right_blue.png,up_orange.png,up,left,down,5be76e0505e5cd00017a1f8e,2021-09-11_16h40.13.723,arrow_simon_vert,2021.1.2,Win32,58.02146794,,,,,,,,,,,,,,,,,,,,,,,,,,,,,,,,,,,,,,
,,,,,,,,,,,,,,,,,,,,,,,,,5be76e0505e5cd00017a1f8e,2021-09-11_16h40.13.723,arrow_simon_vert,2021.1.2,Win32,58.02146794,space,22.5244,0,0,0,0,1,,,,,,,,,,,,,,,,,,,,,,,,,,,,,,,
,,,right,1,0.9834,0,0.378151791,#a3d0fb,"[""-0.25"",""0""]",right_blue.png,right,0,0,0,0,1,,,right,right_blue.png,up_orange.png,up,left,down,5be76e0505e5cd00017a1f8e,2021-09-11_16h40.13.723,arrow_simon_vert,2021.1.2,Win32,58.02146794,,,,,,,,,,,,,,,,,,,,,,,,,,,,,,,,,,,,,,
,,,up,1,1.3121,0,0.697779027,#f3af84,"[""0"",""-0.25""]",up_orange.png,up,0,1,1,0,1,,,right,right_blue.png,up_orange.png,up,left,down,5be76e0505e5cd00017a1f8e,2021-09-11_16h40.13.723,arrow_simon_vert,2021.1.2,Win32,58.02146794,,,,,,,,,,,,,,,,,,,,,,,,,,,,,,,,,,,,,,
,,,left,1,0.9862,0,0.576379488,#a3d0fb,"[""-0.25"",""0""]",left_blue.png,left,0,2,2,2,1,,,left,left_blue.png,down_orange.png,down,left,down,5be76e0505e5cd00017a1f8e,2021-09-11_16h40.13.723,arrow_simon_vert,2021.1.2,Win32,58.02146794,,,,,,,,,,,,,,,,,,,,,,,,,,,,,,,,,,,,,,
,,,down,1,0.635,0,0.12862039,#f3af84,"[""0"",""-0.25""]",down_orange.png,down,0,3,3,2,1,,,left,left_blue.png,down_orange.png,down,left,down,5be76e0505e5cd00017a1f8e,2021-09-11_16h40.13.723,arrow_simon_vert,2021.1.2,Win32,58.02146794,,,,,,,,,,,,,,,,,,,,,,,,,,,,,,,,,,,,,,
,,,left,1,1.4389,0,0.927744644,#a3d0fb,"[""0.25"",""0""]",left_blue.png,left,1,0,4,3,1,,,left,left_blue.png,down_orange.png,down,right,up,5be76e0505e5cd00017a1f8e,2021-09-11_16h40.13.723,arrow_simon_vert,2021.1.2,Win32,58.02146794,,,,,,,,,,,,,,,,,,,,,,,,,,,,,,,,,,,,,,
,,,down,1,1.6271,0,0.690061901,#f3af84,"[""0"",""0.25""]",down_orange.png,down,1,1,5,3,1,,,left,left_blue.png,down_orange.png,down,right,up,5be76e0505e5cd00017a1f8e,2021-09-11_16h40.13.723,arrow_simon_vert,2021.1.2,Win32,58.02146794,,,,,,,,,,,,,,,,,,,,,,,,,,,,,,,,,,,,,,
,,,left,1,0.7701,0,0.241200737,#a3d0fb,"[""-0.25"",""0""]",left_blue.png,left,1,2,6,2,1,,,left,left_blue.png,down_orange.png,down,left,down,5be76e0505e5cd00017a1f8e,2021-09-11_16h40.13.723,arrow_simon_vert,2021.1.2,Win32,58.02146794,,,,,,,,,,,,,,,,,,,,,,,,,,,,,,,,,,,,,,
,,,up,1,1.1452,0,0.722678818,#f3af84,"[""0"",""0.25""]",up_orange.png,up,1,3,7,1,1,,,right,right_blue.png,up_orange.png,up,right,up,5be76e0505e5cd00017a1f8e,2021-09-11_16h40.13.723,arrow_simon_vert,2021.1.2,Win32,58.02146794,,,,,,,,,,,,,,,,,,,,,,,,,,,,,,,,,,,,,,
,,,left,1,0.8751,0,0.373403643,#a3d0fb,"[""-0.25"",""0""]",left_blue.png,left,2,0,8,2,1,,,left,left_blue.png,down_orange.png,down,left,down,5be76e0505e5cd00017a1f8e,2021-09-11_16h40.13.723,arrow_simon_vert,2021.1.2,Win32,58.02146794,,,,,,,,,,,,,,,,,,,,,,,,,,,,,,,,,,,,,,
,,,up,1,0.7257,0,0.188597277,#f3af84,"[""0"",""0.25""]",up_orange.png,up,2,1,9,1,1,,,right,right_blue.png,up_orange.png,up,right,up,5be76e0505e5cd00017a1f8e,2021-09-11_16h40.13.723,arrow_simon_vert,2021.1.2,Win32,58.02146794,,,,,,,,,,,,,,,,,,,,,,,,,,,,,,,,,,,,,,
,,,right,1,1.3034,0,0.785733352,#a3d0fb,"[""0.25"",""0""]",right_blue.png,right,2,2,10,1,1,,,right,right_blue.png,up_orange.png,up,right,up,5be76e0505e5cd00017a1f8e,2021-09-11_16h40.13.723,arrow_simon_vert,2021.1.2,Win32,58.02146794,,,,,,,,,,,,,,,,,,,,,,,,,,,,,,,,,,,,,,
,,,up,1,1.1073,0,0.224991274,#f3af84,"[""0"",""0.25""]",up_orange.png,up,2,3,11,1,1,,,right,right_blue.png,up_orange.png,up,right,up,5be76e0505e5cd00017a1f8e,2021-09-11_16h40.13.723,arrow_simon_vert,2021.1.2,Win32,58.02146794,,,,,,,,,,,,,,,,,,,,,,,,,,,,,,,,,,,,,,
,,,left,1,1.1974,0,0.632503027,#a3d0fb,"[""0.25"",""0""]",left_blue.png,left,3,0,12,3,1,,,left,left_blue.png,down_orange.png,down,right,up,5be76e0505e5cd00017a1f8e,2021-09-11_16h40.13.723,arrow_simon_vert,2021.1.2,Win32,58.02146794,,,,,,,,,,,,,,,,,,,,,,,,,,,,,,,,,,,,,,
,,,down,1,1.2365,0,0.621790042,#f3af84,"[""0"",""0.25""]",down_orange.png,down,3,1,13,3,1,,,left,left_blue.png,down_orange.png,down,right,up,5be76e0505e5cd00017a1f8e,2021-09-11_16h40.13.723,arrow_simon_vert,2021.1.2,Win32,58.02146794,,,,,,,,,,,,,,,,,,,,,,,,,,,,,,,,,,,,,,
,,,right,1,1.5029,0,0.945850484,#a3d0fb,"[""-0.25"",""0""]",right_blue.png,right,3,2,14,0,1,,,right,right_blue.png,up_orange.png,up,left,down,5be76e0505e5cd00017a1f8e,2021-09-11_16h40.13.723,arrow_simon_vert,2021.1.2,Win32,58.02146794,,,,,,,,,,,,,,,,,,,,,,,,,,,,,,,,,,,,,,
,,,down,1,1.5957,0,0.362581923,#f3af84,"[""0"",""-0.25""]",down_orange.png,down,3,3,15,2,1,,,left,left_blue.png,down_orange.png,down,left,down,5be76e0505e5cd00017a1f8e,2021-09-11_16h40.13.723,arrow_simon_vert,2021.1.2,Win32,58.02146794,,,,,,,,,,,,,,,,,,,,,,,,,,,,,,,,,,,,,,
,,,right,1,1.4445,0,0.885894254,#a3d0fb,"[""-0.25"",""0""]",right_blue.png,right,4,0,16,0,1,,,right,right_blue.png,up_orange.png,up,left,down,5be76e0505e5cd00017a1f8e,2021-09-11_16h40.13.723,arrow_simon_vert,2021.1.2,Win32,58.02146794,,,,,,,,,,,,,,,,,,,,,,,,,,,,,,,,,,,,,,
,,,down,1,1.4414,0,0.655547147,#f3af84,"[""0"",""-0.25""]",down_orange.png,down,4,1,17,2,1,,,left,left_blue.png,down_orange.png,down,left,down,5be76e0505e5cd00017a1f8e,2021-09-11_16h40.13.723,arrow_simon_vert,2021.1.2,Win32,58.02146794,,,,,,,,,,,,,,,,,,,,,,,,,,,,,,,,,,,,,,
,,,left,1,1.2449,0,0.691119496,#a3d0fb,"[""0.25"",""0""]",left_blue.png,left,4,2,18,3,1,,,left,left_blue.png,down_orange.png,down,right,up,5be76e0505e5cd00017a1f8e,2021-09-11_16h40.13.723,arrow_simon_vert,2021.1.2,Win32,58.02146794,,,,,,,,,,,,,,,,,,,,,,,,,,,,,,,,,,,,,,
,,,down,1,1.2119,0,0.609668458,#f3af84,"[""0"",""0.25""]",down_orange.png,down,4,3,19,3,1,,,left,left_blue.png,down_orange.png,down,right,up,5be76e0505e5cd00017a1f8e,2021-09-11_16h40.13.723,arrow_simon_vert,2021.1.2,Win32,58.02146794,,,,,,,,,,,,,,,,,,,,,,,,,,,,,,,,,,,,,,
,,,right,1,0.7549,0,0.11469539,#a3d0fb,"[""-0.25"",""0""]",right_blue.png,right,5,0,20,0,1,,,right,right_blue.png,up_orange.png,up,left,down,5be76e0505e5cd00017a1f8e,2021-09-11_16h40.13.723,arrow_simon_vert,2021.1.2,Win32,58.02146794,,,,,,,,,,,,,,,,,,,,,,,,,,,,,,,,,,,,,,
,,,down,1,0.9957,0,0.550866544,#f3af84,"[""0"",""-0.25""]",down_orange.png,down,5,1,21,2,1,,,left,left_blue.png,down_orange.png,down,left,down,5be76e0505e5cd00017a1f8e,2021-09-11_16h40.13.723,arrow_simon_vert,2021.1.2,Win32,58.02146794,,,,,,,,,,,,,,,,,,,,,,,,,,,,,,,,,,,,,,
,,,right,1,1.2898,0,0.01428245,#a3d0fb,"[""0.25"",""0""]",right_blue.png,right,5,2,22,1,1,,,right,right_blue.png,up_orange.png,up,right,up,5be76e0505e5cd00017a1f8e,2021-09-11_16h40.13.723,arrow_simon_vert,2021.1.2,Win32,58.02146794,,,,,,,,,,,,,,,,,,,,,,,,,,,,,,,,,,,,,,
,,,down,1,1.2685,0,0.631940711,#f3af84,"[""0"",""0.25""]",down_orange.png,down,5,3,23,3,1,,,left,left_blue.png,down_orange.png,down,right,up,5be76e0505e5cd00017a1f8e,2021-09-11_16h40.13.723,arrow_simon_vert,2021.1.2,Win32,58.02146794,,,,,,,,,,,,,,,,,,,,,,,,,,,,,,,,,,,,,,
,,,right,1,0.6186,0,0.012078353,#a3d0fb,"[""0.25"",""0""]",right_blue.png,right,6,0,24,1,1,,,right,right_blue.png,up_orange.png,up,right,up,5be76e0505e5cd00017a1f8e,2021-09-11_16h40.13.723,arrow_simon_vert,2021.1.2,Win32,58.02146794,,,,,,,,,,,,,,,,,,,,,,,,,,,,,,,,,,,,,,
,,,up,1,1.2889,0,0.514823682,#f3af84,"[""0"",""0.25""]",up_orange.png,up,6,1,25,1,1,,,right,right_blue.png,up_orange.png,up,right,up,5be76e0505e5cd00017a1f8e,2021-09-11_16h40.13.723,arrow_simon_vert,2021.1.2,Win32,58.02146794,,,,,,,,,,,,,,,,,,,,,,,,,,,,,,,,,,,,,,
,,,left,1,1.0423,0,0.574880707,#a3d0fb,"[""-0.25"",""0""]",left_blue.png,left,6,2,26,2,1,,,left,left_blue.png,down_orange.png,down,left,down,5be76e0505e5cd00017a1f8e,2021-09-11_16h40.13.723,arrow_simon_vert,2021.1.2,Win32,58.02146794,,,,,,,,,,,,,,,,,,,,,,,,,,,,,,,,,,,,,,
,,,down,1,1.2472,0,0.68455885,#f3af84,"[""0"",""0.25""]",down_orange.png,down,6,3,27,3,1,,,left,left_blue.png,down_orange.png,down,right,up,5be76e0505e5cd00017a1f8e,2021-09-11_16h40.13.723,arrow_simon_vert,2021.1.2,Win32,58.02146794,,,,,,,,,,,,,,,,,,,,,,,,,,,,,,,,,,,,,,
,,,right,1,0.6545,0,0.017940972,#a3d0fb,"[""-0.25"",""0""]",right_blue.png,right,7,0,28,0,1,,,right,right_blue.png,up_orange.png,up,left,down,5be76e0505e5cd00017a1f8e,2021-09-11_16h40.13.723,arrow_simon_vert,2021.1.2,Win32,58.02146794,,,,,,,,,,,,,,,,,,,,,,,,,,,,,,,,,,,,,,
,,,up,1,1.1934,0,0.607795546,#f3af84,"[""0"",""0.25""]",up_orange.png,up,7,1,29,1,1,,,right,right_blue.png,up_orange.png,up,right,up,5be76e0505e5cd00017a1f8e,2021-09-11_16h40.13.723,arrow_simon_vert,2021.1.2,Win32,58.02146794,,,,,,,,,,,,,,,,,,,,,,,,,,,,,,,,,,,,,,
,,,left,1,0.7606,0,0.260947717,#a3d0fb,"[""0.25"",""0""]",left_blue.png,left,7,2,30,3,1,,,left,left_blue.png,down_orange.png,down,right,up,5be76e0505e5cd00017a1f8e,2021-09-11_16h40.13.723,arrow_simon_vert,2021.1.2,Win32,58.02146794,,,,,,,,,,,,,,,,,,,,,,,,,,,,,,,,,,,,,,
,,,down,1,1.4535,0,0.710332853,#f3af84,"[""0"",""-0.25""]",down_orange.png,down,7,3,31,2,1,,,left,left_blue.png,down_orange.png,down,left,down,5be76e0505e5cd00017a1f8e,2021-09-11_16h40.13.723,arrow_simon_vert,2021.1.2,Win32,58.02146794,,,,,,,,,,,,,,,,,,,,,,,,,,,,,,,,,,,,,,
,,,left,1,0.6138,0,0.013468294,#a3d0fb,"[""0.25"",""0""]",left_blue.png,left,8,0,32,3,1,,,left,left_blue.png,down_orange.png,down,right,up,5be76e0505e5cd00017a1f8e,2021-09-11_16h40.13.723,arrow_simon_vert,2021.1.2,Win32,58.02146794,,,,,,,,,,,,,,,,,,,,,,,,,,,,,,,,,,,,,,
,,,up,1,0.909,0,0.203338452,#f3af84,"[""0"",""0.25""]",up_orange.png,up,8,1,33,1,1,,,right,right_blue.png,up_orange.png,up,right,up,5be76e0505e5cd00017a1f8e,2021-09-11_16h40.13.723,arrow_simon_vert,2021.1.2,Win32,58.02146794,,,,,,,,,,,,,,,,,,,,,,,,,,,,,,,,,,,,,,
,,,right,1,0.7521,0,0.149883856,#a3d0fb,"[""-0.25"",""0""]",right_blue.png,right,8,2,34,0,1,,,right,right_blue.png,up_orange.png,up,left,down,5be76e0505e5cd00017a1f8e,2021-09-11_16h40.13.723,arrow_simon_vert,2021.1.2,Win32,58.02146794,,,,,,,,,,,,,,,,,,,,,,,,,,,,,,,,,,,,,,
,,,down,1,0.8484,0,0.099972566,#f3af84,"[""0"",""0.25""]",down_orange.png,down,8,3,35,3,1,,,left,left_blue.png,down_orange.png,down,right,up,5be76e0505e5cd00017a1f8e,2021-09-11_16h40.13.723,arrow_simon_vert,2021.1.2,Win32,58.02146794,,,,,,,,,,,,,,,,,,,,,,,,,,,,,,,,,,,,,,
,,,left,1,1.0615,0,0.65020618,#a3d0fb,"[""-0.25"",""0""]",left_blue.png,left,9,0,36,2,1,,,left,left_blue.png,down_orange.png,down,left,down,5be76e0505e5cd00017a1f8e,2021-09-11_16h40.13.723,arrow_simon_vert,2021.1.2,Win32,58.02146794,,,,,,,,,,,,,,,,,,,,,,,,,,,,,,,,,,,,,,
,,,up,1,0.9229,0,0.445341468,#f3af84,"[""0"",""0.25""]",up_orange.png,up,9,1,37,1,1,,,right,right_blue.png,up_orange.png,up,right,up,5be76e0505e5cd00017a1f8e,2021-09-11_16h40.13.723,arrow_simon_vert,2021.1.2,Win32,58.02146794,,,,,,,,,,,,,,,,,,,,,,,,,,,,,,,,,,,,,,
,,,right,1,1.3641,0,0.66209097,#a3d0fb,"[""0.25"",""0""]",right_blue.png,right,9,2,38,1,1,,,right,right_blue.png,up_orange.png,up,right,up,5be76e0505e5cd00017a1f8e,2021-09-11_16h40.13.723,arrow_simon_vert,2021.1.2,Win32,58.02146794,,,,,,,,,,,,,,,,,,,,,,,,,,,,,,,,,,,,,,
,,,up,1,1.2524,0,0.804538058,#f3af84,"[""0"",""0.25""]",up_orange.png,up,9,3,39,1,1,,,right,right_blue.png,up_orange.png,up,right,up,5be76e0505e5cd00017a1f8e,2021-09-11_16h40.13.723,arrow_simon_vert,2021.1.2,Win32,58.02146794,,,,,,,,,,,,,,,,,,,,,,,,,,,,,,,,,,,,,,
,,,left,1,1.1126,0,0.661260267,#a3d0fb,"[""0.25"",""0""]",left_blue.png,left,10,0,40,3,1,,,left,left_blue.png,down_orange.png,down,right,up,5be76e0505e5cd00017a1f8e,2021-09-11_16h40.13.723,arrow_simon_vert,2021.1.2,Win32,58.02146794,,,,,,,,,,,,,,,,,,,,,,,,,,,,,,,,,,,,,,
,,,down,1,1.2115,0,0.344134701,#f3af84,"[""0"",""0.25""]",down_orange.png,down,10,1,41,3,1,,,left,left_blue.png,down_orange.png,down,right,up,5be76e0505e5cd00017a1f8e,2021-09-11_16h40.13.723,arrow_simon_vert,2021.1.2,Win32,58.02146794,,,,,,,,,,,,,,,,,,,,,,,,,,,,,,,,,,,,,,
,,,right,1,0.9458,0,0.383917515,#a3d0fb,"[""-0.25"",""0""]",right_blue.png,right,10,2,42,0,1,,,right,right_blue.png,up_orange.png,up,left,down,5be76e0505e5cd00017a1f8e,2021-09-11_16h40.13.723,arrow_simon_vert,2021.1.2,Win32,58.02146794,,,,,,,,,,,,,,,,,,,,,,,,,,,,,,,,,,,,,,
,,,up,1,1.5033,0,0.87379812,#f3af84,"[""0"",""-0.25""]",up_orange.png,up,10,3,43,0,1,,,right,right_blue.png,up_orange.png,up,left,down,5be76e0505e5cd00017a1f8e,2021-09-11_16h40.13.723,arrow_simon_vert,2021.1.2,Win32,58.02146794,,,,,,,,,,,,,,,,,,,,,,,,,,,,,,,,,,,,,,
,,,right,1,0.7909,0,0.031951125,#a3d0fb,"[""0.25"",""0""]",right_blue.png,right,11,0,44,1,1,,,right,right_blue.png,up_orange.png,up,right,up,5be76e0505e5cd00017a1f8e,2021-09-11_16h40.13.723,arrow_simon_vert,2021.1.2,Win32,58.02146794,,,,,,,,,,,,,,,,,,,,,,,,,,,,,,,,,,,,,,
,,,down,1,0.7087,0,0.032636879,#f3af84,"[""0"",""-0.25""]",down_orange.png,down,11,1,45,2,1,,,left,left_blue.png,down_orange.png,down,left,down,5be76e0505e5cd00017a1f8e,2021-09-11_16h40.13.723,arrow_simon_vert,2021.1.2,Win32,58.02146794,,,,,,,,,,,,,,,,,,,,,,,,,,,,,,,,,,,,,,
,,,right,1,1.6031,0,0.938443957,#a3d0fb,"[""-0.25"",""0""]",right_blue.png,right,11,2,46,0,1,,,right,right_blue.png,up_orange.png,up,left,down,5be76e0505e5cd00017a1f8e,2021-09-11_16h40.13.723,arrow_simon_vert,2021.1.2,Win32,58.02146794,,,,,,,,,,,,,,,,,,,,,,,,,,,,,,,,,,,,,,
,,,down,1,1.1747,0,0.606531331,#f3af84,"[""0"",""-0.25""]",down_orange.png,down,11,3,47,2,1,,,left,left_blue.png,down_orange.png,down,left,down,5be76e0505e5cd00017a1f8e,2021-09-11_16h40.13.723,arrow_simon_vert,2021.1.2,Win32,58.02146794,,,,,,,,,,,,,,,,,,,,,,,,,,,,,,,,,,,,,,
,,,right,1,1.0221,0,0.390058753,#a3d0fb,"[""-0.25"",""0""]",right_blue.png,right,12,0,48,0,1,,,right,right_blue.png,up_orange.png,up,left,down,5be76e0505e5cd00017a1f8e,2021-09-11_16h40.13.723,arrow_simon_vert,2021.1.2,Win32,58.02146794,,,,,,,,,,,,,,,,,,,,,,,,,,,,,,,,,,,,,,
,,,up,1,0.7691,0,0.209359766,#f3af84,"[""0"",""0.25""]",up_orange.png,up,12,1,49,1,1,,,right,right_blue.png,up_orange.png,up,right,up,5be76e0505e5cd00017a1f8e,2021-09-11_16h40.13.723,arrow_simon_vert,2021.1.2,Win32,58.02146794,,,,,,,,,,,,,,,,,,,,,,,,,,,,,,,,,,,,,,
,,,left,1,0.9021,0,0.533088353,#a3d0fb,"[""-0.25"",""0""]",left_blue.png,left,12,2,50,2,1,,,left,left_blue.png,down_orange.png,down,left,down,5be76e0505e5cd00017a1f8e,2021-09-11_16h40.13.723,arrow_simon_vert,2021.1.2,Win32,58.02146794,,,,,,,,,,,,,,,,,,,,,,,,,,,,,,,,,,,,,,
,,,up,1,1.2024,0,0.322280646,#f3af84,"[""0"",""-0.25""]",up_orange.png,up,12,3,51,0,1,,,right,right_blue.png,up_orange.png,up,left,down,5be76e0505e5cd00017a1f8e,2021-09-11_16h40.13.723,arrow_simon_vert,2021.1.2,Win32,58.02146794,,,,,,,,,,,,,,,,,,,,,,,,,,,,,,,,,,,,,,
,,,right,1,0.9822,0,0.27120357,#a3d0fb,"[""-0.25"",""0""]",right_blue.png,right,13,0,52,0,1,,,right,right_blue.png,up_orange.png,up,left,down,5be76e0505e5cd00017a1f8e,2021-09-11_16h40.13.723,arrow_simon_vert,2021.1.2,Win32,58.02146794,,,,,,,,,,,,,,,,,,,,,,,,,,,,,,,,,,,,,,
,,,up,1,0.8455,0,0.128330884,#f3af84,"[""0"",""-0.25""]",up_orange.png,up,13,1,53,0,1,,,right,right_blue.png,up_orange.png,up,left,down,5be76e0505e5cd00017a1f8e,2021-09-11_16h40.13.723,arrow_simon_vert,2021.1.2,Win32,58.02146794,,,,,,,,,,,,,,,,,,,,,,,,,,,,,,,,,,,,,,
,,,right,1,0.8702,0,0.346765743,#a3d0fb,"[""-0.25"",""0""]",right_blue.png,right,13,2,54,0,1,,,right,right_blue.png,up_orange.png,up,left,down,5be76e0505e5cd00017a1f8e,2021-09-11_16h40.13.723,arrow_simon_vert,2021.1.2,Win32,58.02146794,,,,,,,,,,,,,,,,,,,,,,,,,,,,,,,,,,,,,,
,,,down,1,1.295,0,0.834100816,#f3af84,"[""0"",""-0.25""]",down_orange.png,down,13,3,55,2,1,,,left,left_blue.png,down_orange.png,down,left,down,5be76e0505e5cd00017a1f8e,2021-09-11_16h40.13.723,arrow_simon_vert,2021.1.2,Win32,58.02146794,,,,,,,,,,,,,,,,,,,,,,,,,,,,,,,,,,,,,,
,,,left,1,0.6179,0,0.069912607,#a3d0fb,"[""0.25"",""0""]",left_blue.png,left,14,0,56,3,1,,,left,left_blue.png,down_orange.png,down,right,up,5be76e0505e5cd00017a1f8e,2021-09-11_16h40.13.723,arrow_simon_vert,2021.1.2,Win32,58.02146794,,,,,,,,,,,,,,,,,,,,,,,,,,,,,,,,,,,,,,
,,,down,1,0.8792,0,0.154619369,#f3af84,"[""0"",""-0.25""]",down_orange.png,down,14,1,57,2,1,,,left,left_blue.png,down_orange.png,down,left,down,5be76e0505e5cd00017a1f8e,2021-09-11_16h40.13.723,arrow_simon_vert,2021.1.2,Win32,58.02146794,,,,,,,,,,,,,,,,,,,,,,,,,,,,,,,,,,,,,,
,,,right,1,0.7075,0,0.277769337,#a3d0fb,"[""0.25"",""0""]",right_blue.png,right,14,2,58,1,1,,,right,right_blue.png,up_orange.png,up,right,up,5be76e0505e5cd00017a1f8e,2021-09-11_16h40.13.723,arrow_simon_vert,2021.1.2,Win32,58.02146794,,,,,,,,,,,,,,,,,,,,,,,,,,,,,,,,,,,,,,
,,,down,1,1.0954,0,0.505994299,#f3af84,"[""0"",""0.25""]",down_orange.png,down,14,3,59,3,1,,,left,left_blue.png,down_orange.png,down,right,up,5be76e0505e5cd00017a1f8e,2021-09-11_16h40.13.723,arrow_simon_vert,2021.1.2,Win32,58.02146794,,,,,,,,,,,,,,,,,,,,,,,,,,,,,,,,,,,,,,
,,,,,,,,,,,,,,,,,,,,,,,,,5be76e0505e5cd00017a1f8e,2021-09-11_16h40.13.723,arrow_simon_vert,2021.1.2,Win32,58.02146794,space,3.5448,1,0,1,0,1,,,,,,,,,,,,,,,,,,,,,,,,,,,,,,,
,,,,,,,,,,,,,,,,,,,,,,,,,5be76e0505e5cd00017a1f8e,2021-09-11_16h40.13.723,arrow_simon_vert,2021.1.2,Win32,58.02146794,,,,,,,,space,0,67.0384,right,3.1337,0,0,0,0,1,,,,,,,,,,,,,,,,,,,,,
,,,,,,,,,,,,,,,,,,,,,,,,,5be76e0505e5cd00017a1f8e,2021-09-11_16h40.13.723,arrow_simon_vert,2021.1.2,Win32,58.02146794,,,,,,,,,,,left,1.8974,1,0,1,0,1,,,,,,,,,,,,,,,,,,,,,
,,,,,,,,,,,,,,,,,,,,,,,,,5be76e0505e5cd00017a1f8e,2021-09-11_16h40.13.723,arrow_simon_vert,2021.1.2,Win32,58.02146794,,,,,,,,,,,right,2.1883,2,0,2,0,1,,,,,,,,,,,,,,,,,,,,,
,,,,,,,,,,,,,,,,,,,,,,,,,5be76e0505e5cd00017a1f8e,2021-09-11_16h40.13.723,arrow_simon_vert,2021.1.2,Win32,58.02146794,,,,,,,,,,,down,2.7719,3,0,3,0,1,,,,,,,,,,,,,,,,,,,,,
,,,,,,,,,,,,,,,,,,,,,,,,,5be76e0505e5cd00017a1f8e,2021-09-11_16h40.13.723,arrow_simon_vert,2021.1.2,Win32,58.02146794,,,,,,,,,,,left,2.4524,4,0,4,0,1,,,,,,,,,,,,,,,,,,,,,
,,,,,,,,,,,,,,,,,,,,,,,,,5be76e0505e5cd00017a1f8e,2021-09-11_16h40.13.723,arrow_simon_vert,2021.1.2,Win32,58.02146794,,,,,,,,,,,down,2.386,5,0,5,0,1,,,,,,,,,,,,,,,,,,,,,
,,,,,,,,,,,,,,,,,,,,,,,,,5be76e0505e5cd00017a1f8e,2021-09-11_16h40.13.723,arrow_simon_vert,2021.1.2,Win32,58.02146794,,,,,,,,,,,right,2.4776,6,0,6,0,1,,,,,,,,,,,,,,,,,,,,,
,,,,,,,,,,,,,,,,,,,,,,,,,5be76e0505e5cd00017a1f8e,2021-09-11_16h40.13.723,arrow_simon_vert,2021.1.2,Win32,58.02146794,,,,,,,,,,,up,2.4649,7,0,7,0,1,,,,,,,,,,,,,,,,,,,,,
,,,,,,,,,,,,,,,,,,,,,,,,,5be76e0505e5cd00017a1f8e,2021-09-11_16h40.13.723,arrow_simon_vert,2021.1.2,Win32,58.02146794,,,,,,,,,,,left,2.4228,8,0,8,0,1,,,,,,,,,,,,,,,,,,,,,
,,,,,,,,,,,,,,,,,,,,,,,,,5be76e0505e5cd00017a1f8e,2021-09-11_16h40.13.723,arrow_simon_vert,2021.1.2,Win32,58.02146794,,,,,,,,,,,down,2.3943,9,0,9,0,1,,,,,,,,,,,,,,,,,,,,,
,,,,,,,,,,,,,,,,,,,,,,,,,5be76e0505e5cd00017a1f8e,2021-09-11_16h40.13.723,arrow_simon_vert,2021.1.2,Win32,58.02146794,,,,,,,,,,,right,2.6097,10,0,10,0,1,,,,,,,,,,,,,,,,,,,,,
,,,,,,,,,,,,,,,,,,,,,,,,,5be76e0505e5cd00017a1f8e,2021-09-11_16h40.13.723,arrow_simon_vert,2021.1.2,Win32,58.02146794,,,,,,,,,,,up,2.2066,11,0,11,0,1,,,,,,,,,,,,,,,,,,,,,
,,,,,,,,,,,,,,,,,,,,,,,,,5be76e0505e5cd00017a1f8e,2021-09-11_16h40.13.723,arrow_simon_vert,2021.1.2,Win32,58.02146794,,,,,,,,,,,left,2.199,12,0,12,0,1,,,,,,,,,,,,,,,,,,,,,
,,,,,,,,,,,,,,,,,,,,,,,,,5be76e0505e5cd00017a1f8e,2021-09-11_16h40.13.723,arrow_simon_vert,2021.1.2,Win32,58.02146794,,,,,,,,,,,down,2.0048,13,0,13,0,1,,,,,,,,,,,,,,,,,,,,,
,,,,,,,,,,,,,,,,,,,,,,,,,5be76e0505e5cd00017a1f8e,2021-09-11_16h40.13.723,arrow_simon_vert,2021.1.2,Win32,58.02146794,,,,,,,,,,,right,2.6268,14,0,14,0,1,,,,,,,,,,,,,,,,,,,,,
,,,,,,,,,,,,,,,,,,,,,,,,,5be76e0505e5cd00017a1f8e,2021-09-11_16h40.13.723,arrow_simon_vert,2021.1.2,Win32,58.02146794,,,,,,,,,,,up,2.4418,15,0,15,0,1,,,,,,,,,,,,,,,,,,,,,
,,,,,,,,,,,,,,,,,,,,,,,,,5be76e0505e5cd00017a1f8e,2021-09-11_16h40.13.723,arrow_simon_vert,2021.1.2,Win32,58.02146794,,,,,,,,,,,left,2.4532,16,0,16,0,1,,,,,,,,,,,,,,,,,,,,,
,,,,,,,,,,,,,,,,,,,,,,,,,5be76e0505e5cd00017a1f8e,2021-09-11_16h40.13.723,arrow_simon_vert,2021.1.2,Win32,58.02146794,,,,,,,,,,,down,2.3534,17,0,17,0,1,,,,,,,,,,,,,,,,,,,,,
,,,,,,,,,,,,,,,,,,,,,,,,,5be76e0505e5cd00017a1f8e,2021-09-11_16h40.13.723,arrow_simon_vert,2021.1.2,Win32,58.02146794,,,,,,,,,,,right,2.4415,18,0,18,0,1,,,,,,,,,,,,,,,,,,,,,
,,,,,,,,,,,,,,,,,,,,,,,,,5be76e0505e5cd00017a1f8e,2021-09-11_16h40.13.723,arrow_simon_vert,2021.1.2,Win32,58.02146794,,,,,,,,,,,up,2.3414,19,0,19,0,1,,,,,,,,,,,,,,,,,,,,,
,,,,,,,,,,,,,,,,,,,,,,,,,5be76e0505e5cd00017a1f8e,2021-09-11_16h40.13.723,arrow_simon_vert,2021.1.2,Win32,58.02146794,,,,,,,,,,,left,2.353,20,0,20,0,1,,,,,,,,,,,,,,,,,,,,,
,,,,,,,,,,,,,,,,,,,,,,,,,5be76e0505e5cd00017a1f8e,2021-09-11_16h40.13.723,arrow_simon_vert,2021.1.2,Win32,58.02146794,,,,,,,,,,,right,2.5255,21,0,21,0,1,,,,,,,,,,,,,,,,,,,,,
,,,,,,,,,,,,,,,,,,,,,,,,,5be76e0505e5cd00017a1f8e,2021-09-11_16h40.13.723,arrow_simon_vert,2021.1.2,Win32,58.02146794,,,,,,,,,,,right,2.3052,22,0,22,0,1,,,,,,,,,,,,,,,,,,,,,
,,,,,,,,,,,,,,,,,,,,,,,,,5be76e0505e5cd00017a1f8e,2021-09-11_16h40.13.723,arrow_simon_vert,2021.1.2,Win32,58.02146794,,,,,,,,,,,up,2.2526,23,0,23,0,1,,,,,,,,,,,,,,,,,,,,,
,,,,,,,,,,,,,,,,,,,,,,,,,5be76e0505e5cd00017a1f8e,2021-09-11_16h40.13.723,arrow_simon_vert,2021.1.2,Win32,58.02146794,,,,,,,,,,,left,2.3706,24,0,24,0,1,,,,,,,,,,,,,,,,,,,,,
,,,,,,,,,,,,,,,,,,,,,,,,,5be76e0505e5cd00017a1f8e,2021-09-11_16h40.13.723,arrow_simon_vert,2021.1.2,Win32,58.02146794,,,,,,,,,,,up,2.5091,25,0,25,0,1,,,,,,,,,,,,,,,,,,,,,
,,,,,,,,,,,,,,,,,,,,,,,,,5be76e0505e5cd00017a1f8e,2021-09-11_16h40.13.723,arrow_simon_vert,2021.1.2,Win32,58.02146794,,,,,,,,,,,right,2.4639,26,0,26,0,1,,,,,,,,,,,,,,,,,,,,,
,,,,,,,,,,,,,,,,,,,,,,,,,5be76e0505e5cd00017a1f8e,2021-09-11_16h40.13.723,arrow_simon_vert,2021.1.2,Win32,58.02146794,,,,,,,,,,,down,2.6709,27,0,27,0,1,,,,,,,,,,,,,,,,,,,,,
,,,,,,,,,,,,,,,,,,,,,,,,,5be76e0505e5cd00017a1f8e,2021-09-11_16h40.13.723,arrow_simon_vert,2021.1.2,Win32,58.02146794,,,,,,,,,,,left,2.393,28,0,28,0,1,,,,,,,,,,,,,,,,,,,,,
,,,,,,,,,,,,,,,,,,,,,,,,,5be76e0505e5cd00017a1f8e,2021-09-11_16h40.13.723,arrow_simon_vert,2021.1.2,Win32,58.02146794,,,,,,,,,,,right,2.5583,29,0,29,0,1,,,,,,,,,,,,,,,,,,,,,
,,,,,,,,,,,,,,,,,,,,,,,,,5be76e0505e5cd00017a1f8e,2021-09-11_16h40.13.723,arrow_simon_vert,2021.1.2,Win32,58.02146794,,,,,,,,,,,right,2.5195,30,0,30,0,1,,,,,,,,,,,,,,,,,,,,,
,,,,,,,,,,,,,,,,,,,,,,,,,5be76e0505e5cd00017a1f8e,2021-09-11_16h40.13.723,arrow_simon_vert,2021.1.2,Win32,58.02146794,,,,,,,,,,,up,2.4475,31,0,31,0,1,,,,,,,,,,,,,,,,,,,,,
,,,,,,,,,,,,,,,,,,,,,,,,,5be76e0505e5cd00017a1f8e,2021-09-11_16h40.13.723,arrow_simon_vert,2021.1.2,Win32,58.02146794,,,,,,,,,,,left,2.4072,32,0,32,0,1,,,,,,,,,,,,,,,,,,,,,
,,,,,,,,,,,,,,,,,,,,,,,,,5be76e0505e5cd00017a1f8e,2021-09-11_16h40.13.723,arrow_simon_vert,2021.1.2,Win32,58.02146794,,,,,,,,,,,up,2.4897,33,0,33,0,1,,,,,,,,,,,,,,,,,,,,,
,,,,,,,,,,,,,,,,,,,,,,,,,5be76e0505e5cd00017a1f8e,2021-09-11_16h40.13.723,arrow_simon_vert,2021.1.2,Win32,58.02146794,,,,,,,,,,,left,2.4064,34,0,34,0,1,,,,,,,,,,,,,,,,,,,,,
,,,,,,,,,,,,,,,,,,,,,,,,,5be76e0505e5cd00017a1f8e,2021-09-11_16h40.13.723,arrow_simon_vert,2021.1.2,Win32,58.02146794,,,,,,,,,,,down,2.4372,35,0,35,0,1,,,,,,,,,,,,,,,,,,,,,
,,,,,,,,,,,,,,,,,,,,,,,,,5be76e0505e5cd00017a1f8e,2021-09-11_16h40.13.723,arrow_simon_vert,2021.1.2,Win32,58.02146794,,,,,,,,,,,left,2.4038,36,0,36,0,1,,,,,,,,,,,,,,,,,,,,,
,,,,,,,,,,,,,,,,,,,,,,,,,5be76e0505e5cd00017a1f8e,2021-09-11_16h40.13.723,arrow_simon_vert,2021.1.2,Win32,58.02146794,,,,,,,,,,,up,2.3747,37,0,37,0,1,,,,,,,,,,,,,,,,,,,,,
,,,,,,,,,,,,,,,,,,,,,,,,,5be76e0505e5cd00017a1f8e,2021-09-11_16h40.13.723,arrow_simon_vert,2021.1.2,Win32,58.02146794,,,,,,,,,,,right,2.5064,38,0,38,0,1,,,,,,,,,,,,,,,,,,,,,
,,,,,,,,,,,,,,,,,,,,,,,,,5be76e0505e5cd00017a1f8e,2021-09-11_16h40.13.723,arrow_simon_vert,2021.1.2,Win32,58.02146794,,,,,,,,,,,down,2.5875,39,0,39,0,1,,,,,,,,,,,,,,,,,,,,,
,,,,,,,,,,,,,,,,,,,,,,,,,5be76e0505e5cd00017a1f8e,2021-09-11_16h40.13.723,arrow_simon_vert,2021.1.2,Win32,58.02146794,,,,,,,,,,,left,2.4631,40,0,40,0,1,,,,,,,,,,,,,,,,,,,,,
,,,,,,,,,,,,,,,,,,,,,,,,,5be76e0505e5cd00017a1f8e,2021-09-11_16h40.13.723,arrow_simon_vert,2021.1.2,Win32,58.02146794,,,,,,,,,,,up,2.459,41,0,41,0,1,,,,,,,,,,,,,,,,,,,,,
,,,,,,,,,,,,,,,,,,,,,,,,,5be76e0505e5cd00017a1f8e,2021-09-11_16h40.13.723,arrow_simon_vert,2021.1.2,Win32,58.02146794,,,,,,,,,,,right,2.4457,42,0,42,0,1,,,,,,,,,,,,,,,,,,,,,
,,,,,,,,,,,,,,,,,,,,,,,,,5be76e0505e5cd00017a1f8e,2021-09-11_16h40.13.723,arrow_simon_vert,2021.1.2,Win32,58.02146794,,,,,,,,,,,up,2.4713,43,0,43,0,1,,,,,,,,,,,,,,,,,,,,,
,,,,,,,,,,,,,,,,,,,,,,,,,5be76e0505e5cd00017a1f8e,2021-09-11_16h40.13.723,arrow_simon_vert,2021.1.2,Win32,58.02146794,,,,,,,,,,,left,2.3533,44,0,44,0,1,,,,,,,,,,,,,,,,,,,,,
,,,,,,,,,,,,,,,,,,,,,,,,,5be76e0505e5cd00017a1f8e,2021-09-11_16h40.13.723,arrow_simon_vert,2021.1.2,Win32,58.02146794,,,,,,,,,,,down,2.488,45,0,45,0,1,,,,,,,,,,,,,,,,,,,,,
,,,,,,,,,,,,,,,,,,,,,,,,,5be76e0505e5cd00017a1f8e,2021-09-11_16h40.13.723,arrow_simon_vert,2021.1.2,Win32,58.02146794,,,,,,,,,,,right,2.3943,46,0,46,0,1,,,,,,,,,,,,,,,,,,,,,
,,,,,,,,,,,,,,,,,,,,,,,,,5be76e0505e5cd00017a1f8e,2021-09-11_16h40.13.723,arrow_simon_vert,2021.1.2,Win32,58.02146794,,,,,,,,,,,up,2.3927,47,0,47,0,1,,,,,,,,,,,,,,,,,,,,,
,,,,,,,,,,,,,,,,,,,,,,,,,5be76e0505e5cd00017a1f8e,2021-09-11_16h40.13.723,arrow_simon_vert,2021.1.2,Win32,58.02146794,,,,,,,,,,,left,2.4632,48,0,48,0,1,,,,,,,,,,,,,,,,,,,,,
,,,,,,,,,,,,,,,,,,,,,,,,,5be76e0505e5cd00017a1f8e,2021-09-11_16h40.13.723,arrow_simon_vert,2021.1.2,Win32,58.02146794,,,,,,,,,,,up,2.4911,49,0,49,0,1,,,,,,,,,,,,,,,,,,,,,
,,,,,,,,,,,,,,,,,,,,,,,,,5be76e0505e5cd00017a1f8e,2021-09-11_16h40.13.723,arrow_simon_vert,2021.1.2,Win32,58.02146794,,,,,,,,,,,right,2.4698,50,0,50,0,1,,,,,,,,,,,,,,,,,,,,,
,,,,,,,,,,,,,,,,,,,,,,,,,5be76e0505e5cd00017a1f8e,2021-09-11_16h40.13.723,arrow_simon_vert,2021.1.2,Win32,58.02146794,,,,,,,,,,,down,2.4422,51,0,51,0,1,,,,,,,,,,,,,,,,,,,,,
,,,,,,,,,,,,,,,,,,,,,,,,,5be76e0505e5cd00017a1f8e,2021-09-11_16h40.13.723,arrow_simon_vert,2021.1.2,Win32,58.02146794,,,,,,,,,,,left,2.5743,52,0,52,0,1,,,,,,,,,,,,,,,,,,,,,
,,,,,,,,,,,,,,,,,,,,,,,,,5be76e0505e5cd00017a1f8e,2021-09-11_16h40.13.723,arrow_simon_vert,2021.1.2,Win32,58.02146794,,,,,,,,,,,up,2.5049,53,0,53,0,1,,,,,,,,,,,,,,,,,,,,,
,,,,,,,,,,,,,,,,,,,,,,,,,5be76e0505e5cd00017a1f8e,2021-09-11_16h40.13.723,arrow_simon_vert,2021.1.2,Win32,58.02146794,,,,,,,,,,,right,2.4211,54,0,54,0,1,,,,,,,,,,,,,,,,,,,,,
,,,,,,,,,,,,,,,,,,,,,,,,,5be76e0505e5cd00017a1f8e,2021-09-11_16h40.13.723,arrow_simon_vert,2021.1.2,Win32,58.02146794,,,,,,,,,,,down,2.4619,55,0,55,0,1,,,,,,,,,,,,,,,,,,,,,
,,,,,,,,,,,,,,,,,,,,,,,,,5be76e0505e5cd00017a1f8e,2021-09-11_16h40.13.723,arrow_simon_vert,2021.1.2,Win32,58.02146794,,,,,,,,,,,left,2.5456,56,0,56,0,1,,,,,,,,,,,,,,,,,,,,,
,,,,,,,,,,,,,,,,,,,,,,,,,5be76e0505e5cd00017a1f8e,2021-09-11_16h40.13.723,arrow_simon_vert,2021.1.2,Win32,58.02146794,,,,,,,,,,,up,2.4412,57,0,57,0,1,,,,,,,,,,,,,,,,,,,,,
,,,,,,,,,,,,,,,,,,,,,,,,,5be76e0505e5cd00017a1f8e,2021-09-11_16h40.13.723,arrow_simon_vert,2021.1.2,Win32,58.02146794,,,,,,,,,,,right,2.4403,58,0,58,0,1,,,,,,,,,,,,,,,,,,,,,
,,,,,,,,,,,,,,,,,,,,,,,,,5be76e0505e5cd00017a1f8e,2021-09-11_16h40.13.723,arrow_simon_vert,2021.1.2,Win32,58.02146794,,,,,,,,,,,down,2.5082,59,0,59,0,1,,,,,,,,,,,,,,,,,,,,,
,,,,,,0,2.183793354,#a3d0fb,"[""0.25"",""0""]",right_blue.png,right,,,,,,,,right,right_blue.png,up_orange.png,up,right,up,5be76e0505e5cd00017a1f8e,2021-09-11_16h40.13.723,arrow_simon_vert,2021.1.2,Win32,58.02146794,,,,,,,,,,,,,,,,,,space,0,50.5041,right,1,1.6073,1,TRUE,FALSE,0,0,0,1,1,,,,,,,
,,,,,,0,1.843543287,#f3af84,"[""0"",""0.25""]",down_orange.png,down,,,,,,,,left,left_blue.png,down_orange.png,down,right,up,5be76e0505e5cd00017a1f8e,2021-09-11_16h40.13.723,arrow_simon_vert,2021.1.2,Win32,58.02146794,,,,,,,,,,,,,,,,,,,,,up,0,1.255,2,FALSE,TRUE,0,1,1,3,1,,,,,,,
,,,,,,0,1.542303035,#a3d0fb,"[""-0.25"",""0""]",right_blue.png,right,,,,,,,,right,right_blue.png,up_orange.png,up,left,down,5be76e0505e5cd00017a1f8e,2021-09-11_16h40.13.723,arrow_simon_vert,2021.1.2,Win32,58.02146794,,,,,,,,,,,,,,,,,,,,,right,1,1.0893,3,FALSE,TRUE,0,2,2,0,1,,,,,,,
,,,,,,0,1.705300346,#f3af84,"[""0"",""-0.25""]",up_orange.png,up,,,,,,,,right,right_blue.png,up_orange.png,up,left,down,5be76e0505e5cd00017a1f8e,2021-09-11_16h40.13.723,arrow_simon_vert,2021.1.2,Win32,58.02146794,,,,,,,,,,,,,,,,,,,,,left,0,1.2285,4,FALSE,TRUE,0,3,3,0,1,,,,,,,
,,,,,,0,1.807046574,#a3d0fb,"[""0.25"",""0""]",right_blue.png,right,,,,,,,,right,right_blue.png,up_orange.png,up,right,up,5be76e0505e5cd00017a1f8e,2021-09-11_16h40.13.723,arrow_simon_vert,2021.1.2,Win32,58.02146794,,,,,,,,,,,,,,,,,,,,,right,1,1.1543,5,FALSE,TRUE,1,0,4,1,1,,,,,,,
,,,,,,0,1.526530692,#f3af84,"[""0"",""0.25""]",up_orange.png,up,,,,,,,,right,right_blue.png,up_orange.png,up,right,up,5be76e0505e5cd00017a1f8e,2021-09-11_16h40.13.723,arrow_simon_vert,2021.1.2,Win32,58.02146794,,,,,,,,,,,,,,,,,,,,,up,1,1.393,6,FALSE,TRUE,1,1,5,1,1,,,,,,,
,,,,,,0,1.70951215,#a3d0fb,"[""0.25"",""0""]",left_blue.png,left,,,,,,,,left,left_blue.png,down_orange.png,down,right,up,5be76e0505e5cd00017a1f8e,2021-09-11_16h40.13.723,arrow_simon_vert,2021.1.2,Win32,58.02146794,,,,,,,,,,,,,,,,,,,,,left,1,1.6006,7,TRUE,FALSE,1,2,6,3,1,,,,,,,
,,,,,,0,1.617290481,#f3af84,"[""0"",""-0.25""]",up_orange.png,up,,,,,,,,right,right_blue.png,up_orange.png,up,left,down,5be76e0505e5cd00017a1f8e,2021-09-11_16h40.13.723,arrow_simon_vert,2021.1.2,Win32,58.02146794,,,,,,,,,,,,,,,,,,,,,up,1,1.2615,8,FALSE,TRUE,1,3,7,0,1,,,,,,,
,,,,,,0,1.862079795,#a3d0fb,"[""0.25"",""0""]",left_blue.png,left,,,,,,,,left,left_blue.png,down_orange.png,down,right,up,5be76e0505e5cd00017a1f8e,2021-09-11_16h40.13.723,arrow_simon_vert,2021.1.2,Win32,58.02146794,,,,,,,,,,,,,,,,,,,,,left,1,1.5399,9,FALSE,FALSE,2,0,8,3,1,,,,,,,
,,,,,,0,2.369786442,#f3af84,"[""0"",""0.25""]",up_orange.png,up,,,,,,,,right,right_blue.png,up_orange.png,up,right,up,5be76e0505e5cd00017a1f8e,2021-09-11_16h40.13.723,arrow_simon_vert,2021.1.2,Win32,58.02146794,,,,,,,,,,,,,,,,,,,,,up,1,1.7894,10,TRUE,FALSE,2,1,9,1,1,,,,,,,
,,,,,,0,2.346971502,#a3d0fb,"[""0.25"",""0""]",right_blue.png,right,,,,,,,,right,right_blue.png,up_orange.png,up,right,up,5be76e0505e5cd00017a1f8e,2021-09-11_16h40.13.723,arrow_simon_vert,2021.1.2,Win32,58.02146794,,,,,,,,,,,,,,,,,,,,,right,1,1.7585,11,TRUE,FALSE,2,2,10,1,1,,,,,,,
,,,,,,0,1.660277854,#f3af84,"[""0"",""-0.25""]",up_orange.png,up,,,,,,,,right,right_blue.png,up_orange.png,up,left,down,5be76e0505e5cd00017a1f8e,2021-09-11_16h40.13.723,arrow_simon_vert,2021.1.2,Win32,58.02146794,,,,,,,,,,,,,,,,,,,,,up,1,1.358,12,FALSE,TRUE,2,3,11,0,1,,,,,,,
,,,,,,0,1.727008379,#a3d0fb,"[""0.25"",""0""]",right_blue.png,right,,,,,,,,right,right_blue.png,up_orange.png,up,right,up,5be76e0505e5cd00017a1f8e,2021-09-11_16h40.13.723,arrow_simon_vert,2021.1.2,Win32,58.02146794,,,,,,,,,,,,,,,,,,,,,right,1,1.5104,13,FALSE,FALSE,3,0,12,1,1,,,,,,,
,,,,,,0,1.58084325,#f3af84,"[""0"",""0.25""]",up_orange.png,up,,,,,,,,right,right_blue.png,up_orange.png,up,right,up,5be76e0505e5cd00017a1f8e,2021-09-11_16h40.13.723,arrow_simon_vert,2021.1.2,Win32,58.02146794,,,,,,,,,,,,,,,,,,,,,up,1,1.6396,14,TRUE,FALSE,3,1,13,1,1,,,,,,,
,,,,,,0,2.105708045,#a3d0fb,"[""-0.25"",""0""]",left_blue.png,left,,,,,,,,left,left_blue.png,down_orange.png,down,left,down,5be76e0505e5cd00017a1f8e,2021-09-11_16h40.13.723,arrow_simon_vert,2021.1.2,Win32,58.02146794,,,,,,,,,,,,,,,,,,,,,left,1,1.4382,15,FALSE,FALSE,3,2,14,2,1,,,,,,,
,,,,,,0,2.097561948,#f3af84,"[""0"",""0.25""]",up_orange.png,up,,,,,,,,right,right_blue.png,up_orange.png,up,right,up,5be76e0505e5cd00017a1f8e,2021-09-11_16h40.13.723,arrow_simon_vert,2021.1.2,Win32,58.02146794,,,,,,,,,,,,,,,,,,,,,up,1,1.6574,16,TRUE,FALSE,3,3,15,1,1,,,,,,,
,,,,,,0,1.69103035,#a3d0fb,"[""-0.25"",""0""]",left_blue.png,left,,,,,,,,left,left_blue.png,down_orange.png,down,left,down,5be76e0505e5cd00017a1f8e,2021-09-11_16h40.13.723,arrow_simon_vert,2021.1.2,Win32,58.02146794,,,,,,,,,,,,,,,,,,,,,left,1,1.2217,17,FALSE,TRUE,4,0,16,2,1,,,,,,,
,,,,,,0,1.714540637,#f3af84,"[""0"",""-0.25""]",down_orange.png,down,,,,,,,,left,left_blue.png,down_orange.png,down,left,down,5be76e0505e5cd00017a1f8e,2021-09-11_16h40.13.723,arrow_simon_vert,2021.1.2,Win32,58.02146794,,,,,,,,,,,,,,,,,,,,,down,1,1.2799,18,FALSE,TRUE,4,1,17,2,1,,,,,,,
,,,,,,0,1.85132135,#a3d0fb,"[""0.25"",""0""]",right_blue.png,right,,,,,,,,right,right_blue.png,up_orange.png,up,right,up,5be76e0505e5cd00017a1f8e,2021-09-11_16h40.13.723,arrow_simon_vert,2021.1.2,Win32,58.02146794,,,,,,,,,,,,,,,,,,,,,right,1,1.4909,19,FALSE,FALSE,4,2,18,1,1,,,,,,,
,,,,,,0,1.722387674,#f3af84,"[""0"",""0.25""]",up_orange.png,up,,,,,,,,right,right_blue.png,up_orange.png,up,right,up,5be76e0505e5cd00017a1f8e,2021-09-11_16h40.13.723,arrow_simon_vert,2021.1.2,Win32,58.02146794,,,,,,,,,,,,,,,,,,,,,up,1,1.5327,20,FALSE,FALSE,4,3,19,1,1,,,,,,,
,,,,,,0,1.89429893,#a3d0fb,"[""0.25"",""0""]",right_blue.png,right,,,,,,,,right,right_blue.png,up_orange.png,up,right,up,5be76e0505e5cd00017a1f8e,2021-09-11_16h40.13.723,arrow_simon_vert,2021.1.2,Win32,58.02146794,,,,,,,,,,,,,,,,,,,,,right,1,1.4137,21,FALSE,FALSE,5,0,20,1,1,,,,,,,
,,,,,,0,2.474374025,#f3af84,"[""0"",""0.25""]",down_orange.png,down,,,,,,,,left,left_blue.png,down_orange.png,down,right,up,5be76e0505e5cd00017a1f8e,2021-09-11_16h40.13.723,arrow_simon_vert,2021.1.2,Win32,58.02146794,,,,,,,,,,,,,,,,,,,,,down,1,1.9575,22,TRUE,FALSE,5,1,21,3,1,,,,,,,
,,,,,,0,2.326449755,#a3d0fb,"[""0.25"",""0""]",left_blue.png,left,,,,,,,,left,left_blue.png,down_orange.png,down,right,up,5be76e0505e5cd00017a1f8e,2021-09-11_16h40.13.723,arrow_simon_vert,2021.1.2,Win32,58.02146794,,,,,,,,,,,,,,,,,,,,,left,1,1.6589,23,TRUE,FALSE,5,2,22,3,1,,,,,,,
,,,,,,0,2.256802926,#f3af84,"[""0"",""0.25""]",down_orange.png,down,,,,,,,,left,left_blue.png,down_orange.png,down,right,up,5be76e0505e5cd00017a1f8e,2021-09-11_16h40.13.723,arrow_simon_vert,2021.1.2,Win32,58.02146794,,,,,,,,,,,,,,,,,,,,,down,1,1.6881,24,TRUE,FALSE,5,3,23,3,1,,,,,,,
,,,,,,0,2.027277536,#a3d0fb,"[""-0.25"",""0""]",left_blue.png,left,,,,,,,,left,left_blue.png,down_orange.png,down,left,down,5be76e0505e5cd00017a1f8e,2021-09-11_16h40.13.723,arrow_simon_vert,2021.1.2,Win32,58.02146794,,,,,,,,,,,,,,,,,,,,,left,1,1.3555,25,FALSE,TRUE,6,0,24,2,1,,,,,,,
,,,,,,0,1.774601428,#f3af84,"[""0"",""-0.25""]",up_orange.png,up,,,,,,,,right,right_blue.png,up_orange.png,up,left,down,5be76e0505e5cd00017a1f8e,2021-09-11_16h40.13.723,arrow_simon_vert,2021.1.2,Win32,58.02146794,,,,,,,,,,,,,,,,,,,,,up,1,1.3284,26,FALSE,TRUE,6,1,25,0,1,,,,,,,
,,,,,,0,1.737392528,#a3d0fb,"[""-0.25"",""0""]",left_blue.png,left,,,,,,,,left,left_blue.png,down_orange.png,down,left,down,5be76e0505e5cd00017a1f8e,2021-09-11_16h40.13.723,arrow_simon_vert,2021.1.2,Win32,58.02146794,,,,,,,,,,,,,,,,,,,,,left,1,1.2217,27,FALSE,TRUE,6,2,26,2,1,,,,,,,
,,,,,,0,2.35631966,#f3af84,"[""0"",""-0.25""]",down_orange.png,down,,,,,,,,left,left_blue.png,down_orange.png,down,left,down,5be76e0505e5cd00017a1f8e,2021-09-11_16h40.13.723,arrow_simon_vert,2021.1.2,Win32,58.02146794,,,,,,,,,,,,,,,,,,,,,down,1,1.7894,28,TRUE,FALSE,6,3,27,2,1,,,,,,,
,,,,,,0,2.289814867,#a3d0fb,"[""-0.25"",""0""]",left_blue.png,left,,,,,,,,left,left_blue.png,down_orange.png,down,left,down,5be76e0505e5cd00017a1f8e,2021-09-11_16h40.13.723,arrow_simon_vert,2021.1.2,Win32,58.02146794,,,,,,,,,,,,,,,,,,,,,left,1,1.7328,29,TRUE,FALSE,7,0,28,2,1,,,,,,,
,,,,,,0,1.827259839,#f3af84,"[""0"",""-0.25""]",down_orange.png,down,,,,,,,,left,left_blue.png,down_orange.png,down,left,down,5be76e0505e5cd00017a1f8e,2021-09-11_16h40.13.723,arrow_simon_vert,2021.1.2,Win32,58.02146794,,,,,,,,,,,,,,,,,,,,,left,0,1.2779,30,FALSE,TRUE,7,1,29,2,1,,,,,,,
,,,,,,0,2.165623715,#a3d0fb,"[""0.25"",""0""]",left_blue.png,left,,,,,,,,left,left_blue.png,down_orange.png,down,right,up,5be76e0505e5cd00017a1f8e,2021-09-11_16h40.13.723,arrow_simon_vert,2021.1.2,Win32,58.02146794,,,,,,,,,,,,,,,,,,,,,left,1,1.5055,31,FALSE,FALSE,7,2,30,3,1,,,,,,,
,,,,,,0,1.83553423,#f3af84,"[""0"",""-0.25""]",up_orange.png,up,,,,,,,,right,right_blue.png,up_orange.png,up,left,down,5be76e0505e5cd00017a1f8e,2021-09-11_16h40.13.723,arrow_simon_vert,2021.1.2,Win32,58.02146794,,,,,,,,,,,,,,,,,,,,,up,1,1.4102,32,FALSE,FALSE,7,3,31,0,1,,,,,,,
,,,,,,0,2.002226685,#a3d0fb,"[""-0.25"",""0""]",right_blue.png,right,,,,,,,,right,right_blue.png,up_orange.png,up,left,down,5be76e0505e5cd00017a1f8e,2021-09-11_16h40.13.723,arrow_simon_vert,2021.1.2,Win32,58.02146794,,,,,,,,,,,,,,,,,,,,,right,1,1.3915,33,FALSE,TRUE,8,0,32,0,1,,,,,,,
,,,,,,0,2.278742069,#f3af84,"[""0"",""0.25""]",down_orange.png,down,,,,,,,,left,left_blue.png,down_orange.png,down,right,up,5be76e0505e5cd00017a1f8e,2021-09-11_16h40.13.723,arrow_simon_vert,2021.1.2,Win32,58.02146794,,,,,,,,,,,,,,,,,,,,,down,1,1.7705,34,TRUE,FALSE,8,1,33,3,1,,,,,,,
,,,,,,0,1.588641755,#a3d0fb,"[""0.25"",""0""]",right_blue.png,right,,,,,,,,right,right_blue.png,up_orange.png,up,right,up,5be76e0505e5cd00017a1f8e,2021-09-11_16h40.13.723,arrow_simon_vert,2021.1.2,Win32,58.02146794,,,,,,,,,,,,,,,,,,,,,right,1,1.0888,35,FALSE,TRUE,8,2,34,1,1,,,,,,,
,,,,,,0,2.262791142,#f3af84,"[""0"",""-0.25""]",up_orange.png,up,,,,,,,,right,right_blue.png,up_orange.png,up,left,down,5be76e0505e5cd00017a1f8e,2021-09-11_16h40.13.723,arrow_simon_vert,2021.1.2,Win32,58.02146794,,,,,,,,,,,,,,,,,,,,,down,0,1.7738,36,TRUE,FALSE,8,3,35,0,1,,,,,,,
,,,,,,0,2.454392517,#a3d0fb,"[""0.25"",""0""]",left_blue.png,left,,,,,,,,left,left_blue.png,down_orange.png,down,right,up,5be76e0505e5cd00017a1f8e,2021-09-11_16h40.13.723,arrow_simon_vert,2021.1.2,Win32,58.02146794,,,,,,,,,,,,,,,,,,,,,left,1,1.8474,37,TRUE,FALSE,9,0,36,3,1,,,,,,,
,,,,,,0,1.521768374,#f3af84,"[""0"",""0.25""]",down_orange.png,down,,,,,,,,left,left_blue.png,down_orange.png,down,right,up,5be76e0505e5cd00017a1f8e,2021-09-11_16h40.13.723,arrow_simon_vert,2021.1.2,Win32,58.02146794,,,,,,,,,,,,,,,,,,,,,down,1,1.5146,38,FALSE,FALSE,9,1,37,3,1,,,,,,,
,,,,,,0,1.627915442,#a3d0fb,"[""-0.25"",""0""]",left_blue.png,left,,,,,,,,left,left_blue.png,down_orange.png,down,left,down,5be76e0505e5cd00017a1f8e,2021-09-11_16h40.13.723,arrow_simon_vert,2021.1.2,Win32,58.02146794,,,,,,,,,,,,,,,,,,,,,left,1,1.5246,39,FALSE,FALSE,9,2,38,2,1,,,,,,,
,,,,,,0,2.317261822,#f3af84,"[""0"",""0.25""]",down_orange.png,down,,,,,,,,left,left_blue.png,down_orange.png,down,right,up,5be76e0505e5cd00017a1f8e,2021-09-11_16h40.13.723,arrow_simon_vert,2021.1.2,Win32,58.02146794,,,,,,,,,,,,,,,,,,,,,down,1,1.758,40,TRUE,FALSE,9,3,39,3,1,,,,,,,
,,,,,,0,1.68790872,#a3d0fb,"[""-0.25"",""0""]",right_blue.png,right,,,,,,,,right,right_blue.png,up_orange.png,up,left,down,5be76e0505e5cd00017a1f8e,2021-09-11_16h40.13.723,arrow_simon_vert,2021.1.2,Win32,58.02146794,,,,,,,,,,,,,,,,,,,,,right,1,1.3642,41,FALSE,TRUE,10,0,40,0,1,,,,,,,
,,,,,,0,1.912430405,#f3af84,"[""0"",""0.25""]",up_orange.png,up,,,,,,,,right,right_blue.png,up_orange.png,up,right,up,5be76e0505e5cd00017a1f8e,2021-09-11_16h40.13.723,arrow_simon_vert,2021.1.2,Win32,58.02146794,,,,,,,,,,,,,,,,,,,,,up,1,1.5889,42,FALSE,FALSE,10,1,41,1,1,,,,,,,
,,,,,,0,2.265968766,#a3d0fb,"[""-0.25"",""0""]",right_blue.png,right,,,,,,,,right,right_blue.png,up_orange.png,up,left,down,5be76e0505e5cd00017a1f8e,2021-09-11_16h40.13.723,arrow_simon_vert,2021.1.2,Win32,58.02146794,,,,,,,,,,,,,,,,,,,,,right,1,1.5894,43,FALSE,FALSE,10,2,42,0,1,,,,,,,
,,,,,,0,1.968922695,#f3af84,"[""0"",""-0.25""]",up_orange.png,up,,,,,,,,right,right_blue.png,up_orange.png,up,left,down,5be76e0505e5cd00017a1f8e,2021-09-11_16h40.13.723,arrow_simon_vert,2021.1.2,Win32,58.02146794,,,,,,,,,,,,,,,,,,,,,up,1,1.4224,44,FALSE,FALSE,10,3,43,0,1,,,,,,,
,,,,,,0,1.997884337,#a3d0fb,"[""-0.25"",""0""]",left_blue.png,left,,,,,,,,left,left_blue.png,down_orange.png,down,left,down,5be76e0505e5cd00017a1f8e,2021-09-11_16h40.13.723,arrow_simon_vert,2021.1.2,Win32,58.02146794,,,,,,,,,,,,,,,,,,,,,left,1,1.3499,45,FALSE,TRUE,11,0,44,2,1,,,,,,,
,,,,,,0,2.274482344,#f3af84,"[""0"",""0.25""]",up_orange.png,up,,,,,,,,right,right_blue.png,up_orange.png,up,right,up,5be76e0505e5cd00017a1f8e,2021-09-11_16h40.13.723,arrow_simon_vert,2021.1.2,Win32,58.02146794,,,,,,,,,,,,,,,,,,,,,up,1,1.6304,46,TRUE,FALSE,11,1,45,1,1,,,,,,,
,,,,,,0,1.641883678,#a3d0fb,"[""-0.25"",""0""]",left_blue.png,left,,,,,,,,left,left_blue.png,down_orange.png,down,left,down,5be76e0505e5cd00017a1f8e,2021-09-11_16h40.13.723,arrow_simon_vert,2021.1.2,Win32,58.02146794,,,,,,,,,,,,,,,,,,,,,left,1,1.4754,47,FALSE,FALSE,11,2,46,2,1,,,,,,,
,,,,,,0,1.961545136,#f3af84,"[""0"",""-0.25""]",down_orange.png,down,,,,,,,,left,left_blue.png,down_orange.png,down,left,down,5be76e0505e5cd00017a1f8e,2021-09-11_16h40.13.723,arrow_simon_vert,2021.1.2,Win32,58.02146794,,,,,,,,,,,,,,,,,,,,,down,1,1.3085,48,FALSE,TRUE,11,3,47,2,1,,,,,,,
,,,,,,0,2.328550211,#a3d0fb,"[""0.25"",""0""]",left_blue.png,left,,,,,,,,left,left_blue.png,down_orange.png,down,right,up,5be76e0505e5cd00017a1f8e,2021-09-11_16h40.13.723,arrow_simon_vert,2021.1.2,Win32,58.02146794,,,,,,,,,,,,,,,,,,,,,left,1,1.7569,49,TRUE,FALSE,12,0,48,3,1,,,,,,,
,,,,,,0,2.099920186,#f3af84,"[""0"",""-0.25""]",down_orange.png,down,,,,,,,,left,left_blue.png,down_orange.png,down,left,down,5be76e0505e5cd00017a1f8e,2021-09-11_16h40.13.723,arrow_simon_vert,2021.1.2,Win32,58.02146794,,,,,,,,,,,,,,,,,,,,,down,1,1.4882,50,FALSE,FALSE,12,1,49,2,1,,,,,,,
,,,,,,0,1.967121511,#a3d0fb,"[""-0.25"",""0""]",left_blue.png,left,,,,,,,,left,left_blue.png,down_orange.png,down,left,down,5be76e0505e5cd00017a1f8e,2021-09-11_16h40.13.723,arrow_simon_vert,2021.1.2,Win32,58.02146794,,,,,,,,,,,,,,,,,,,,,left,1,1.3763,51,FALSE,TRUE,12,2,50,2,1,,,,,,,
,,,,,,0,2.006866447,#f3af84,"[""0"",""-0.25""]",up_orange.png,up,,,,,,,,right,right_blue.png,up_orange.png,up,left,down,5be76e0505e5cd00017a1f8e,2021-09-11_16h40.13.723,arrow_simon_vert,2021.1.2,Win32,58.02146794,,,,,,,,,,,,,,,,,,,,,up,1,1.6402,52,TRUE,FALSE,12,3,51,0,1,,,,,,,
,,,,,,0,2.025563849,#a3d0fb,"[""-0.25"",""0""]",right_blue.png,right,,,,,,,,right,right_blue.png,up_orange.png,up,left,down,5be76e0505e5cd00017a1f8e,2021-09-11_16h40.13.723,arrow_simon_vert,2021.1.2,Win32,58.02146794,,,,,,,,,,,,,,,,,,,,,right,1,1.5411,53,FALSE,FALSE,13,0,52,0,1,,,,,,,
,,,,,,1,2.262423932,#f3af84,"[""0"",""-0.25""]",down_orange.png,down,,,,,,,,left,left_blue.png,down_orange.png,down,left,down,5be76e0505e5cd00017a1f8e,2021-09-11_16h40.13.723,arrow_simon_vert,2021.1.2,Win32,58.02146794,,,,,,,,,,,,,,,,,,,,,up,0,1.5476,54,FALSE,FALSE,13,1,53,2,1,,,,,,,
,,,,,,1,1.967511787,#a3d0fb,"[""-0.25"",""0""]",right_blue.png,right,,,,,,,,right,right_blue.png,up_orange.png,up,left,down,5be76e0505e5cd00017a1f8e,2021-09-11_16h40.13.723,arrow_simon_vert,2021.1.2,Win32,58.02146794,,,,,,,,,,,,,,,,,,,,,right,1,1.7084,55,TRUE,FALSE,13,2,54,0,1,,,,,,,
,,,,,,0,1.941734461,#f3af84,"[""0"",""-0.25""]",up_orange.png,up,,,,,,,,right,right_blue.png,up_orange.png,up,left,down,5be76e0505e5cd00017a1f8e,2021-09-11_16h40.13.723,arrow_simon_vert,2021.1.2,Win32,58.02146794,,,,,,,,,,,,,,,,,,,,,up,1,1.4609,56,FALSE,FALSE,13,3,55,0,1,,,,,,,
,,,,,,0,2.215057952,#a3d0fb,"[""0.25"",""0""]",right_blue.png,right,,,,,,,,right,right_blue.png,up_orange.png,up,right,up,5be76e0505e5cd00017a1f8e,2021-09-11_16h40.13.723,arrow_simon_vert,2021.1.2,Win32,58.02146794,,,,,,,,,,,,,,,,,,,,,right,1,1.634,57,TRUE,FALSE,14,0,56,1,1,,,,,,,
,,,,,,0,2.093302727,#f3af84,"[""0"",""0.25""]",down_orange.png,down,,,,,,,,left,left_blue.png,down_orange.png,down,right,up,5be76e0505e5cd00017a1f8e,2021-09-11_16h40.13.723,arrow_simon_vert,2021.1.2,Win32,58.02146794,,,,,,,,,,,,,,,,,,,,,down,1,1.6239,58,TRUE,FALSE,14,1,57,3,1,,,,,,,
,,,,,,0,1.751974991,#a3d0fb,"[""0.25"",""0""]",left_blue.png,left,,,,,,,,left,left_blue.png,down_orange.png,down,right,up,5be76e0505e5cd00017a1f8e,2021-09-11_16h40.13.723,arrow_simon_vert,2021.1.2,Win32,58.02146794,,,,,,,,,,,,,,,,,,,,,left,1,1.1628,59,FALSE,TRUE,14,2,58,3,1,,,,,,,
,,,,,,0,1.928988428,#f3af84,"[""0"",""0.25""]",down_orange.png,down,,,,,,,,left,left_blue.png,down_orange.png,down,right,up,5be76e0505e5cd00017a1f8e,2021-09-11_16h40.13.723,arrow_simon_vert,2021.1.2,Win32,58.02146794,,,,,,,,,,,,,,,,,,,,,down,1,1.5553,60,FALSE,FALSE,14,3,59,3,1,,,,,,,
,,,,,,,,,,,,,,,,,,,,,,,,,5be76e0505e5cd00017a1f8e,2021-09-11_16h40.13.723,arrow_simon_vert,2021.1.2,Win32,58.02146794,,,,,,,,,,,,,,,,,,,,,,,,,,,,,,,,space,16.7235,0,0,0,0,1
,,,,,,0,1.784397602,#a3d0fb,"[""-0.25"",""0""]",right_blue.png,right,,,,,,,,right,right_blue.png,up_orange.png,up,left,down,5be76e0505e5cd00017a1f8e,2021-09-11_16h40.13.723,arrow_simon_vert,2021.1.2,Win32,58.02146794,,,,,,,,,,,,,,,,,,,,,right,1,1.5431,1,FALSE,FALSE,0,0,0,0,1,,,,,,,
,,,,,,0,1.826984439,#f3af84,"[""0"",""0.25""]",up_orange.png,up,,,,,,,,right,right_blue.png,up_orange.png,up,right,up,5be76e0505e5cd00017a1f8e,2021-09-11_16h40.13.723,arrow_simon_vert,2021.1.2,Win32,58.02146794,,,,,,,,,,,,,,,,,,,,,up,1,1.5274,2,FALSE,FALSE,0,1,1,1,1,,,,,,,
,,,,,,0,1.858784803,#a3d0fb,"[""0.25"",""0""]",left_blue.png,left,,,,,,,,left,left_blue.png,down_orange.png,down,right,up,5be76e0505e5cd00017a1f8e,2021-09-11_16h40.13.723,arrow_simon_vert,2021.1.2,Win32,58.02146794,,,,,,,,,,,,,,,,,,,,,left,1,1.6651,3,TRUE,FALSE,0,2,2,3,1,,,,,,,
,,,,,,0,2.386220339,#f3af84,"[""0"",""0.25""]",up_orange.png,up,,,,,,,,right,right_blue.png,up_orange.png,up,right,up,5be76e0505e5cd00017a1f8e,2021-09-11_16h40.13.723,arrow_simon_vert,2021.1.2,Win32,58.02146794,,,,,,,,,,,,,,,,,,,,,up,1,1.8596,4,TRUE,FALSE,0,3,3,1,1,,,,,,,
,,,,,,0,1.789637509,#a3d0fb,"[""-0.25"",""0""]",left_blue.png,left,,,,,,,,left,left_blue.png,down_orange.png,down,left,down,5be76e0505e5cd00017a1f8e,2021-09-11_16h40.13.723,arrow_simon_vert,2021.1.2,Win32,58.02146794,,,,,,,,,,,,,,,,,,,,,left,1,1.4481,5,FALSE,FALSE,1,0,4,2,1,,,,,,,
,,,,,,0,2.164223564,#f3af84,"[""0"",""-0.25""]",up_orange.png,up,,,,,,,,right,right_blue.png,up_orange.png,up,left,down,5be76e0505e5cd00017a1f8e,2021-09-11_16h40.13.723,arrow_simon_vert,2021.1.2,Win32,58.02146794,,,,,,,,,,,,,,,,,,,,,up,1,1.6719,6,TRUE,FALSE,1,1,5,0,1,,,,,,,
,,,,,,0,2.232959516,#a3d0fb,"[""-0.25"",""0""]",right_blue.png,right,,,,,,,,right,right_blue.png,up_orange.png,up,left,down,5be76e0505e5cd00017a1f8e,2021-09-11_16h40.13.723,arrow_simon_vert,2021.1.2,Win32,58.02146794,,,,,,,,,,,,,,,,,,,,,right,1,1.625,7,TRUE,FALSE,1,2,6,0,1,,,,,,,
,,,,,,0,2.133053456,#f3af84,"[""0"",""-0.25""]",down_orange.png,down,,,,,,,,left,left_blue.png,down_orange.png,down,left,down,5be76e0505e5cd00017a1f8e,2021-09-11_16h40.13.723,arrow_simon_vert,2021.1.2,Win32,58.02146794,,,,,,,,,,,,,,,,,,,,,down,1,1.6054,8,TRUE,FALSE,1,3,7,2,1,,,,,,,
,,,,,,0,2.096570188,#a3d0fb,"[""-0.25"",""0""]",left_blue.png,left,,,,,,,,left,left_blue.png,down_orange.png,down,left,down,5be76e0505e5cd00017a1f8e,2021-09-11_16h40.13.723,arrow_simon_vert,2021.1.2,Win32,58.02146794,,,,,,,,,,,,,,,,,,,,,left,1,1.5282,9,FALSE,FALSE,2,0,8,2,1,,,,,,,
,,,,,,0,2.129728399,#f3af84,"[""0"",""-0.25""]",down_orange.png,down,,,,,,,,left,left_blue.png,down_orange.png,down,left,down,5be76e0505e5cd00017a1f8e,2021-09-11_16h40.13.723,arrow_simon_vert,2021.1.2,Win32,58.02146794,,,,,,,,,,,,,,,,,,,,,down,1,1.5938,10,FALSE,FALSE,2,1,9,2,1,,,,,,,
,,,,,,0,1.592861664,#a3d0fb,"[""-0.25"",""0""]",right_blue.png,right,,,,,,,,right,right_blue.png,up_orange.png,up,left,down,5be76e0505e5cd00017a1f8e,2021-09-11_16h40.13.723,arrow_simon_vert,2021.1.2,Win32,58.02146794,,,,,,,,,,,,,,,,,,,,,right,1,1.4736,11,FALSE,FALSE,2,2,10,0,1,,,,,,,
,,,,,,0,2.158538006,#f3af84,"[""0"",""0.25""]",down_orange.png,down,,,,,,,,left,left_blue.png,down_orange.png,down,right,up,5be76e0505e5cd00017a1f8e,2021-09-11_16h40.13.723,arrow_simon_vert,2021.1.2,Win32,58.02146794,,,,,,,,,,,,,,,,,,,,,down,1,1.6236,12,TRUE,FALSE,2,3,11,3,1,,,,,,,
,,,,,,0,1.828861336,#a3d0fb,"[""-0.25"",""0""]",right_blue.png,right,,,,,,,,right,right_blue.png,up_orange.png,up,left,down,5be76e0505e5cd00017a1f8e,2021-09-11_16h40.13.723,arrow_simon_vert,2021.1.2,Win32,58.02146794,,,,,,,,,,,,,,,,,,,,,right,1,1.5059,13,FALSE,FALSE,3,0,12,0,1,,,,,,,
,,,,,,0,1.855647793,#f3af84,"[""0"",""-0.25""]",down_orange.png,down,,,,,,,,left,left_blue.png,down_orange.png,down,left,down,5be76e0505e5cd00017a1f8e,2021-09-11_16h40.13.723,arrow_simon_vert,2021.1.2,Win32,58.02146794,,,,,,,,,,,,,,,,,,,,,down,1,1.5238,14,FALSE,FALSE,3,1,13,2,1,,,,,,,
,,,,,,0,1.917347837,#a3d0fb,"[""0.25"",""0""]",left_blue.png,left,,,,,,,,left,left_blue.png,down_orange.png,down,right,up,5be76e0505e5cd00017a1f8e,2021-09-11_16h40.13.723,arrow_simon_vert,2021.1.2,Win32,58.02146794,,,,,,,,,,,,,,,,,,,,,left,1,1.4743,15,FALSE,FALSE,3,2,14,3,1,,,,,,,
,,,,,,0,1.922583275,#f3af84,"[""0"",""-0.25""]",up_orange.png,up,,,,,,,,right,right_blue.png,up_orange.png,up,left,down,5be76e0505e5cd00017a1f8e,2021-09-11_16h40.13.723,arrow_simon_vert,2021.1.2,Win32,58.02146794,,,,,,,,,,,,,,,,,,,,,up,1,1.6233,16,TRUE,FALSE,3,3,15,0,1,,,,,,,
,,,,,,0,1.915859198,#a3d0fb,"[""0.25"",""0""]",left_blue.png,left,,,,,,,,left,left_blue.png,down_orange.png,down,right,up,5be76e0505e5cd00017a1f8e,2021-09-11_16h40.13.723,arrow_simon_vert,2021.1.2,Win32,58.02146794,,,,,,,,,,,,,,,,,,,,,left,1,1.3054,17,FALSE,TRUE,4,0,16,3,1,,,,,,,
,,,,,,0,1.968170779,#f3af84,"[""0"",""-0.25""]",up_orange.png,up,,,,,,,,right,right_blue.png,up_orange.png,up,left,down,5be76e0505e5cd00017a1f8e,2021-09-11_16h40.13.723,arrow_simon_vert,2021.1.2,Win32,58.02146794,,,,,,,,,,,,,,,,,,,,,up,1,1.4384,18,FALSE,FALSE,4,1,17,0,1,,,,,,,
,,,,,,1,2.1838488,#a3d0fb,"[""-0.25"",""0""]",right_blue.png,right,,,,,,,,right,right_blue.png,up_orange.png,up,left,down,5be76e0505e5cd00017a1f8e,2021-09-11_16h40.13.723,arrow_simon_vert,2021.1.2,Win32,58.02146794,,,,,,,,,,,,,,,,,,,,,left,0,1.5557,19,FALSE,FALSE,4,2,18,0,1,,,,,,,
,,,,,,0,1.989249582,#f3af84,"[""0"",""-0.25""]",up_orange.png,up,,,,,,,,right,right_blue.png,up_orange.png,up,left,down,5be76e0505e5cd00017a1f8e,2021-09-11_16h40.13.723,arrow_simon_vert,2021.1.2,Win32,58.02146794,,,,,,,,,,,,,,,,,,,,,up,1,1.4477,20,FALSE,FALSE,4,3,19,0,1,,,,,,,
,,,,,,0,2.2263232,#a3d0fb,"[""-0.25"",""0""]",left_blue.png,left,,,,,,,,left,left_blue.png,down_orange.png,down,left,down,5be76e0505e5cd00017a1f8e,2021-09-11_16h40.13.723,arrow_simon_vert,2021.1.2,Win32,58.02146794,,,,,,,,,,,,,,,,,,,,,left,1,1.6404,21,TRUE,FALSE,5,0,20,2,1,,,,,,,
,,,,,,0,2.329870322,#f3af84,"[""0"",""0.25""]",up_orange.png,up,,,,,,,,right,right_blue.png,up_orange.png,up,right,up,5be76e0505e5cd00017a1f8e,2021-09-11_16h40.13.723,arrow_simon_vert,2021.1.2,Win32,58.02146794,,,,,,,,,,,,,,,,,,,,,up,1,1.7395,22,TRUE,FALSE,5,1,21,1,1,,,,,,,
,,,,,,0,1.698948325,#a3d0fb,"[""0.25"",""0""]",right_blue.png,right,,,,,,,,right,right_blue.png,up_orange.png,up,right,up,5be76e0505e5cd00017a1f8e,2021-09-11_16h40.13.723,arrow_simon_vert,2021.1.2,Win32,58.02146794,,,,,,,,,,,,,,,,,,,,,right,1,1.2572,23,FALSE,TRUE,5,2,22,1,1,,,,,,,
,,,,,,0,1.76328436,#f3af84,"[""0"",""-0.25""]",up_orange.png,up,,,,,,,,right,right_blue.png,up_orange.png,up,left,down,5be76e0505e5cd00017a1f8e,2021-09-11_16h40.13.723,arrow_simon_vert,2021.1.2,Win32,58.02146794,,,,,,,,,,,,,,,,,,,,,up,1,1.4881,24,FALSE,FALSE,5,3,23,0,1,,,,,,,
,,,,,,1,2.241862515,#a3d0fb,"[""0.25"",""0""]",right_blue.png,right,,,,,,,,right,right_blue.png,up_orange.png,up,right,up,5be76e0505e5cd00017a1f8e,2021-09-11_16h40.13.723,arrow_simon_vert,2021.1.2,Win32,58.02146794,,,,,,,,,,,,,,,,,,,,,left,0,1.5541,25,FALSE,FALSE,6,0,24,1,1,,,,,,,
,,,,,,1,1.850977403,#f3af84,"[""0"",""0.25""]",down_orange.png,down,,,,,,,,left,left_blue.png,down_orange.png,down,right,up,5be76e0505e5cd00017a1f8e,2021-09-11_16h40.13.723,arrow_simon_vert,2021.1.2,Win32,58.02146794,,,,,,,,,,,,,,,,,,,,,right,0,1.5229,26,FALSE,FALSE,6,1,25,3,1,,,,,,,
,,,,,,0,2.155635627,#a3d0fb,"[""0.25"",""0""]",left_blue.png,left,,,,,,,,left,left_blue.png,down_orange.png,down,right,up,5be76e0505e5cd00017a1f8e,2021-09-11_16h40.13.723,arrow_simon_vert,2021.1.2,Win32,58.02146794,,,,,,,,,,,,,,,,,,,,,left,1,1.5565,27,FALSE,FALSE,6,2,26,3,1,,,,,,,
,,,,,,0,2.248365041,#f3af84,"[""0"",""-0.25""]",up_orange.png,up,,,,,,,,right,right_blue.png,up_orange.png,up,left,down,5be76e0505e5cd00017a1f8e,2021-09-11_16h40.13.723,arrow_simon_vert,2021.1.2,Win32,58.02146794,,,,,,,,,,,,,,,,,,,,,up,1,1.6941,28,TRUE,FALSE,6,3,27,0,1,,,,,,,
,,,,,,0,2.314474236,#a3d0fb,"[""-0.25"",""0""]",left_blue.png,left,,,,,,,,left,left_blue.png,down_orange.png,down,left,down,5be76e0505e5cd00017a1f8e,2021-09-11_16h40.13.723,arrow_simon_vert,2021.1.2,Win32,58.02146794,,,,,,,,,,,,,,,,,,,,,left,1,1.7067,29,TRUE,FALSE,7,0,28,2,1,,,,,,,
,,,,,,1,1.581065022,#f3af84,"[""0"",""-0.25""]",down_orange.png,down,,,,,,,,left,left_blue.png,down_orange.png,down,left,down,5be76e0505e5cd00017a1f8e,2021-09-11_16h40.13.723,arrow_simon_vert,2021.1.2,Win32,58.02146794,,,,,,,,,,,,,,,,,,,,,left,0,1.5384,30,FALSE,FALSE,7,1,29,2,1,,,,,,,
,,,,,,0,2.146151778,#a3d0fb,"[""0.25"",""0""]",right_blue.png,right,,,,,,,,right,right_blue.png,up_orange.png,up,right,up,5be76e0505e5cd00017a1f8e,2021-09-11_16h40.13.723,arrow_simon_vert,2021.1.2,Win32,58.02146794,,,,,,,,,,,,,,,,,,,,,right,1,1.5782,31,FALSE,FALSE,7,2,30,1,1,,,,,,,
,,,,,,0,2.374710097,#f3af84,"[""0"",""-0.25""]",down_orange.png,down,,,,,,,,left,left_blue.png,down_orange.png,down,left,down,5be76e0505e5cd00017a1f8e,2021-09-11_16h40.13.723,arrow_simon_vert,2021.1.2,Win32,58.02146794,,,,,,,,,,,,,,,,,,,,,down,1,1.9393,32,TRUE,FALSE,7,3,31,2,1,,,,,,,
,,,,,,0,2.021467251,#a3d0fb,"[""0.25"",""0""]",right_blue.png,right,,,,,,,,right,right_blue.png,up_orange.png,up,right,up,5be76e0505e5cd00017a1f8e,2021-09-11_16h40.13.723,arrow_simon_vert,2021.1.2,Win32,58.02146794,,,,,,,,,,,,,,,,,,,,,right,1,1.4907,33,FALSE,FALSE,8,0,32,1,1,,,,,,,
,,,,,,0,2.416551699,#f3af84,"[""0"",""0.25""]",up_orange.png,up,,,,,,,,right,right_blue.png,up_orange.png,up,right,up,5be76e0505e5cd00017a1f8e,2021-09-11_16h40.13.723,arrow_simon_vert,2021.1.2,Win32,58.02146794,,,,,,,,,,,,,,,,,,,,,up,1,1.8101,34,TRUE,FALSE,8,1,33,1,1,,,,,,,
,,,,,,0,1.832399363,#a3d0fb,"[""0.25"",""0""]",left_blue.png,left,,,,,,,,left,left_blue.png,down_orange.png,down,right,up,5be76e0505e5cd00017a1f8e,2021-09-11_16h40.13.723,arrow_simon_vert,2021.1.2,Win32,58.02146794,,,,,,,,,,,,,,,,,,,,,left,1,1.4893,35,FALSE,FALSE,8,2,34,3,1,,,,,,,
,,,,,,0,1.531004497,#f3af84,"[""0"",""-0.25""]",up_orange.png,up,,,,,,,,right,right_blue.png,up_orange.png,up,left,down,5be76e0505e5cd00017a1f8e,2021-09-11_16h40.13.723,arrow_simon_vert,2021.1.2,Win32,58.02146794,,,,,,,,,,,,,,,,,,,,,up,1,1.2572,36,FALSE,TRUE,8,3,35,0,1,,,,,,,
,,,,,,0,1.65762728,#a3d0fb,"[""0.25"",""0""]",right_blue.png,right,,,,,,,,right,right_blue.png,up_orange.png,up,right,up,5be76e0505e5cd00017a1f8e,2021-09-11_16h40.13.723,arrow_simon_vert,2021.1.2,Win32,58.02146794,,,,,,,,,,,,,,,,,,,,,right,1,1.3972,37,FALSE,TRUE,9,0,36,1,1,,,,,,,
,,,,,,0,2.010030057,#f3af84,"[""0"",""-0.25""]",down_orange.png,down,,,,,,,,left,left_blue.png,down_orange.png,down,left,down,5be76e0505e5cd00017a1f8e,2021-09-11_16h40.13.723,arrow_simon_vert,2021.1.2,Win32,58.02146794,,,,,,,,,,,,,,,,,,,,,down,1,1.643,38,TRUE,FALSE,9,1,37,2,1,,,,,,,
,,,,,,0,2.364742318,#a3d0fb,"[""0.25"",""0""]",left_blue.png,left,,,,,,,,left,left_blue.png,down_orange.png,down,right,up,5be76e0505e5cd00017a1f8e,2021-09-11_16h40.13.723,arrow_simon_vert,2021.1.2,Win32,58.02146794,,,,,,,,,,,,,,,,,,,,,left,1,1.7394,39,TRUE,FALSE,9,2,38,3,1,,,,,,,
,,,,,,0,2.008423291,#f3af84,"[""0"",""-0.25""]",down_orange.png,down,,,,,,,,left,left_blue.png,down_orange.png,down,left,down,5be76e0505e5cd00017a1f8e,2021-09-11_16h40.13.723,arrow_simon_vert,2021.1.2,Win32,58.02146794,,,,,,,,,,,,,,,,,,,,,down,1,1.4564,40,FALSE,FALSE,9,3,39,2,1,,,,,,,
,,,,,,0,1.554147883,#a3d0fb,"[""0.25"",""0""]",left_blue.png,left,,,,,,,,left,left_blue.png,down_orange.png,down,right,up,5be76e0505e5cd00017a1f8e,2021-09-11_16h40.13.723,arrow_simon_vert,2021.1.2,Win32,58.02146794,,,,,,,,,,,,,,,,,,,,,left,1,1.271,41,FALSE,TRUE,10,0,40,3,1,,,,,,,
,,,,,,0,1.843192105,#f3af84,"[""0"",""-0.25""]",down_orange.png,down,,,,,,,,left,left_blue.png,down_orange.png,down,left,down,5be76e0505e5cd00017a1f8e,2021-09-11_16h40.13.723,arrow_simon_vert,2021.1.2,Win32,58.02146794,,,,,,,,,,,,,,,,,,,,,down,1,1.639,42,TRUE,FALSE,10,1,41,2,1,,,,,,,
,,,,,,0,1.609660132,#a3d0fb,"[""-0.25"",""0""]",left_blue.png,left,,,,,,,,left,left_blue.png,down_orange.png,down,left,down,5be76e0505e5cd00017a1f8e,2021-09-11_16h40.13.723,arrow_simon_vert,2021.1.2,Win32,58.02146794,,,,,,,,,,,,,,,,,,,,,left,1,1.4744,43,FALSE,FALSE,10,2,42,2,1,,,,,,,
,,,,,,0,2.08990478,#f3af84,"[""0"",""0.25""]",up_orange.png,up,,,,,,,,right,right_blue.png,up_orange.png,up,right,up,5be76e0505e5cd00017a1f8e,2021-09-11_16h40.13.723,arrow_simon_vert,2021.1.2,Win32,58.02146794,,,,,,,,,,,,,,,,,,,,,up,1,1.5486,44,FALSE,FALSE,10,3,43,1,1,,,,,,,
,,,,,,0,2.200665541,#a3d0fb,"[""0.25"",""0""]",right_blue.png,right,,,,,,,,right,right_blue.png,up_orange.png,up,right,up,5be76e0505e5cd00017a1f8e,2021-09-11_16h40.13.723,arrow_simon_vert,2021.1.2,Win32,58.02146794,,,,,,,,,,,,,,,,,,,,,right,1,1.5644,45,FALSE,FALSE,11,0,44,1,1,,,,,,,
,,,,,,0,1.985548021,#f3af84,"[""0"",""0.25""]",down_orange.png,down,,,,,,,,left,left_blue.png,down_orange.png,down,right,up,5be76e0505e5cd00017a1f8e,2021-09-11_16h40.13.723,arrow_simon_vert,2021.1.2,Win32,58.02146794,,,,,,,,,,,,,,,,,,,,,up,0,1.6119,46,TRUE,FALSE,11,1,45,3,1,,,,,,,
,,,,,,0,2.022316455,#a3d0fb,"[""0.25"",""0""]",left_blue.png,left,,,,,,,,left,left_blue.png,down_orange.png,down,right,up,5be76e0505e5cd00017a1f8e,2021-09-11_16h40.13.723,arrow_simon_vert,2021.1.2,Win32,58.02146794,,,,,,,,,,,,,,,,,,,,,left,1,1.4345,47,FALSE,FALSE,11,2,46,3,1,,,,,,,
,,,,,,0,1.652198044,#f3af84,"[""0"",""0.25""]",up_orange.png,up,,,,,,,,right,right_blue.png,up_orange.png,up,right,up,5be76e0505e5cd00017a1f8e,2021-09-11_16h40.13.723,arrow_simon_vert,2021.1.2,Win32,58.02146794,,,,,,,,,,,,,,,,,,,,,up,1,1.3376,48,FALSE,TRUE,11,3,47,1,1,,,,,,,
,,,,,,0,2.090574935,#a3d0fb,"[""0.25"",""0""]",left_blue.png,left,,,,,,,,left,left_blue.png,down_orange.png,down,right,up,5be76e0505e5cd00017a1f8e,2021-09-11_16h40.13.723,arrow_simon_vert,2021.1.2,Win32,58.02146794,,,,,,,,,,,,,,,,,,,,,left,1,1.5591,49,FALSE,FALSE,12,0,48,3,1,,,,,,,
,,,,,,0,1.615036751,#f3af84,"[""0"",""0.25""]",down_orange.png,down,,,,,,,,left,left_blue.png,down_orange.png,down,right,up,5be76e0505e5cd00017a1f8e,2021-09-11_16h40.13.723,arrow_simon_vert,2021.1.2,Win32,58.02146794,,,,,,,,,,,,,,,,,,,,,down,1,1.4464,50,FALSE,FALSE,12,1,49,3,1,,,,,,,
,,,,,,0,1.509837599,#a3d0fb,"[""0.25"",""0""]",left_blue.png,left,,,,,,,,left,left_blue.png,down_orange.png,down,right,up,5be76e0505e5cd00017a1f8e,2021-09-11_16h40.13.723,arrow_simon_vert,2021.1.2,Win32,58.02146794,,,,,,,,,,,,,,,,,,,,,left,1,1.2912,51,FALSE,TRUE,12,2,50,3,1,,,,,,,
,,,,,,0,2.030322599,#f3af84,"[""0"",""0.25""]",up_orange.png,up,,,,,,,,right,right_blue.png,up_orange.png,up,right,up,5be76e0505e5cd00017a1f8e,2021-09-11_16h40.13.723,arrow_simon_vert,2021.1.2,Win32,58.02146794,,,,,,,,,,,,,,,,,,,,,up,1,1.4299,52,FALSE,FALSE,12,3,51,1,1,,,,,,,
,,,,,,0,1.637326783,#a3d0fb,"[""-0.25"",""0""]",left_blue.png,left,,,,,,,,left,left_blue.png,down_orange.png,down,left,down,5be76e0505e5cd00017a1f8e,2021-09-11_16h40.13.723,arrow_simon_vert,2021.1.2,Win32,58.02146794,,,,,,,,,,,,,,,,,,,,,left,1,1.4339,53,FALSE,FALSE,13,0,52,2,1,,,,,,,
,,,,,,0,1.978971549,#f3af84,"[""0"",""0.25""]",up_orange.png,up,,,,,,,,right,right_blue.png,up_orange.png,up,right,up,5be76e0505e5cd00017a1f8e,2021-09-11_16h40.13.723,arrow_simon_vert,2021.1.2,Win32,58.02146794,,,,,,,,,,,,,,,,,,,,,up,1,1.4936,54,FALSE,FALSE,13,1,53,1,1,,,,,,,
,,,,,,0,2.08627514,#a3d0fb,"[""0.25"",""0""]",left_blue.png,left,,,,,,,,left,left_blue.png,down_orange.png,down,right,up,5be76e0505e5cd00017a1f8e,2021-09-11_16h40.13.723,arrow_simon_vert,2021.1.2,Win32,58.02146794,,,,,,,,,,,,,,,,,,,,,left,1,1.6091,55,TRUE,FALSE,13,2,54,3,1,,,,,,,
,,,,,,0,1.647376125,#f3af84,"[""0"",""-0.25""]",up_orange.png,up,,,,,,,,right,right_blue.png,up_orange.png,up,left,down,5be76e0505e5cd00017a1f8e,2021-09-11_16h40.13.723,arrow_simon_vert,2021.1.2,Win32,58.02146794,,,,,,,,,,,,,,,,,,,,,up,1,1.4088,56,FALSE,FALSE,13,3,55,0,1,,,,,,,
,,,,,,0,1.75171543,#a3d0fb,"[""-0.25"",""0""]",right_blue.png,right,,,,,,,,right,right_blue.png,up_orange.png,up,left,down,5be76e0505e5cd00017a1f8e,2021-09-11_16h40.13.723,arrow_simon_vert,2021.1.2,Win32,58.02146794,,,,,,,,,,,,,,,,,,,,,right,1,1.2994,57,FALSE,TRUE,14,0,56,0,1,,,,,,,
,,,,,,0,2.308140372,#f3af84,"[""0"",""0.25""]",up_orange.png,up,,,,,,,,right,right_blue.png,up_orange.png,up,right,up,5be76e0505e5cd00017a1f8e,2021-09-11_16h40.13.723,arrow_simon_vert,2021.1.2,Win32,58.02146794,,,,,,,,,,,,,,,,,,,,,up,1,1.983,58,TRUE,FALSE,14,1,57,1,1,,,,,,,
,,,,,,0,1.549062377,#a3d0fb,"[""-0.25"",""0""]",left_blue.png,left,,,,,,,,left,left_blue.png,down_orange.png,down,left,down,5be76e0505e5cd00017a1f8e,2021-09-11_16h40.13.723,arrow_simon_vert,2021.1.2,Win32,58.02146794,,,,,,,,,,,,,,,,,,,,,left,1,1.1052,59,FALSE,TRUE,14,2,58,2,1,,,,,,,
,,,,,,0,1.512444773,#f3af84,"[""0"",""-0.25""]",up_orange.png,up,,,,,,,,right,right_blue.png,up_orange.png,up,left,down,5be76e0505e5cd00017a1f8e,2021-09-11_16h40.13.723,arrow_simon_vert,2021.1.2,Win32,58.02146794,,,,,,,,,,,,,,,,,,,,,up,1,1.4063,60,FALSE,FALSE,14,3,59,0,1,,,,,,,
,,,,,,,,,,,,,,,,,,,,,,,,,5be76e0505e5cd00017a1f8e,2021-09-11_16h40.13.723,arrow_simon_vert,2021.1.2,Win32,58.02146794,,,,,,,,,,,,,,,,,,,,,,,,,,,,,,,,space,2.505,1,0,1,0,1
,,,,,,0,2.107511167,#a3d0fb,"[""-0.25"",""0""]",right_blue.png,right,,,,,,,,right,right_blue.png,up_orange.png,up,left,down,5be76e0505e5cd00017a1f8e,2021-09-11_16h40.13.723,arrow_simon_vert,2021.1.2,Win32,58.02146794,,,,,,,,,,,,,,,,,,,,,right,1,1.5904,1,FALSE,FALSE,0,0,0,0,1,,,,,,,
,,,,,,0,1.733813642,#f3af84,"[""0"",""0.25""]",down_orange.png,down,,,,,,,,left,left_blue.png,down_orange.png,down,right,up,5be76e0505e5cd00017a1f8e,2021-09-11_16h40.13.723,arrow_simon_vert,2021.1.2,Win32,58.02146794,,,,,,,,,,,,,,,,,,,,,down,1,1.4385,2,FALSE,FALSE,0,1,1,3,1,,,,,,,
,,,,,,0,2.46853929,#a3d0fb,"[""0.25"",""0""]",right_blue.png,right,,,,,,,,right,right_blue.png,up_orange.png,up,right,up,5be76e0505e5cd00017a1f8e,2021-09-11_16h40.13.723,arrow_simon_vert,2021.1.2,Win32,58.02146794,,,,,,,,,,,,,,,,,,,,,right,1,1.8579,3,TRUE,FALSE,0,2,2,1,1,,,,,,,
,,,,,,0,1.946425414,#f3af84,"[""0"",""0.25""]",up_orange.png,up,,,,,,,,right,right_blue.png,up_orange.png,up,right,up,5be76e0505e5cd00017a1f8e,2021-09-11_16h40.13.723,arrow_simon_vert,2021.1.2,Win32,58.02146794,,,,,,,,,,,,,,,,,,,,,up,1,1.4048,4,FALSE,FALSE,0,3,3,1,1,,,,,,,
,,,,,,0,1.624887648,#a3d0fb,"[""0.25"",""0""]",right_blue.png,right,,,,,,,,right,right_blue.png,up_orange.png,up,right,up,5be76e0505e5cd00017a1f8e,2021-09-11_16h40.13.723,arrow_simon_vert,2021.1.2,Win32,58.02146794,,,,,,,,,,,,,,,,,,,,,right,1,1.3131,5,FALSE,TRUE,1,0,4,1,1,,,,,,,
,,,,,,0,2.109339405,#f3af84,"[""0"",""-0.25""]",up_orange.png,up,,,,,,,,right,right_blue.png,up_orange.png,up,left,down,5be76e0505e5cd00017a1f8e,2021-09-11_16h40.13.723,arrow_simon_vert,2021.1.2,Win32,58.02146794,,,,,,,,,,,,,,,,,,,,,up,1,1.5793,6,FALSE,FALSE,1,1,5,0,1,,,,,,,
,,,,,,0,1.802473028,#a3d0fb,"[""-0.25"",""0""]",left_blue.png,left,,,,,,,,left,left_blue.png,down_orange.png,down,left,down,5be76e0505e5cd00017a1f8e,2021-09-11_16h40.13.723,arrow_simon_vert,2021.1.2,Win32,58.02146794,,,,,,,,,,,,,,,,,,,,,left,1,1.4877,7,FALSE,FALSE,1,2,6,2,1,,,,,,,
,,,,,,0,1.92083772,#f3af84,"[""0"",""0.25""]",down_orange.png,down,,,,,,,,left,left_blue.png,down_orange.png,down,right,up,5be76e0505e5cd00017a1f8e,2021-09-11_16h40.13.723,arrow_simon_vert,2021.1.2,Win32,58.02146794,,,,,,,,,,,,,,,,,,,,,down,1,1.3729,8,FALSE,TRUE,1,3,7,3,1,,,,,,,
,,,,,,0,2.314154799,#a3d0fb,"[""-0.25"",""0""]",right_blue.png,right,,,,,,,,right,right_blue.png,up_orange.png,up,left,down,5be76e0505e5cd00017a1f8e,2021-09-11_16h40.13.723,arrow_simon_vert,2021.1.2,Win32,58.02146794,,,,,,,,,,,,,,,,,,,,,right,1,1.8893,9,TRUE,FALSE,2,0,8,0,1,,,,,,,
,,,,,,0,2.078157918,#f3af84,"[""0"",""-0.25""]",up_orange.png,up,,,,,,,,right,right_blue.png,up_orange.png,up,left,down,5be76e0505e5cd00017a1f8e,2021-09-11_16h40.13.723,arrow_simon_vert,2021.1.2,Win32,58.02146794,,,,,,,,,,,,,,,,,,,,,up,1,1.4466,10,FALSE,FALSE,2,1,9,0,1,,,,,,,
,,,,,,0,2.092181544,#a3d0fb,"[""-0.25"",""0""]",right_blue.png,right,,,,,,,,right,right_blue.png,up_orange.png,up,left,down,5be76e0505e5cd00017a1f8e,2021-09-11_16h40.13.723,arrow_simon_vert,2021.1.2,Win32,58.02146794,,,,,,,,,,,,,,,,,,,,,right,1,1.5794,11,FALSE,FALSE,2,2,10,0,1,,,,,,,
,,,,,,0,1.952348692,#f3af84,"[""0"",""0.25""]",up_orange.png,up,,,,,,,,right,right_blue.png,up_orange.png,up,right,up,5be76e0505e5cd00017a1f8e,2021-09-11_16h40.13.723,arrow_simon_vert,2021.1.2,Win32,58.02146794,,,,,,,,,,,,,,,,,,,,,up,1,1.5386,12,FALSE,FALSE,2,3,11,1,1,,,,,,,
,,,,,,0,1.850220483,#a3d0fb,"[""0.25"",""0""]",right_blue.png,right,,,,,,,,right,right_blue.png,up_orange.png,up,right,up,5be76e0505e5cd00017a1f8e,2021-09-11_16h40.13.723,arrow_simon_vert,2021.1.2,Win32,58.02146794,,,,,,,,,,,,,,,,,,,,,right,1,1.4587,13,FALSE,FALSE,3,0,12,1,1,,,,,,,
,,,,,,0,1.5584374,#f3af84,"[""0"",""-0.25""]",down_orange.png,down,,,,,,,,left,left_blue.png,down_orange.png,down,left,down,5be76e0505e5cd00017a1f8e,2021-09-11_16h40.13.723,arrow_simon_vert,2021.1.2,Win32,58.02146794,,,,,,,,,,,,,,,,,,,,,down,1,1.4728,14,FALSE,FALSE,3,1,13,2,1,,,,,,,
,,,,,,0,2.355212984,#a3d0fb,"[""0.25"",""0""]",right_blue.png,right,,,,,,,,right,right_blue.png,up_orange.png,up,right,up,5be76e0505e5cd00017a1f8e,2021-09-11_16h40.13.723,arrow_simon_vert,2021.1.2,Win32,58.02146794,,,,,,,,,,,,,,,,,,,,,right,1,1.7709,15,TRUE,FALSE,3,2,14,1,1,,,,,,,
,,,,,,0,2.012903461,#f3af84,"[""0"",""0.25""]",up_orange.png,up,,,,,,,,right,right_blue.png,up_orange.png,up,right,up,5be76e0505e5cd00017a1f8e,2021-09-11_16h40.13.723,arrow_simon_vert,2021.1.2,Win32,58.02146794,,,,,,,,,,,,,,,,,,,,,up,1,1.4143,16,FALSE,FALSE,3,3,15,1,1,,,,,,,
,,,,,,0,2.085914516,#a3d0fb,"[""0.25"",""0""]",right_blue.png,right,,,,,,,,right,right_blue.png,up_orange.png,up,right,up,5be76e0505e5cd00017a1f8e,2021-09-11_16h40.13.723,arrow_simon_vert,2021.1.2,Win32,58.02146794,,,,,,,,,,,,,,,,,,,,,right,1,1.4275,17,FALSE,FALSE,4,0,16,1,1,,,,,,,
,,,,,,0,1.858681169,#f3af84,"[""0"",""-0.25""]",down_orange.png,down,,,,,,,,left,left_blue.png,down_orange.png,down,left,down,5be76e0505e5cd00017a1f8e,2021-09-11_16h40.13.723,arrow_simon_vert,2021.1.2,Win32,58.02146794,,,,,,,,,,,,,,,,,,,,,down,1,1.3722,18,FALSE,TRUE,4,1,17,2,1,,,,,,,
,,,,,,0,1.619871062,#a3d0fb,"[""-0.25"",""0""]",right_blue.png,right,,,,,,,,right,right_blue.png,up_orange.png,up,left,down,5be76e0505e5cd00017a1f8e,2021-09-11_16h40.13.723,arrow_simon_vert,2021.1.2,Win32,58.02146794,,,,,,,,,,,,,,,,,,,,,right,1,1.3922,19,FALSE,TRUE,4,2,18,0,1,,,,,,,
,,,,,,0,2.470457739,#f3af84,"[""0"",""-0.25""]",up_orange.png,up,,,,,,,,right,right_blue.png,up_orange.png,up,left,down,5be76e0505e5cd00017a1f8e,2021-09-11_16h40.13.723,arrow_simon_vert,2021.1.2,Win32,58.02146794,,,,,,,,,,,,,,,,,,,,,down,0,1.9055,20,TRUE,FALSE,4,3,19,0,1,,,,,,,
,,,,,,0,2.346358271,#a3d0fb,"[""0.25"",""0""]",left_blue.png,left,,,,,,,,left,left_blue.png,down_orange.png,down,right,up,5be76e0505e5cd00017a1f8e,2021-09-11_16h40.13.723,arrow_simon_vert,2021.1.2,Win32,58.02146794,,,,,,,,,,,,,,,,,,,,,left,1,1.7753,21,TRUE,FALSE,5,0,20,3,1,,,,,,,
,,,,,,0,1.512006624,#f3af84,"[""0"",""0.25""]",down_orange.png,down,,,,,,,,left,left_blue.png,down_orange.png,down,right,up,5be76e0505e5cd00017a1f8e,2021-09-11_16h40.13.723,arrow_simon_vert,2021.1.2,Win32,58.02146794,,,,,,,,,,,,,,,,,,,,,down,1,1.4779,22,FALSE,FALSE,5,1,21,3,1,,,,,,,
,,,,,,0,2.440864198,#a3d0fb,"[""-0.25"",""0""]",right_blue.png,right,,,,,,,,right,right_blue.png,up_orange.png,up,left,down,5be76e0505e5cd00017a1f8e,2021-09-11_16h40.13.723,arrow_simon_vert,2021.1.2,Win32,58.02146794,,,,,,,,,,,,,,,,,,,,,left,0,1.7738,23,TRUE,FALSE,5,2,22,0,1,,,,,,,
,,,,,,0,1.58996001,#f3af84,"[""0"",""-0.25""]",down_orange.png,down,,,,,,,,left,left_blue.png,down_orange.png,down,left,down,5be76e0505e5cd00017a1f8e,2021-09-11_16h40.13.723,arrow_simon_vert,2021.1.2,Win32,58.02146794,,,,,,,,,,,,,,,,,,,,,down,1,1.4711,24,FALSE,FALSE,5,3,23,2,1,,,,,,,
,,,,,,0,2.133946252,#a3d0fb,"[""0.25"",""0""]",left_blue.png,left,,,,,,,,left,left_blue.png,down_orange.png,down,right,up,5be76e0505e5cd00017a1f8e,2021-09-11_16h40.13.723,arrow_simon_vert,2021.1.2,Win32,58.02146794,,,,,,,,,,,,,,,,,,,,,left,1,1.4872,25,FALSE,FALSE,6,0,24,3,1,,,,,,,
,,,,,,0,2.342176204,#f3af84,"[""0"",""-0.25""]",down_orange.png,down,,,,,,,,left,left_blue.png,down_orange.png,down,left,down,5be76e0505e5cd00017a1f8e,2021-09-11_16h40.13.723,arrow_simon_vert,2021.1.2,Win32,58.02146794,,,,,,,,,,,,,,,,,,,,,left,0,1.7052,26,TRUE,FALSE,6,1,25,2,1,,,,,,,
,,,,,,0,1.675248323,#a3d0fb,"[""0.25"",""0""]",right_blue.png,right,,,,,,,,right,right_blue.png,up_orange.png,up,right,up,5be76e0505e5cd00017a1f8e,2021-09-11_16h40.13.723,arrow_simon_vert,2021.1.2,Win32,58.02146794,,,,,,,,,,,,,,,,,,,,,right,1,1.2879,27,FALSE,TRUE,6,2,26,1,1,,,,,,,
,,,,,,0,2.465214647,#f3af84,"[""0"",""0.25""]",down_orange.png,down,,,,,,,,left,left_blue.png,down_orange.png,down,right,up,5be76e0505e5cd00017a1f8e,2021-09-11_16h40.13.723,arrow_simon_vert,2021.1.2,Win32,58.02146794,,,,,,,,,,,,,,,,,,,,,down,1,3.0425,28,TRUE,FALSE,6,3,27,3,1,,,,,,,
,,,,,,0,1.616077311,#a3d0fb,"[""0.25"",""0""]",right_blue.png,right,,,,,,,,right,right_blue.png,up_orange.png,up,right,up,5be76e0505e5cd00017a1f8e,2021-09-11_16h40.13.723,arrow_simon_vert,2021.1.2,Win32,58.02146794,,,,,,,,,,,,,,,,,,,,,right,1,1.2115,29,FALSE,TRUE,7,0,28,1,1,,,,,,,
,,,,,,0,2.258168996,#f3af84,"[""0"",""-0.25""]",down_orange.png,down,,,,,,,,left,left_blue.png,down_orange.png,down,left,down,5be76e0505e5cd00017a1f8e,2021-09-11_16h40.13.723,arrow_simon_vert,2021.1.2,Win32,58.02146794,,,,,,,,,,,,,,,,,,,,,down,1,1.7128,30,TRUE,FALSE,7,1,29,2,1,,,,,,,
,,,,,,0,1.803715016,#a3d0fb,"[""-0.25"",""0""]",right_blue.png,right,,,,,,,,right,right_blue.png,up_orange.png,up,left,down,5be76e0505e5cd00017a1f8e,2021-09-11_16h40.13.723,arrow_simon_vert,2021.1.2,Win32,58.02146794,,,,,,,,,,,,,,,,,,,,,right,1,1.5399,31,FALSE,FALSE,7,2,30,0,1,,,,,,,
,,,,,,0,2.252322755,#f3af84,"[""0"",""0.25""]",down_orange.png,down,,,,,,,,left,left_blue.png,down_orange.png,down,right,up,5be76e0505e5cd00017a1f8e,2021-09-11_16h40.13.723,arrow_simon_vert,2021.1.2,Win32,58.02146794,,,,,,,,,,,,,,,,,,,,,up,0,1.6827,32,TRUE,FALSE,7,3,31,3,1,,,,,,,
,,,,,,0,2.417912656,#a3d0fb,"[""0.25"",""0""]",right_blue.png,right,,,,,,,,right,right_blue.png,up_orange.png,up,right,up,5be76e0505e5cd00017a1f8e,2021-09-11_16h40.13.723,arrow_simon_vert,2021.1.2,Win32,58.02146794,,,,,,,,,,,,,,,,,,,,,right,1,1.7903,33,TRUE,FALSE,8,0,32,1,1,,,,,,,
,,,,,,0,1.704176114,#f3af84,"[""0"",""0.25""]",down_orange.png,down,,,,,,,,left,left_blue.png,down_orange.png,down,right,up,5be76e0505e5cd00017a1f8e,2021-09-11_16h40.13.723,arrow_simon_vert,2021.1.2,Win32,58.02146794,,,,,,,,,,,,,,,,,,,,,down,1,1.4712,34,FALSE,FALSE,8,1,33,3,1,,,,,,,
,,,,,,0,2.354200769,#a3d0fb,"[""-0.25"",""0""]",left_blue.png,left,,,,,,,,left,left_blue.png,down_orange.png,down,left,down,5be76e0505e5cd00017a1f8e,2021-09-11_16h40.13.723,arrow_simon_vert,2021.1.2,Win32,58.02146794,,,,,,,,,,,,,,,,,,,,,left,1,1.6718,35,TRUE,FALSE,8,2,34,2,1,,,,,,,
,,,,,,0,2.243146715,#f3af84,"[""0"",""-0.25""]",up_orange.png,up,,,,,,,,right,right_blue.png,up_orange.png,up,left,down,5be76e0505e5cd00017a1f8e,2021-09-11_16h40.13.723,arrow_simon_vert,2021.1.2,Win32,58.02146794,,,,,,,,,,,,,,,,,,,,,down,0,1.7295,36,TRUE,FALSE,8,3,35,0,1,,,,,,,
,,,,,,0,2.036964409,#a3d0fb,"[""-0.25"",""0""]",right_blue.png,right,,,,,,,,right,right_blue.png,up_orange.png,up,left,down,5be76e0505e5cd00017a1f8e,2021-09-11_16h40.13.723,arrow_simon_vert,2021.1.2,Win32,58.02146794,,,,,,,,,,,,,,,,,,,,,right,1,1.4718,37,FALSE,FALSE,9,0,36,0,1,,,,,,,
,,,,,,0,2.332666757,#f3af84,"[""0"",""-0.25""]",down_orange.png,down,,,,,,,,left,left_blue.png,down_orange.png,down,left,down,5be76e0505e5cd00017a1f8e,2021-09-11_16h40.13.723,arrow_simon_vert,2021.1.2,Win32,58.02146794,,,,,,,,,,,,,,,,,,,,,down,1,1.7815,38,TRUE,FALSE,9,1,37,2,1,,,,,,,
,,,,,,0,1.587931834,#a3d0fb,"[""0.25"",""0""]",right_blue.png,right,,,,,,,,right,right_blue.png,up_orange.png,up,right,up,5be76e0505e5cd00017a1f8e,2021-09-11_16h40.13.723,arrow_simon_vert,2021.1.2,Win32,58.02146794,,,,,,,,,,,,,,,,,,,,,right,1,1.5082,39,FALSE,FALSE,9,2,38,1,1,,,,,,,
,,,,,,0,2.297962893,#f3af84,"[""0"",""-0.25""]",down_orange.png,down,,,,,,,,left,left_blue.png,down_orange.png,down,left,down,5be76e0505e5cd00017a1f8e,2021-09-11_16h40.13.723,arrow_simon_vert,2021.1.2,Win32,58.02146794,,,,,,,,,,,,,,,,,,,,,up,0,1.7593,40,TRUE,FALSE,9,3,39,2,1,,,,,,,
,,,,,,0,1.633101879,#a3d0fb,"[""-0.25"",""0""]",right_blue.png,right,,,,,,,,right,right_blue.png,up_orange.png,up,left,down,5be76e0505e5cd00017a1f8e,2021-09-11_16h40.13.723,arrow_simon_vert,2021.1.2,Win32,58.02146794,,,,,,,,,,,,,,,,,,,,,right,1,1.4062,41,FALSE,FALSE,10,0,40,0,1,,,,,,,
,,,,,,0,1.696918889,#f3af84,"[""0"",""0.25""]",down_orange.png,down,,,,,,,,left,left_blue.png,down_orange.png,down,right,up,5be76e0505e5cd00017a1f8e,2021-09-11_16h40.13.723,arrow_simon_vert,2021.1.2,Win32,58.02146794,,,,,,,,,,,,,,,,,,,,,down,1,1.4662,42,FALSE,FALSE,10,1,41,3,1,,,,,,,
,,,,,,0,1.761631578,#a3d0fb,"[""-0.25"",""0""]",left_blue.png,left,,,,,,,,left,left_blue.png,down_orange.png,down,left,down,5be76e0505e5cd00017a1f8e,2021-09-11_16h40.13.723,arrow_simon_vert,2021.1.2,Win32,58.02146794,,,,,,,,,,,,,,,,,,,,,left,1,1.2074,43,FALSE,TRUE,10,2,42,2,1,,,,,,,
,,,,,,0,2.23448695,#f3af84,"[""0"",""0.25""]",down_orange.png,down,,,,,,,,left,left_blue.png,down_orange.png,down,right,up,5be76e0505e5cd00017a1f8e,2021-09-11_16h40.13.723,arrow_simon_vert,2021.1.2,Win32,58.02146794,,,,,,,,,,,,,,,,,,,,,up,0,1.6733,44,TRUE,FALSE,10,3,43,3,1,,,,,,,
,,,,,,0,2.205132867,#a3d0fb,"[""-0.25"",""0""]",left_blue.png,left,,,,,,,,left,left_blue.png,down_orange.png,down,left,down,5be76e0505e5cd00017a1f8e,2021-09-11_16h40.13.723,arrow_simon_vert,2021.1.2,Win32,58.02146794,,,,,,,,,,,,,,,,,,,,,left,1,1.646,45,TRUE,FALSE,11,0,44,2,1,,,,,,,
,,,,,,0,1.915704404,#f3af84,"[""0"",""-0.25""]",down_orange.png,down,,,,,,,,left,left_blue.png,down_orange.png,down,left,down,5be76e0505e5cd00017a1f8e,2021-09-11_16h40.13.723,arrow_simon_vert,2021.1.2,Win32,58.02146794,,,,,,,,,,,,,,,,,,,,,down,1,1.6591,46,TRUE,FALSE,11,1,45,2,1,,,,,,,
,,,,,,0,1.578575082,#a3d0fb,"[""0.25"",""0""]",right_blue.png,right,,,,,,,,right,right_blue.png,up_orange.png,up,right,up,5be76e0505e5cd00017a1f8e,2021-09-11_16h40.13.723,arrow_simon_vert,2021.1.2,Win32,58.02146794,,,,,,,,,,,,,,,,,,,,,right,1,1.1417,47,FALSE,TRUE,11,2,46,1,1,,,,,,,
,,,,,,0,1.745296868,#f3af84,"[""0"",""-0.25""]",up_orange.png,up,,,,,,,,right,right_blue.png,up_orange.png,up,left,down,5be76e0505e5cd00017a1f8e,2021-09-11_16h40.13.723,arrow_simon_vert,2021.1.2,Win32,58.02146794,,,,,,,,,,,,,,,,,,,,,up,1,1.4951,48,FALSE,FALSE,11,3,47,0,1,,,,,,,
,,,,,,0,2.331536303,#a3d0fb,"[""-0.25"",""0""]",left_blue.png,left,,,,,,,,left,left_blue.png,down_orange.png,down,left,down,5be76e0505e5cd00017a1f8e,2021-09-11_16h40.13.723,arrow_simon_vert,2021.1.2,Win32,58.02146794,,,,,,,,,,,,,,,,,,,,,left,1,1.6737,49,TRUE,FALSE,12,0,48,2,1,,,,,,,
,,,,,,0,1.829622307,#f3af84,"[""0"",""0.25""]",up_orange.png,up,,,,,,,,right,right_blue.png,up_orange.png,up,right,up,5be76e0505e5cd00017a1f8e,2021-09-11_16h40.13.723,arrow_simon_vert,2021.1.2,Win32,58.02146794,,,,,,,,,,,,,,,,,,,,,up,1,1.3636,50,FALSE,TRUE,12,1,49,1,1,,,,,,,
,,,,,,0,2.07402028,#a3d0fb,"[""0.25"",""0""]",left_blue.png,left,,,,,,,,left,left_blue.png,down_orange.png,down,right,up,5be76e0505e5cd00017a1f8e,2021-09-11_16h40.13.723,arrow_simon_vert,2021.1.2,Win32,58.02146794,,,,,,,,,,,,,,,,,,,,,left,1,1.6429,51,TRUE,FALSE,12,2,50,3,1,,,,,,,
,,,,,,0,2.069506302,#f3af84,"[""0"",""0.25""]",down_orange.png,down,,,,,,,,left,left_blue.png,down_orange.png,down,right,up,5be76e0505e5cd00017a1f8e,2021-09-11_16h40.13.723,arrow_simon_vert,2021.1.2,Win32,58.02146794,,,,,,,,,,,,,,,,,,,,,down,1,1.6955,52,TRUE,FALSE,12,3,51,3,1,,,,,,,
,,,,,,0,2.434548872,#a3d0fb,"[""0.25"",""0""]",left_blue.png,left,,,,,,,,left,left_blue.png,down_orange.png,down,right,up,5be76e0505e5cd00017a1f8e,2021-09-11_16h40.13.723,arrow_simon_vert,2021.1.2,Win32,58.02146794,,,,,,,,,,,,,,,,,,,,,left,1,1.9061,53,TRUE,FALSE,13,0,52,3,1,,,,,,,
,,,,,,0,1.764336065,#f3af84,"[""0"",""0.25""]",down_orange.png,down,,,,,,,,left,left_blue.png,down_orange.png,down,right,up,5be76e0505e5cd00017a1f8e,2021-09-11_16h40.13.723,arrow_simon_vert,2021.1.2,Win32,58.02146794,,,,,,,,,,,,,,,,,,,,,down,1,1.5079,54,FALSE,FALSE,13,1,53,3,1,,,,,,,
,,,,,,0,1.917270277,#a3d0fb,"[""-0.25"",""0""]",right_blue.png,right,,,,,,,,right,right_blue.png,up_orange.png,up,left,down,5be76e0505e5cd00017a1f8e,2021-09-11_16h40.13.723,arrow_simon_vert,2021.1.2,Win32,58.02146794,,,,,,,,,,,,,,,,,,,,,right,1,1.4903,55,FALSE,FALSE,13,2,54,0,1,,,,,,,
,,,,,,0,2.327869208,#f3af84,"[""0"",""0.25""]",down_orange.png,down,,,,,,,,left,left_blue.png,down_orange.png,down,right,up,5be76e0505e5cd00017a1f8e,2021-09-11_16h40.13.723,arrow_simon_vert,2021.1.2,Win32,58.02146794,,,,,,,,,,,,,,,,,,,,,down,1,1.7671,56,TRUE,FALSE,13,3,55,3,1,,,,,,,
,,,,,,0,2.173128885,#a3d0fb,"[""-0.25"",""0""]",left_blue.png,left,,,,,,,,left,left_blue.png,down_orange.png,down,left,down,5be76e0505e5cd00017a1f8e,2021-09-11_16h40.13.723,arrow_simon_vert,2021.1.2,Win32,58.02146794,,,,,,,,,,,,,,,,,,,,,left,1,1.5234,57,FALSE,FALSE,14,0,56,2,1,,,,,,,
,,,,,,0,1.926242972,#f3af84,"[""0"",""-0.25""]",down_orange.png,down,,,,,,,,left,left_blue.png,down_orange.png,down,left,down,5be76e0505e5cd00017a1f8e,2021-09-11_16h40.13.723,arrow_simon_vert,2021.1.2,Win32,58.02146794,,,,,,,,,,,,,,,,,,,,,down,1,1.3453,58,FALSE,TRUE,14,1,57,2,1,,,,,,,
,,,,,,0,1.929254184,#a3d0fb,"[""-0.25"",""0""]",right_blue.png,right,,,,,,,,right,right_blue.png,up_orange.png,up,left,down,5be76e0505e5cd00017a1f8e,2021-09-11_16h40.13.723,arrow_simon_vert,2021.1.2,Win32,58.02146794,,,,,,,,,,,,,,,,,,,,,right,1,1.5231,59,FALSE,FALSE,14,2,58,0,1,,,,,,,
,,,,,,0,2.424098056,#f3af84,"[""0"",""0.25""]",up_orange.png,up,,,,,,,,right,right_blue.png,up_orange.png,up,right,up,5be76e0505e5cd00017a1f8e,2021-09-11_16h40.13.723,arrow_simon_vert,2021.1.2,Win32,58.02146794,,,,,,,,,,,,,,,,,,,,,up,1,1.6404,60,TRUE,FALSE,14,3,59,1,1,,,,,,,
,,,,,,,,,,,,,,,,,,,,,,,,,5be76e0505e5cd00017a1f8e,2021-09-11_16h40.13.723,arrow_simon_vert,2021.1.2,Win32,58.02146794,,,,,,,,,,,,,,,,,,,,,,,,,,,,,,,,space,10.7607,2,0,2,0,1
,,,,,,0,2.280386238,#a3d0fb,"[""0.25"",""0""]",right_blue.png,right,,,,,,,,right,right_blue.png,up_orange.png,up,right,up,5be76e0505e5cd00017a1f8e,2021-09-11_16h40.13.723,arrow_simon_vert,2021.1.2,Win32,58.02146794,,,,,,,,,,,,,,,,,,,,,right,1,1.7071,1,TRUE,FALSE,0,0,0,1,1,,,,,,,
,,,,,,0,2.367524809,#f3af84,"[""0"",""-0.25""]",up_orange.png,up,,,,,,,,right,right_blue.png,up_orange.png,up,left,down,5be76e0505e5cd00017a1f8e,2021-09-11_16h40.13.723,arrow_simon_vert,2021.1.2,Win32,58.02146794,,,,,,,,,,,,,,,,,,,,,down,0,1.7961,2,TRUE,FALSE,0,1,1,0,1,,,,,,,
,,,,,,0,1.838066876,#a3d0fb,"[""0.25"",""0""]",left_blue.png,left,,,,,,,,left,left_blue.png,down_orange.png,down,right,up,5be76e0505e5cd00017a1f8e,2021-09-11_16h40.13.723,arrow_simon_vert,2021.1.2,Win32,58.02146794,,,,,,,,,,,,,,,,,,,,,left,1,1.5308,3,FALSE,FALSE,0,2,2,3,1,,,,,,,
,,,,,,0,1.928101467,#f3af84,"[""0"",""-0.25""]",up_orange.png,up,,,,,,,,right,right_blue.png,up_orange.png,up,left,down,5be76e0505e5cd00017a1f8e,2021-09-11_16h40.13.723,arrow_simon_vert,2021.1.2,Win32,58.02146794,,,,,,,,,,,,,,,,,,,,,up,1,1.4265,4,FALSE,FALSE,0,3,3,0,1,,,,,,,
,,,,,,0,2.378999652,#a3d0fb,"[""-0.25"",""0""]",left_blue.png,left,,,,,,,,left,left_blue.png,down_orange.png,down,left,down,5be76e0505e5cd00017a1f8e,2021-09-11_16h40.13.723,arrow_simon_vert,2021.1.2,Win32,58.02146794,,,,,,,,,,,,,,,,,,,,,left,1,1.7776,5,TRUE,FALSE,1,0,4,2,1,,,,,,,
,,,,,,0,2.034730259,#f3af84,"[""0"",""0.25""]",up_orange.png,up,,,,,,,,right,right_blue.png,up_orange.png,up,right,up,5be76e0505e5cd00017a1f8e,2021-09-11_16h40.13.723,arrow_simon_vert,2021.1.2,Win32,58.02146794,,,,,,,,,,,,,,,,,,,,,up,1,1.4721,6,FALSE,FALSE,1,1,5,1,1,,,,,,,
,,,,,,0,1.930114576,#a3d0fb,"[""-0.25"",""0""]",left_blue.png,left,,,,,,,,left,left_blue.png,down_orange.png,down,left,down,5be76e0505e5cd00017a1f8e,2021-09-11_16h40.13.723,arrow_simon_vert,2021.1.2,Win32,58.02146794,,,,,,,,,,,,,,,,,,,,,left,1,1.5568,7,FALSE,FALSE,1,2,6,2,1,,,,,,,
,,,,,,0,2.245017058,#f3af84,"[""0"",""-0.25""]",up_orange.png,up,,,,,,,,right,right_blue.png,up_orange.png,up,left,down,5be76e0505e5cd00017a1f8e,2021-09-11_16h40.13.723,arrow_simon_vert,2021.1.2,Win32,58.02146794,,,,,,,,,,,,,,,,,,,,,up,1,1.8731,8,TRUE,FALSE,1,3,7,0,1,,,,,,,
,,,,,,0,1.575345185,#a3d0fb,"[""-0.25"",""0""]",right_blue.png,right,,,,,,,,right,right_blue.png,up_orange.png,up,left,down,5be76e0505e5cd00017a1f8e,2021-09-11_16h40.13.723,arrow_simon_vert,2021.1.2,Win32,58.02146794,,,,,,,,,,,,,,,,,,,,,right,1,1.3733,9,FALSE,TRUE,2,0,8,0,1,,,,,,,
,,,,,,0,1.966449594,#f3af84,"[""0"",""-0.25""]",down_orange.png,down,,,,,,,,left,left_blue.png,down_orange.png,down,left,down,5be76e0505e5cd00017a1f8e,2021-09-11_16h40.13.723,arrow_simon_vert,2021.1.2,Win32,58.02146794,,,,,,,,,,,,,,,,,,,,,down,1,1.6231,10,TRUE,FALSE,2,1,9,2,1,,,,,,,
,,,,,,0,2.197285216,#a3d0fb,"[""-0.25"",""0""]",left_blue.png,left,,,,,,,,left,left_blue.png,down_orange.png,down,left,down,5be76e0505e5cd00017a1f8e,2021-09-11_16h40.13.723,arrow_simon_vert,2021.1.2,Win32,58.02146794,,,,,,,,,,,,,,,,,,,,,left,1,1.5997,11,FALSE,FALSE,2,2,10,2,1,,,,,,,
,,,,,,0,1.768819198,#f3af84,"[""0"",""0.25""]",up_orange.png,up,,,,,,,,right,right_blue.png,up_orange.png,up,right,up,5be76e0505e5cd00017a1f8e,2021-09-11_16h40.13.723,arrow_simon_vert,2021.1.2,Win32,58.02146794,,,,,,,,,,,,,,,,,,,,,up,1,1.5062,12,FALSE,FALSE,2,3,11,1,1,,,,,,,
,,,,,,0,2.431561093,#a3d0fb,"[""-0.25"",""0""]",right_blue.png,right,,,,,,,,right,right_blue.png,up_orange.png,up,left,down,5be76e0505e5cd00017a1f8e,2021-09-11_16h40.13.723,arrow_simon_vert,2021.1.2,Win32,58.02146794,,,,,,,,,,,,,,,,,,,,,left,0,1.7595,13,TRUE,FALSE,3,0,12,0,1,,,,,,,
,,,,,,0,2.080758259,#f3af84,"[""0"",""-0.25""]",up_orange.png,up,,,,,,,,right,right_blue.png,up_orange.png,up,left,down,5be76e0505e5cd00017a1f8e,2021-09-11_16h40.13.723,arrow_simon_vert,2021.1.2,Win32,58.02146794,,,,,,,,,,,,,,,,,,,,,up,1,1.6626,14,TRUE,FALSE,3,1,13,0,1,,,,,,,
,,,,,,0,1.621962103,#a3d0fb,"[""-0.25"",""0""]",left_blue.png,left,,,,,,,,left,left_blue.png,down_orange.png,down,left,down,5be76e0505e5cd00017a1f8e,2021-09-11_16h40.13.723,arrow_simon_vert,2021.1.2,Win32,58.02146794,,,,,,,,,,,,,,,,,,,,,left,1,1.3474,15,FALSE,TRUE,3,2,14,2,1,,,,,,,
