instruct_resp_simon.keys,instruct_resp_simon.corr,instruct_resp_simon.rt,trial_resp_simon.keys,trial_resp_simon.corr,trial_resp_simon.rt,kerr,target_onset,target_color,target_pos,target_file,target_resp,trials_train_simon.thisRepN,trials_train_simon.thisTrialN,trials_train_simon.thisN,trials_train_simon.thisIndex,trials_train_simon.ran,odd_target_pos,even_target_pos,odd_target_resp,odd_target_file,even_target_file,even_target_resp,odd_target_side,even_target_side,participant,date,expName,psychopyVersion,OS,frameRate,train_block_note_resp.keys,train_block_note_resp.rt,blocks_train.thisRepN,blocks_train.thisTrialN,blocks_train.thisN,blocks_train.thisIndex,blocks_train.ran,instruct_resp_timing.keys,instruct_resp_timing.corr,instruct_resp_timing.rt,trial_resp_timing.keys,trial_resp_timing.rt,trials_train_timing.thisRepN,trials_train_timing.thisTrialN,trials_train_timing.thisN,trials_train_timing.thisIndex,trials_train_timing.ran,instruct_resp.keys,instruct_resp.corr,instruct_resp.rt,trial_resp.keys,trial_resp.corr,trial_resp.rt,trial_num,too_slow,too_soon,trials.thisRepN,trials.thisTrialN,trials.thisN,trials.thisIndex,trials.ran,block_note_resp.keys,block_note_resp.rt,blocks.thisRepN,blocks.thisTrialN,blocks.thisN,blocks.thisIndex,blocks.ran
space,0,62.032,left,1,1.163,0,0.5121439,#a3d0fb,"[""-0.25"",""0""]",left_blue.png,left,0,0,0,2,1,,,left,left_blue.png,down_orange.png,down,left,down,5c03448ca33dc3000159e4ba,2021-09-11_14h38.39.720,arrow_simon_vert,2021.1.2,MacIntel,61.1995104,,,,,,,,,,,,,,,,,,,,,,,,,,,,,,,,,,,,,,
,,,left,0,1.593,1,0.471228112,#f3af84,"[""0"",""-0.25""]",up_orange.png,up,0,1,1,0,1,,,right,right_blue.png,up_orange.png,up,left,down,5c03448ca33dc3000159e4ba,2021-09-11_14h38.39.720,arrow_simon_vert,2021.1.2,MacIntel,61.1995104,,,,,,,,,,,,,,,,,,,,,,,,,,,,,,,,,,,,,,
,,,right,1,1.222,0,0.232335829,#a3d0fb,"[""-0.25"",""0""]",right_blue.png,right,0,2,2,0,1,,,right,right_blue.png,up_orange.png,up,left,down,5c03448ca33dc3000159e4ba,2021-09-11_14h38.39.720,arrow_simon_vert,2021.1.2,MacIntel,61.1995104,,,,,,,,,,,,,,,,,,,,,,,,,,,,,,,,,,,,,,
,,,down,1,1.602,0,0.897058895,#f3af84,"[""0"",""0.25""]",down_orange.png,down,0,3,3,3,1,,,left,left_blue.png,down_orange.png,down,right,up,5c03448ca33dc3000159e4ba,2021-09-11_14h38.39.720,arrow_simon_vert,2021.1.2,MacIntel,61.1995104,,,,,,,,,,,,,,,,,,,,,,,,,,,,,,,,,,,,,,
,,,left,1,2.14,0,0.926821645,#a3d0fb,"[""-0.25"",""0""]",left_blue.png,left,1,0,4,2,1,,,left,left_blue.png,down_orange.png,down,left,down,5c03448ca33dc3000159e4ba,2021-09-11_14h38.39.720,arrow_simon_vert,2021.1.2,MacIntel,61.1995104,,,,,,,,,,,,,,,,,,,,,,,,,,,,,,,,,,,,,,
,,,up,1,0.75,0,0.163094649,#f3af84,"[""0"",""0.25""]",up_orange.png,up,1,1,5,1,1,,,right,right_blue.png,up_orange.png,up,right,up,5c03448ca33dc3000159e4ba,2021-09-11_14h38.39.720,arrow_simon_vert,2021.1.2,MacIntel,61.1995104,,,,,,,,,,,,,,,,,,,,,,,,,,,,,,,,,,,,,,
,,,left,1,0.708,0,0.154770663,#a3d0fb,"[""-0.25"",""0""]",left_blue.png,left,1,2,6,2,1,,,left,left_blue.png,down_orange.png,down,left,down,5c03448ca33dc3000159e4ba,2021-09-11_14h38.39.720,arrow_simon_vert,2021.1.2,MacIntel,61.1995104,,,,,,,,,,,,,,,,,,,,,,,,,,,,,,,,,,,,,,
,,,down,1,1.121,0,0.698893606,#f3af84,"[""0"",""-0.25""]",down_orange.png,down,1,3,7,2,1,,,left,left_blue.png,down_orange.png,down,left,down,5c03448ca33dc3000159e4ba,2021-09-11_14h38.39.720,arrow_simon_vert,2021.1.2,MacIntel,61.1995104,,,,,,,,,,,,,,,,,,,,,,,,,,,,,,,,,,,,,,
,,,right,1,2.174,0,0.774093531,#a3d0fb,"[""-0.25"",""0""]",right_blue.png,right,2,0,8,0,1,,,right,right_blue.png,up_orange.png,up,left,down,5c03448ca33dc3000159e4ba,2021-09-11_14h38.39.720,arrow_simon_vert,2021.1.2,MacIntel,61.1995104,,,,,,,,,,,,,,,,,,,,,,,,,,,,,,,,,,,,,,
,,,down,1,1.293,0,0.008395832,#f3af84,"[""0"",""-0.25""]",down_orange.png,down,2,1,9,2,1,,,left,left_blue.png,down_orange.png,down,left,down,5c03448ca33dc3000159e4ba,2021-09-11_14h38.39.720,arrow_simon_vert,2021.1.2,MacIntel,61.1995104,,,,,,,,,,,,,,,,,,,,,,,,,,,,,,,,,,,,,,
,,,left,1,2.002,0,0.597742322,#a3d0fb,"[""0.25"",""0""]",left_blue.png,left,2,2,10,3,1,,,left,left_blue.png,down_orange.png,down,right,up,5c03448ca33dc3000159e4ba,2021-09-11_14h38.39.720,arrow_simon_vert,2021.1.2,MacIntel,61.1995104,,,,,,,,,,,,,,,,,,,,,,,,,,,,,,,,,,,,,,
,,,up,0,0.916,1,0.30186953,#f3af84,"[""0"",""0.25""]",down_orange.png,down,2,3,11,3,1,,,left,left_blue.png,down_orange.png,down,right,up,5c03448ca33dc3000159e4ba,2021-09-11_14h38.39.720,arrow_simon_vert,2021.1.2,MacIntel,61.1995104,,,,,,,,,,,,,,,,,,,,,,,,,,,,,,,,,,,,,,
,,,right,0,0.999,1,0.467095098,#a3d0fb,"[""0.25"",""0""]",left_blue.png,left,3,0,12,3,1,,,left,left_blue.png,down_orange.png,down,right,up,5c03448ca33dc3000159e4ba,2021-09-11_14h38.39.720,arrow_simon_vert,2021.1.2,MacIntel,61.1995104,,,,,,,,,,,,,,,,,,,,,,,,,,,,,,,,,,,,,,
,,,up,1,0.866,0,0.29149599,#f3af84,"[""0"",""0.25""]",up_orange.png,up,3,1,13,1,1,,,right,right_blue.png,up_orange.png,up,right,up,5c03448ca33dc3000159e4ba,2021-09-11_14h38.39.720,arrow_simon_vert,2021.1.2,MacIntel,61.1995104,,,,,,,,,,,,,,,,,,,,,,,,,,,,,,,,,,,,,,
,,,right,1,1.122,0,0.64220945,#a3d0fb,"[""0.25"",""0""]",right_blue.png,right,3,2,14,1,1,,,right,right_blue.png,up_orange.png,up,right,up,5c03448ca33dc3000159e4ba,2021-09-11_14h38.39.720,arrow_simon_vert,2021.1.2,MacIntel,61.1995104,,,,,,,,,,,,,,,,,,,,,,,,,,,,,,,,,,,,,,
,,,down,1,1.292,0,0.722330739,#f3af84,"[""0"",""-0.25""]",down_orange.png,down,3,3,15,2,1,,,left,left_blue.png,down_orange.png,down,left,down,5c03448ca33dc3000159e4ba,2021-09-11_14h38.39.720,arrow_simon_vert,2021.1.2,MacIntel,61.1995104,,,,,,,,,,,,,,,,,,,,,,,,,,,,,,,,,,,,,,
,,,left,1,1.386,0,0.630211121,#a3d0fb,"[""-0.25"",""0""]",left_blue.png,left,4,0,16,2,1,,,left,left_blue.png,down_orange.png,down,left,down,5c03448ca33dc3000159e4ba,2021-09-11_14h38.39.720,arrow_simon_vert,2021.1.2,MacIntel,61.1995104,,,,,,,,,,,,,,,,,,,,,,,,,,,,,,,,,,,,,,
,,,up,1,2.052,0,0.503629453,#f3af84,"[""0"",""-0.25""]",up_orange.png,up,4,1,17,0,1,,,right,right_blue.png,up_orange.png,up,left,down,5c03448ca33dc3000159e4ba,2021-09-11_14h38.39.720,arrow_simon_vert,2021.1.2,MacIntel,61.1995104,,,,,,,,,,,,,,,,,,,,,,,,,,,,,,,,,,,,,,
,,,left,1,1.013,0,0.165452226,#a3d0fb,"[""0.25"",""0""]",left_blue.png,left,4,2,18,3,1,,,left,left_blue.png,down_orange.png,down,right,up,5c03448ca33dc3000159e4ba,2021-09-11_14h38.39.720,arrow_simon_vert,2021.1.2,MacIntel,61.1995104,,,,,,,,,,,,,,,,,,,,,,,,,,,,,,,,,,,,,,
,,,up,1,0.659,0,0.041416912,#f3af84,"[""0"",""0.25""]",up_orange.png,up,4,3,19,1,1,,,right,right_blue.png,up_orange.png,up,right,up,5c03448ca33dc3000159e4ba,2021-09-11_14h38.39.720,arrow_simon_vert,2021.1.2,MacIntel,61.1995104,,,,,,,,,,,,,,,,,,,,,,,,,,,,,,,,,,,,,,
,,,left,1,1.083,0,0.576487711,#a3d0fb,"[""-0.25"",""0""]",left_blue.png,left,5,0,20,2,1,,,left,left_blue.png,down_orange.png,down,left,down,5c03448ca33dc3000159e4ba,2021-09-11_14h38.39.720,arrow_simon_vert,2021.1.2,MacIntel,61.1995104,,,,,,,,,,,,,,,,,,,,,,,,,,,,,,,,,,,,,,
,,,down,1,1.658,0,0.67923984,#f3af84,"[""0"",""0.25""]",down_orange.png,down,5,1,21,3,1,,,left,left_blue.png,down_orange.png,down,right,up,5c03448ca33dc3000159e4ba,2021-09-11_14h38.39.720,arrow_simon_vert,2021.1.2,MacIntel,61.1995104,,,,,,,,,,,,,,,,,,,,,,,,,,,,,,,,,,,,,,
,,,left,1,1.493,0,0.746962501,#a3d0fb,"[""0.25"",""0""]",left_blue.png,left,5,2,22,3,1,,,left,left_blue.png,down_orange.png,down,right,up,5c03448ca33dc3000159e4ba,2021-09-11_14h38.39.720,arrow_simon_vert,2021.1.2,MacIntel,61.1995104,,,,,,,,,,,,,,,,,,,,,,,,,,,,,,,,,,,,,,
,,,up,1,1.392,0,0.832572581,#f3af84,"[""0"",""-0.25""]",up_orange.png,up,5,3,23,0,1,,,right,right_blue.png,up_orange.png,up,left,down,5c03448ca33dc3000159e4ba,2021-09-11_14h38.39.720,arrow_simon_vert,2021.1.2,MacIntel,61.1995104,,,,,,,,,,,,,,,,,,,,,,,,,,,,,,,,,,,,,,
,,,right,1,1.202,0,0.483482313,#a3d0fb,"[""-0.25"",""0""]",right_blue.png,right,6,0,24,0,1,,,right,right_blue.png,up_orange.png,up,left,down,5c03448ca33dc3000159e4ba,2021-09-11_14h38.39.720,arrow_simon_vert,2021.1.2,MacIntel,61.1995104,,,,,,,,,,,,,,,,,,,,,,,,,,,,,,,,,,,,,,
,,,down,1,0.806,0,0.279540199,#f3af84,"[""0"",""-0.25""]",down_orange.png,down,6,1,25,2,1,,,left,left_blue.png,down_orange.png,down,left,down,5c03448ca33dc3000159e4ba,2021-09-11_14h38.39.720,arrow_simon_vert,2021.1.2,MacIntel,61.1995104,,,,,,,,,,,,,,,,,,,,,,,,,,,,,,,,,,,,,,
,,,right,1,0.85,0,0.323313522,#a3d0fb,"[""0.25"",""0""]",right_blue.png,right,6,2,26,1,1,,,right,right_blue.png,up_orange.png,up,right,up,5c03448ca33dc3000159e4ba,2021-09-11_14h38.39.720,arrow_simon_vert,2021.1.2,MacIntel,61.1995104,,,,,,,,,,,,,,,,,,,,,,,,,,,,,,,,,,,,,,
,,,up,0,0.824,1,0.250217522,#f3af84,"[""0"",""0.25""]",down_orange.png,down,6,3,27,3,1,,,left,left_blue.png,down_orange.png,down,right,up,5c03448ca33dc3000159e4ba,2021-09-11_14h38.39.720,arrow_simon_vert,2021.1.2,MacIntel,61.1995104,,,,,,,,,,,,,,,,,,,,,,,,,,,,,,,,,,,,,,
,,,left,1,1.282,0,0.797194451,#a3d0fb,"[""-0.25"",""0""]",left_blue.png,left,7,0,28,2,1,,,left,left_blue.png,down_orange.png,down,left,down,5c03448ca33dc3000159e4ba,2021-09-11_14h38.39.720,arrow_simon_vert,2021.1.2,MacIntel,61.1995104,,,,,,,,,,,,,,,,,,,,,,,,,,,,,,,,,,,,,,
,,,up,1,1.156,0,0.601855257,#f3af84,"[""0"",""0.25""]",up_orange.png,up,7,1,29,1,1,,,right,right_blue.png,up_orange.png,up,right,up,5c03448ca33dc3000159e4ba,2021-09-11_14h38.39.720,arrow_simon_vert,2021.1.2,MacIntel,61.1995104,,,,,,,,,,,,,,,,,,,,,,,,,,,,,,,,,,,,,,
,,,right,1,0.739,0,0.256092855,#a3d0fb,"[""0.25"",""0""]",right_blue.png,right,7,2,30,1,1,,,right,right_blue.png,up_orange.png,up,right,up,5c03448ca33dc3000159e4ba,2021-09-11_14h38.39.720,arrow_simon_vert,2021.1.2,MacIntel,61.1995104,,,,,,,,,,,,,,,,,,,,,,,,,,,,,,,,,,,,,,
,,,up,1,1.442,0,0.814749198,#f3af84,"[""0"",""-0.25""]",up_orange.png,up,7,3,31,0,1,,,right,right_blue.png,up_orange.png,up,left,down,5c03448ca33dc3000159e4ba,2021-09-11_14h38.39.720,arrow_simon_vert,2021.1.2,MacIntel,61.1995104,,,,,,,,,,,,,,,,,,,,,,,,,,,,,,,,,,,,,,
,,,right,1,0.8,0,0.229203887,#a3d0fb,"[""0.25"",""0""]",right_blue.png,right,8,0,32,1,1,,,right,right_blue.png,up_orange.png,up,right,up,5c03448ca33dc3000159e4ba,2021-09-11_14h38.39.720,arrow_simon_vert,2021.1.2,MacIntel,61.1995104,,,,,,,,,,,,,,,,,,,,,,,,,,,,,,,,,,,,,,
,,,down,1,1.37,0,0.641999811,#f3af84,"[""0"",""0.25""]",down_orange.png,down,8,1,33,3,1,,,left,left_blue.png,down_orange.png,down,right,up,5c03448ca33dc3000159e4ba,2021-09-11_14h38.39.720,arrow_simon_vert,2021.1.2,MacIntel,61.1995104,,,,,,,,,,,,,,,,,,,,,,,,,,,,,,,,,,,,,,
,,,right,1,0.842,0,0.377423971,#a3d0fb,"[""0.25"",""0""]",right_blue.png,right,8,2,34,1,1,,,right,right_blue.png,up_orange.png,up,right,up,5c03448ca33dc3000159e4ba,2021-09-11_14h38.39.720,arrow_simon_vert,2021.1.2,MacIntel,61.1995104,,,,,,,,,,,,,,,,,,,,,,,,,,,,,,,,,,,,,,
,,,up,1,1.541,0,0.974094521,#f3af84,"[""0"",""-0.25""]",up_orange.png,up,8,3,35,0,1,,,right,right_blue.png,up_orange.png,up,left,down,5c03448ca33dc3000159e4ba,2021-09-11_14h38.39.720,arrow_simon_vert,2021.1.2,MacIntel,61.1995104,,,,,,,,,,,,,,,,,,,,,,,,,,,,,,,,,,,,,,
,,,right,1,0.597,0,0.174967785,#a3d0fb,"[""0.25"",""0""]",right_blue.png,right,9,0,36,1,1,,,right,right_blue.png,up_orange.png,up,right,up,5c03448ca33dc3000159e4ba,2021-09-11_14h38.39.720,arrow_simon_vert,2021.1.2,MacIntel,61.1995104,,,,,,,,,,,,,,,,,,,,,,,,,,,,,,,,,,,,,,
,,,up,0,1.536,1,0.985657916,#f3af84,"[""0"",""0.25""]",down_orange.png,down,9,1,37,3,1,,,left,left_blue.png,down_orange.png,down,right,up,5c03448ca33dc3000159e4ba,2021-09-11_14h38.39.720,arrow_simon_vert,2021.1.2,MacIntel,61.1995104,,,,,,,,,,,,,,,,,,,,,,,,,,,,,,,,,,,,,,
,,,left,1,0.631,0,0.168752498,#a3d0fb,"[""-0.25"",""0""]",left_blue.png,left,9,2,38,2,1,,,left,left_blue.png,down_orange.png,down,left,down,5c03448ca33dc3000159e4ba,2021-09-11_14h38.39.720,arrow_simon_vert,2021.1.2,MacIntel,61.1995104,,,,,,,,,,,,,,,,,,,,,,,,,,,,,,,,,,,,,,
,,,up,1,1.448,0,0.674144191,#f3af84,"[""0"",""-0.25""]",up_orange.png,up,9,3,39,0,1,,,right,right_blue.png,up_orange.png,up,left,down,5c03448ca33dc3000159e4ba,2021-09-11_14h38.39.720,arrow_simon_vert,2021.1.2,MacIntel,61.1995104,,,,,,,,,,,,,,,,,,,,,,,,,,,,,,,,,,,,,,
,,,left,1,0.706,0,0.055431216,#a3d0fb,"[""0.25"",""0""]",left_blue.png,left,10,0,40,3,1,,,left,left_blue.png,down_orange.png,down,right,up,5c03448ca33dc3000159e4ba,2021-09-11_14h38.39.720,arrow_simon_vert,2021.1.2,MacIntel,61.1995104,,,,,,,,,,,,,,,,,,,,,,,,,,,,,,,,,,,,,,
,,,up,1,0.958,0,0.481893333,#f3af84,"[""0"",""0.25""]",up_orange.png,up,10,1,41,1,1,,,right,right_blue.png,up_orange.png,up,right,up,5c03448ca33dc3000159e4ba,2021-09-11_14h38.39.720,arrow_simon_vert,2021.1.2,MacIntel,61.1995104,,,,,,,,,,,,,,,,,,,,,,,,,,,,,,,,,,,,,,
,,,right,1,1.536,0,0.967624633,#a3d0fb,"[""-0.25"",""0""]",right_blue.png,right,10,2,42,0,1,,,right,right_blue.png,up_orange.png,up,left,down,5c03448ca33dc3000159e4ba,2021-09-11_14h38.39.720,arrow_simon_vert,2021.1.2,MacIntel,61.1995104,,,,,,,,,,,,,,,,,,,,,,,,,,,,,,,,,,,,,,
,,,up,1,0.988,0,0.478444598,#f3af84,"[""0"",""0.25""]",up_orange.png,up,10,3,43,1,1,,,right,right_blue.png,up_orange.png,up,right,up,5c03448ca33dc3000159e4ba,2021-09-11_14h38.39.720,arrow_simon_vert,2021.1.2,MacIntel,61.1995104,,,,,,,,,,,,,,,,,,,,,,,,,,,,,,,,,,,,,,
,,,right,1,1.067,0,0.330709098,#a3d0fb,"[""-0.25"",""0""]",right_blue.png,right,11,0,44,0,1,,,right,right_blue.png,up_orange.png,up,left,down,5c03448ca33dc3000159e4ba,2021-09-11_14h38.39.720,arrow_simon_vert,2021.1.2,MacIntel,61.1995104,,,,,,,,,,,,,,,,,,,,,,,,,,,,,,,,,,,,,,
,,,up,1,0.818,0,0.239135012,#f3af84,"[""0"",""-0.25""]",up_orange.png,up,11,1,45,0,1,,,right,right_blue.png,up_orange.png,up,left,down,5c03448ca33dc3000159e4ba,2021-09-11_14h38.39.720,arrow_simon_vert,2021.1.2,MacIntel,61.1995104,,,,,,,,,,,,,,,,,,,,,,,,,,,,,,,,,,,,,,
,,,left,1,1.278,0,0.711721126,#a3d0fb,"[""0.25"",""0""]",left_blue.png,left,11,2,46,3,1,,,left,left_blue.png,down_orange.png,down,right,up,5c03448ca33dc3000159e4ba,2021-09-11_14h38.39.720,arrow_simon_vert,2021.1.2,MacIntel,61.1995104,,,,,,,,,,,,,,,,,,,,,,,,,,,,,,,,,,,,,,
,,,up,1,1.343,0,0.681100295,#f3af84,"[""0"",""-0.25""]",up_orange.png,up,11,3,47,0,1,,,right,right_blue.png,up_orange.png,up,left,down,5c03448ca33dc3000159e4ba,2021-09-11_14h38.39.720,arrow_simon_vert,2021.1.2,MacIntel,61.1995104,,,,,,,,,,,,,,,,,,,,,,,,,,,,,,,,,,,,,,
,,,left,1,1.009,0,0.478000892,#a3d0fb,"[""-0.25"",""0""]",left_blue.png,left,12,0,48,2,1,,,left,left_blue.png,down_orange.png,down,left,down,5c03448ca33dc3000159e4ba,2021-09-11_14h38.39.720,arrow_simon_vert,2021.1.2,MacIntel,61.1995104,,,,,,,,,,,,,,,,,,,,,,,,,,,,,,,,,,,,,,
,,,down,1,1.157,0,0.637525696,#f3af84,"[""0"",""-0.25""]",down_orange.png,down,12,1,49,2,1,,,left,left_blue.png,down_orange.png,down,left,down,5c03448ca33dc3000159e4ba,2021-09-11_14h38.39.720,arrow_simon_vert,2021.1.2,MacIntel,61.1995104,,,,,,,,,,,,,,,,,,,,,,,,,,,,,,,,,,,,,,
,,,left,1,1.426,0,0.635262232,#a3d0fb,"[""0.25"",""0""]",left_blue.png,left,12,2,50,3,1,,,left,left_blue.png,down_orange.png,down,right,up,5c03448ca33dc3000159e4ba,2021-09-11_14h38.39.720,arrow_simon_vert,2021.1.2,MacIntel,61.1995104,,,,,,,,,,,,,,,,,,,,,,,,,,,,,,,,,,,,,,
,,,down,1,0.729,0,0.105037487,#f3af84,"[""0"",""-0.25""]",down_orange.png,down,12,3,51,2,1,,,left,left_blue.png,down_orange.png,down,left,down,5c03448ca33dc3000159e4ba,2021-09-11_14h38.39.720,arrow_simon_vert,2021.1.2,MacIntel,61.1995104,,,,,,,,,,,,,,,,,,,,,,,,,,,,,,,,,,,,,,
,,,right,1,0.802,0,0.160589096,#a3d0fb,"[""-0.25"",""0""]",right_blue.png,right,13,0,52,0,1,,,right,right_blue.png,up_orange.png,up,left,down,5c03448ca33dc3000159e4ba,2021-09-11_14h38.39.720,arrow_simon_vert,2021.1.2,MacIntel,61.1995104,,,,,,,,,,,,,,,,,,,,,,,,,,,,,,,,,,,,,,
,,,down,1,0.899,0,0.448583916,#f3af84,"[""0"",""-0.25""]",down_orange.png,down,13,1,53,2,1,,,left,left_blue.png,down_orange.png,down,left,down,5c03448ca33dc3000159e4ba,2021-09-11_14h38.39.720,arrow_simon_vert,2021.1.2,MacIntel,61.1995104,,,,,,,,,,,,,,,,,,,,,,,,,,,,,,,,,,,,,,
,,,right,1,0.967,0,0.514648334,#a3d0fb,"[""0.25"",""0""]",right_blue.png,right,13,2,54,1,1,,,right,right_blue.png,up_orange.png,up,right,up,5c03448ca33dc3000159e4ba,2021-09-11_14h38.39.720,arrow_simon_vert,2021.1.2,MacIntel,61.1995104,,,,,,,,,,,,,,,,,,,,,,,,,,,,,,,,,,,,,,
,,,up,1,1.462,0,0.920129895,#f3af84,"[""0"",""0.25""]",up_orange.png,up,13,3,55,1,1,,,right,right_blue.png,up_orange.png,up,right,up,5c03448ca33dc3000159e4ba,2021-09-11_14h38.39.720,arrow_simon_vert,2021.1.2,MacIntel,61.1995104,,,,,,,,,,,,,,,,,,,,,,,,,,,,,,,,,,,,,,
,,,left,1,1.301,0,0.730594997,#a3d0fb,"[""0.25"",""0""]",left_blue.png,left,14,0,56,3,1,,,left,left_blue.png,down_orange.png,down,right,up,5c03448ca33dc3000159e4ba,2021-09-11_14h38.39.720,arrow_simon_vert,2021.1.2,MacIntel,61.1995104,,,,,,,,,,,,,,,,,,,,,,,,,,,,,,,,,,,,,,
,,,up,1,1.547,0,0.982227426,#f3af84,"[""0"",""-0.25""]",up_orange.png,up,14,1,57,0,1,,,right,right_blue.png,up_orange.png,up,left,down,5c03448ca33dc3000159e4ba,2021-09-11_14h38.39.720,arrow_simon_vert,2021.1.2,MacIntel,61.1995104,,,,,,,,,,,,,,,,,,,,,,,,,,,,,,,,,,,,,,
,,,left,1,1.403,0,0.877806537,#a3d0fb,"[""0.25"",""0""]",left_blue.png,left,14,2,58,3,1,,,left,left_blue.png,down_orange.png,down,right,up,5c03448ca33dc3000159e4ba,2021-09-11_14h38.39.720,arrow_simon_vert,2021.1.2,MacIntel,61.1995104,,,,,,,,,,,,,,,,,,,,,,,,,,,,,,,,,,,,,,
,,,up,1,1.336,0,0.877390442,#f3af84,"[""0"",""0.25""]",up_orange.png,up,14,3,59,1,1,,,right,right_blue.png,up_orange.png,up,right,up,5c03448ca33dc3000159e4ba,2021-09-11_14h38.39.720,arrow_simon_vert,2021.1.2,MacIntel,61.1995104,,,,,,,,,,,,,,,,,,,,,,,,,,,,,,,,,,,,,,
,,,,,,,,,,,,,,,,,,,,,,,,,5c03448ca33dc3000159e4ba,2021-09-11_14h38.39.720,arrow_simon_vert,2021.1.2,MacIntel,61.1995104,space,104.007,0,0,0,0,1,,,,,,,,,,,,,,,,,,,,,,,,,,,,,,,
,,,right,1,1.516,0,0.734156032,#a3d0fb,"[""0.25"",""0""]",right_blue.png,right,0,0,0,1,1,,,right,right_blue.png,up_orange.png,up,right,up,5c03448ca33dc3000159e4ba,2021-09-11_14h38.39.720,arrow_simon_vert,2021.1.2,MacIntel,61.1995104,,,,,,,,,,,,,,,,,,,,,,,,,,,,,,,,,,,,,,
,,,up,1,1.101,0,0.479452703,#f3af84,"[""0"",""-0.25""]",up_orange.png,up,0,1,1,0,1,,,right,right_blue.png,up_orange.png,up,left,down,5c03448ca33dc3000159e4ba,2021-09-11_14h38.39.720,arrow_simon_vert,2021.1.2,MacIntel,61.1995104,,,,,,,,,,,,,,,,,,,,,,,,,,,,,,,,,,,,,,
,,,right,1,0.793,0,0.237272851,#a3d0fb,"[""-0.25"",""0""]",right_blue.png,right,0,2,2,0,1,,,right,right_blue.png,up_orange.png,up,left,down,5c03448ca33dc3000159e4ba,2021-09-11_14h38.39.720,arrow_simon_vert,2021.1.2,MacIntel,61.1995104,,,,,,,,,,,,,,,,,,,,,,,,,,,,,,,,,,,,,,
,,,down,1,1.332,0,0.688172405,#f3af84,"[""0"",""0.25""]",down_orange.png,down,0,3,3,3,1,,,left,left_blue.png,down_orange.png,down,right,up,5c03448ca33dc3000159e4ba,2021-09-11_14h38.39.720,arrow_simon_vert,2021.1.2,MacIntel,61.1995104,,,,,,,,,,,,,,,,,,,,,,,,,,,,,,,,,,,,,,
,,,right,1,0.769,0,0.181751264,#a3d0fb,"[""-0.25"",""0""]",right_blue.png,right,1,0,4,0,1,,,right,right_blue.png,up_orange.png,up,left,down,5c03448ca33dc3000159e4ba,2021-09-11_14h38.39.720,arrow_simon_vert,2021.1.2,MacIntel,61.1995104,,,,,,,,,,,,,,,,,,,,,,,,,,,,,,,,,,,,,,
,,,up,1,1.087,0,0.547497437,#f3af84,"[""0"",""-0.25""]",up_orange.png,up,1,1,5,0,1,,,right,right_blue.png,up_orange.png,up,left,down,5c03448ca33dc3000159e4ba,2021-09-11_14h38.39.720,arrow_simon_vert,2021.1.2,MacIntel,61.1995104,,,,,,,,,,,,,,,,,,,,,,,,,,,,,,,,,,,,,,
,,,left,1,1.12,0,0.547648844,#a3d0fb,"[""0.25"",""0""]",left_blue.png,left,1,2,6,3,1,,,left,left_blue.png,down_orange.png,down,right,up,5c03448ca33dc3000159e4ba,2021-09-11_14h38.39.720,arrow_simon_vert,2021.1.2,MacIntel,61.1995104,,,,,,,,,,,,,,,,,,,,,,,,,,,,,,,,,,,,,,
,,,up,1,0.989,0,0.36341913,#f3af84,"[""0"",""-0.25""]",up_orange.png,up,1,3,7,0,1,,,right,right_blue.png,up_orange.png,up,left,down,5c03448ca33dc3000159e4ba,2021-09-11_14h38.39.720,arrow_simon_vert,2021.1.2,MacIntel,61.1995104,,,,,,,,,,,,,,,,,,,,,,,,,,,,,,,,,,,,,,
,,,left,1,0.658,0,0.186370177,#a3d0fb,"[""-0.25"",""0""]",left_blue.png,left,2,0,8,2,1,,,left,left_blue.png,down_orange.png,down,left,down,5c03448ca33dc3000159e4ba,2021-09-11_14h38.39.720,arrow_simon_vert,2021.1.2,MacIntel,61.1995104,,,,,,,,,,,,,,,,,,,,,,,,,,,,,,,,,,,,,,
,,,down,1,1.193,0,0.687457633,#f3af84,"[""0"",""-0.25""]",down_orange.png,down,2,1,9,2,1,,,left,left_blue.png,down_orange.png,down,left,down,5c03448ca33dc3000159e4ba,2021-09-11_14h38.39.720,arrow_simon_vert,2021.1.2,MacIntel,61.1995104,,,,,,,,,,,,,,,,,,,,,,,,,,,,,,,,,,,,,,
,,,right,1,1.21,0,0.796853498,#a3d0fb,"[""0.25"",""0""]",right_blue.png,right,2,2,10,1,1,,,right,right_blue.png,up_orange.png,up,right,up,5c03448ca33dc3000159e4ba,2021-09-11_14h38.39.720,arrow_simon_vert,2021.1.2,MacIntel,61.1995104,,,,,,,,,,,,,,,,,,,,,,,,,,,,,,,,,,,,,,
,,,up,1,1.35,0,0.89650841,#f3af84,"[""0"",""0.25""]",up_orange.png,up,2,3,11,1,1,,,right,right_blue.png,up_orange.png,up,right,up,5c03448ca33dc3000159e4ba,2021-09-11_14h38.39.720,arrow_simon_vert,2021.1.2,MacIntel,61.1995104,,,,,,,,,,,,,,,,,,,,,,,,,,,,,,,,,,,,,,
,,,left,0,1.328,1,0.899135162,#a3d0fb,"[""-0.25"",""0""]",right_blue.png,right,3,0,12,0,1,,,right,right_blue.png,up_orange.png,up,left,down,5c03448ca33dc3000159e4ba,2021-09-11_14h38.39.720,arrow_simon_vert,2021.1.2,MacIntel,61.1995104,,,,,,,,,,,,,,,,,,,,,,,,,,,,,,,,,,,,,,
,,,up,1,0.777,0,0.106432611,#f3af84,"[""0"",""-0.25""]",up_orange.png,up,3,1,13,0,1,,,right,right_blue.png,up_orange.png,up,left,down,5c03448ca33dc3000159e4ba,2021-09-11_14h38.39.720,arrow_simon_vert,2021.1.2,MacIntel,61.1995104,,,,,,,,,,,,,,,,,,,,,,,,,,,,,,,,,,,,,,
,,,left,1,1.288,0,0.802054974,#a3d0fb,"[""-0.25"",""0""]",left_blue.png,left,3,2,14,2,1,,,left,left_blue.png,down_orange.png,down,left,down,5c03448ca33dc3000159e4ba,2021-09-11_14h38.39.720,arrow_simon_vert,2021.1.2,MacIntel,61.1995104,,,,,,,,,,,,,,,,,,,,,,,,,,,,,,,,,,,,,,
,,,up,1,0.985,0,0.245515229,#f3af84,"[""0"",""-0.25""]",up_orange.png,up,3,3,15,0,1,,,right,right_blue.png,up_orange.png,up,left,down,5c03448ca33dc3000159e4ba,2021-09-11_14h38.39.720,arrow_simon_vert,2021.1.2,MacIntel,61.1995104,,,,,,,,,,,,,,,,,,,,,,,,,,,,,,,,,,,,,,
,,,left,1,1.083,0,0.333976964,#a3d0fb,"[""0.25"",""0""]",left_blue.png,left,4,0,16,3,1,,,left,left_blue.png,down_orange.png,down,right,up,5c03448ca33dc3000159e4ba,2021-09-11_14h38.39.720,arrow_simon_vert,2021.1.2,MacIntel,61.1995104,,,,,,,,,,,,,,,,,,,,,,,,,,,,,,,,,,,,,,
,,,up,1,0.971,0,0.339647474,#f3af84,"[""0"",""-0.25""]",up_orange.png,up,4,1,17,0,1,,,right,right_blue.png,up_orange.png,up,left,down,5c03448ca33dc3000159e4ba,2021-09-11_14h38.39.720,arrow_simon_vert,2021.1.2,MacIntel,61.1995104,,,,,,,,,,,,,,,,,,,,,,,,,,,,,,,,,,,,,,
,,,right,1,0.58,0,0.099217054,#a3d0fb,"[""0.25"",""0""]",right_blue.png,right,4,2,18,1,1,,,right,right_blue.png,up_orange.png,up,right,up,5c03448ca33dc3000159e4ba,2021-09-11_14h38.39.720,arrow_simon_vert,2021.1.2,MacIntel,61.1995104,,,,,,,,,,,,,,,,,,,,,,,,,,,,,,,,,,,,,,
,,,down,1,0.738,0,0.183163346,#f3af84,"[""0"",""0.25""]",down_orange.png,down,4,3,19,3,1,,,left,left_blue.png,down_orange.png,down,right,up,5c03448ca33dc3000159e4ba,2021-09-11_14h38.39.720,arrow_simon_vert,2021.1.2,MacIntel,61.1995104,,,,,,,,,,,,,,,,,,,,,,,,,,,,,,,,,,,,,,
,,,left,1,1.526,0,0.803786753,#a3d0fb,"[""0.25"",""0""]",left_blue.png,left,5,0,20,3,1,,,left,left_blue.png,down_orange.png,down,right,up,5c03448ca33dc3000159e4ba,2021-09-11_14h38.39.720,arrow_simon_vert,2021.1.2,MacIntel,61.1995104,,,,,,,,,,,,,,,,,,,,,,,,,,,,,,,,,,,,,,
,,,up,1,1.41,0,0.896511951,#f3af84,"[""0"",""-0.25""]",up_orange.png,up,5,1,21,0,1,,,right,right_blue.png,up_orange.png,up,left,down,5c03448ca33dc3000159e4ba,2021-09-11_14h38.39.720,arrow_simon_vert,2021.1.2,MacIntel,61.1995104,,,,,,,,,,,,,,,,,,,,,,,,,,,,,,,,,,,,,,
,,,left,1,1.051,0,0.55213715,#a3d0fb,"[""-0.25"",""0""]",left_blue.png,left,5,2,22,2,1,,,left,left_blue.png,down_orange.png,down,left,down,5c03448ca33dc3000159e4ba,2021-09-11_14h38.39.720,arrow_simon_vert,2021.1.2,MacIntel,61.1995104,,,,,,,,,,,,,,,,,,,,,,,,,,,,,,,,,,,,,,
,,,up,1,0.67,0,0.126312957,#f3af84,"[""0"",""0.25""]",up_orange.png,up,5,3,23,1,1,,,right,right_blue.png,up_orange.png,up,right,up,5c03448ca33dc3000159e4ba,2021-09-11_14h38.39.720,arrow_simon_vert,2021.1.2,MacIntel,61.1995104,,,,,,,,,,,,,,,,,,,,,,,,,,,,,,,,,,,,,,
,,,right,1,1.197,0,0.703886792,#a3d0fb,"[""0.25"",""0""]",right_blue.png,right,6,0,24,1,1,,,right,right_blue.png,up_orange.png,up,right,up,5c03448ca33dc3000159e4ba,2021-09-11_14h38.39.720,arrow_simon_vert,2021.1.2,MacIntel,61.1995104,,,,,,,,,,,,,,,,,,,,,,,,,,,,,,,,,,,,,,
,,,down,1,0.933,0,0.416573847,#f3af84,"[""0"",""0.25""]",down_orange.png,down,6,1,25,3,1,,,left,left_blue.png,down_orange.png,down,right,up,5c03448ca33dc3000159e4ba,2021-09-11_14h38.39.720,arrow_simon_vert,2021.1.2,MacIntel,61.1995104,,,,,,,,,,,,,,,,,,,,,,,,,,,,,,,,,,,,,,
,,,right,1,1.189,0,0.708362954,#a3d0fb,"[""0.25"",""0""]",right_blue.png,right,6,2,26,1,1,,,right,right_blue.png,up_orange.png,up,right,up,5c03448ca33dc3000159e4ba,2021-09-11_14h38.39.720,arrow_simon_vert,2021.1.2,MacIntel,61.1995104,,,,,,,,,,,,,,,,,,,,,,,,,,,,,,,,,,,,,,
,,,up,1,0.703,0,0.197731638,#f3af84,"[""0"",""0.25""]",up_orange.png,up,6,3,27,1,1,,,right,right_blue.png,up_orange.png,up,right,up,5c03448ca33dc3000159e4ba,2021-09-11_14h38.39.720,arrow_simon_vert,2021.1.2,MacIntel,61.1995104,,,,,,,,,,,,,,,,,,,,,,,,,,,,,,,,,,,,,,
,,,right,1,0.669,0,0.223439759,#a3d0fb,"[""0.25"",""0""]",right_blue.png,right,7,0,28,1,1,,,right,right_blue.png,up_orange.png,up,right,up,5c03448ca33dc3000159e4ba,2021-09-11_14h38.39.720,arrow_simon_vert,2021.1.2,MacIntel,61.1995104,,,,,,,,,,,,,,,,,,,,,,,,,,,,,,,,,,,,,,
,,,up,1,0.637,0,0.175541003,#f3af84,"[""0"",""0.25""]",up_orange.png,up,7,1,29,1,1,,,right,right_blue.png,up_orange.png,up,right,up,5c03448ca33dc3000159e4ba,2021-09-11_14h38.39.720,arrow_simon_vert,2021.1.2,MacIntel,61.1995104,,,,,,,,,,,,,,,,,,,,,,,,,,,,,,,,,,,,,,
,,,left,1,1.331,0,0.785869839,#a3d0fb,"[""0.25"",""0""]",left_blue.png,left,7,2,30,3,1,,,left,left_blue.png,down_orange.png,down,right,up,5c03448ca33dc3000159e4ba,2021-09-11_14h38.39.720,arrow_simon_vert,2021.1.2,MacIntel,61.1995104,,,,,,,,,,,,,,,,,,,,,,,,,,,,,,,,,,,,,,
,,,down,0,1.572,1,0.843134662,#f3af84,"[""0"",""-0.25""]",up_orange.png,up,7,3,31,0,1,,,right,right_blue.png,up_orange.png,up,left,down,5c03448ca33dc3000159e4ba,2021-09-11_14h38.39.720,arrow_simon_vert,2021.1.2,MacIntel,61.1995104,,,,,,,,,,,,,,,,,,,,,,,,,,,,,,,,,,,,,,
,,,left,1,0.67,0,0.097915907,#a3d0fb,"[""-0.25"",""0""]",left_blue.png,left,8,0,32,2,1,,,left,left_blue.png,down_orange.png,down,left,down,5c03448ca33dc3000159e4ba,2021-09-11_14h38.39.720,arrow_simon_vert,2021.1.2,MacIntel,61.1995104,,,,,,,,,,,,,,,,,,,,,,,,,,,,,,,,,,,,,,
,,,down,1,0.969,0,0.297818529,#f3af84,"[""0"",""0.25""]",down_orange.png,down,8,1,33,3,1,,,left,left_blue.png,down_orange.png,down,right,up,5c03448ca33dc3000159e4ba,2021-09-11_14h38.39.720,arrow_simon_vert,2021.1.2,MacIntel,61.1995104,,,,,,,,,,,,,,,,,,,,,,,,,,,,,,,,,,,,,,
,,,left,1,0.851,0,0.171709761,#a3d0fb,"[""0.25"",""0""]",left_blue.png,left,8,2,34,3,1,,,left,left_blue.png,down_orange.png,down,right,up,5c03448ca33dc3000159e4ba,2021-09-11_14h38.39.720,arrow_simon_vert,2021.1.2,MacIntel,61.1995104,,,,,,,,,,,,,,,,,,,,,,,,,,,,,,,,,,,,,,
,,,down,1,0.663,0,0.128375544,#f3af84,"[""0"",""-0.25""]",down_orange.png,down,8,3,35,2,1,,,left,left_blue.png,down_orange.png,down,left,down,5c03448ca33dc3000159e4ba,2021-09-11_14h38.39.720,arrow_simon_vert,2021.1.2,MacIntel,61.1995104,,,,,,,,,,,,,,,,,,,,,,,,,,,,,,,,,,,,,,
,,,right,1,0.867,0,0.399230665,#a3d0fb,"[""0.25"",""0""]",right_blue.png,right,9,0,36,1,1,,,right,right_blue.png,up_orange.png,up,right,up,5c03448ca33dc3000159e4ba,2021-09-11_14h38.39.720,arrow_simon_vert,2021.1.2,MacIntel,61.1995104,,,,,,,,,,,,,,,,,,,,,,,,,,,,,,,,,,,,,,
,,,down,1,1.084,0,0.538179664,#f3af84,"[""0"",""0.25""]",down_orange.png,down,9,1,37,3,1,,,left,left_blue.png,down_orange.png,down,right,up,5c03448ca33dc3000159e4ba,2021-09-11_14h38.39.720,arrow_simon_vert,2021.1.2,MacIntel,61.1995104,,,,,,,,,,,,,,,,,,,,,,,,,,,,,,,,,,,,,,
,,,left,1,0.772,0,0.248553038,#a3d0fb,"[""-0.25"",""0""]",left_blue.png,left,9,2,38,2,1,,,left,left_blue.png,down_orange.png,down,left,down,5c03448ca33dc3000159e4ba,2021-09-11_14h38.39.720,arrow_simon_vert,2021.1.2,MacIntel,61.1995104,,,,,,,,,,,,,,,,,,,,,,,,,,,,,,,,,,,,,,
,,,up,1,0.739,0,0.239207243,#f3af84,"[""0"",""0.25""]",up_orange.png,up,9,3,39,1,1,,,right,right_blue.png,up_orange.png,up,right,up,5c03448ca33dc3000159e4ba,2021-09-11_14h38.39.720,arrow_simon_vert,2021.1.2,MacIntel,61.1995104,,,,,,,,,,,,,,,,,,,,,,,,,,,,,,,,,,,,,,
,,,right,1,1.401,0,0.676153505,#a3d0fb,"[""-0.25"",""0""]",right_blue.png,right,10,0,40,0,1,,,right,right_blue.png,up_orange.png,up,left,down,5c03448ca33dc3000159e4ba,2021-09-11_14h38.39.720,arrow_simon_vert,2021.1.2,MacIntel,61.1995104,,,,,,,,,,,,,,,,,,,,,,,,,,,,,,,,,,,,,,
,,,up,1,1.767,0,0.795379527,#f3af84,"[""0"",""-0.25""]",up_orange.png,up,10,1,41,0,1,,,right,right_blue.png,up_orange.png,up,left,down,5c03448ca33dc3000159e4ba,2021-09-11_14h38.39.720,arrow_simon_vert,2021.1.2,MacIntel,61.1995104,,,,,,,,,,,,,,,,,,,,,,,,,,,,,,,,,,,,,,
,,,left,1,1.124,0,0.679383048,#a3d0fb,"[""-0.25"",""0""]",left_blue.png,left,10,2,42,2,1,,,left,left_blue.png,down_orange.png,down,left,down,5c03448ca33dc3000159e4ba,2021-09-11_14h38.39.720,arrow_simon_vert,2021.1.2,MacIntel,61.1995104,,,,,,,,,,,,,,,,,,,,,,,,,,,,,,,,,,,,,,
,,,up,1,1.241,0,0.396212496,#f3af84,"[""0"",""-0.25""]",up_orange.png,up,10,3,43,0,1,,,right,right_blue.png,up_orange.png,up,left,down,5c03448ca33dc3000159e4ba,2021-09-11_14h38.39.720,arrow_simon_vert,2021.1.2,MacIntel,61.1995104,,,,,,,,,,,,,,,,,,,,,,,,,,,,,,,,,,,,,,
,,,left,1,0.846,0,0.356542797,#a3d0fb,"[""-0.25"",""0""]",left_blue.png,left,11,0,44,2,1,,,left,left_blue.png,down_orange.png,down,left,down,5c03448ca33dc3000159e4ba,2021-09-11_14h38.39.720,arrow_simon_vert,2021.1.2,MacIntel,61.1995104,,,,,,,,,,,,,,,,,,,,,,,,,,,,,,,,,,,,,,
,,,down,1,1.421,0,0.92084169,#f3af84,"[""0"",""-0.25""]",down_orange.png,down,11,1,45,2,1,,,left,left_blue.png,down_orange.png,down,left,down,5c03448ca33dc3000159e4ba,2021-09-11_14h38.39.720,arrow_simon_vert,2021.1.2,MacIntel,61.1995104,,,,,,,,,,,,,,,,,,,,,,,,,,,,,,,,,,,,,,
,,,left,1,1.11,0,0.523526502,#a3d0fb,"[""0.25"",""0""]",left_blue.png,left,11,2,46,3,1,,,left,left_blue.png,down_orange.png,down,right,up,5c03448ca33dc3000159e4ba,2021-09-11_14h38.39.720,arrow_simon_vert,2021.1.2,MacIntel,61.1995104,,,,,,,,,,,,,,,,,,,,,,,,,,,,,,,,,,,,,,
,,,up,1,0.593,0,0.044754022,#f3af84,"[""0"",""0.25""]",up_orange.png,up,11,3,47,1,1,,,right,right_blue.png,up_orange.png,up,right,up,5c03448ca33dc3000159e4ba,2021-09-11_14h38.39.720,arrow_simon_vert,2021.1.2,MacIntel,61.1995104,,,,,,,,,,,,,,,,,,,,,,,,,,,,,,,,,,,,,,
,,,left,1,0.997,0,0.37790333,#a3d0fb,"[""0.25"",""0""]",left_blue.png,left,12,0,48,3,1,,,left,left_blue.png,down_orange.png,down,right,up,5c03448ca33dc3000159e4ba,2021-09-11_14h38.39.720,arrow_simon_vert,2021.1.2,MacIntel,61.1995104,,,,,,,,,,,,,,,,,,,,,,,,,,,,,,,,,,,,,,
,,,down,1,1.088,0,0.51630903,#f3af84,"[""0"",""0.25""]",down_orange.png,down,12,1,49,3,1,,,left,left_blue.png,down_orange.png,down,right,up,5c03448ca33dc3000159e4ba,2021-09-11_14h38.39.720,arrow_simon_vert,2021.1.2,MacIntel,61.1995104,,,,,,,,,,,,,,,,,,,,,,,,,,,,,,,,,,,,,,
,,,left,1,0.635,0,0.030289548,#a3d0fb,"[""0.25"",""0""]",left_blue.png,left,12,2,50,3,1,,,left,left_blue.png,down_orange.png,down,right,up,5c03448ca33dc3000159e4ba,2021-09-11_14h38.39.720,arrow_simon_vert,2021.1.2,MacIntel,61.1995104,,,,,,,,,,,,,,,,,,,,,,,,,,,,,,,,,,,,,,
,,,down,1,0.749,0,0.178555375,#f3af84,"[""0"",""0.25""]",down_orange.png,down,12,3,51,3,1,,,left,left_blue.png,down_orange.png,down,right,up,5c03448ca33dc3000159e4ba,2021-09-11_14h38.39.720,arrow_simon_vert,2021.1.2,MacIntel,61.1995104,,,,,,,,,,,,,,,,,,,,,,,,,,,,,,,,,,,,,,
,,,left,1,1.459,0,0.964997659,#a3d0fb,"[""-0.25"",""0""]",left_blue.png,left,13,0,52,2,1,,,left,left_blue.png,down_orange.png,down,left,down,5c03448ca33dc3000159e4ba,2021-09-11_14h38.39.720,arrow_simon_vert,2021.1.2,MacIntel,61.1995104,,,,,,,,,,,,,,,,,,,,,,,,,,,,,,,,,,,,,,
,,,up,1,0.737,0,0.206248039,#f3af84,"[""0"",""0.25""]",up_orange.png,up,13,1,53,1,1,,,right,right_blue.png,up_orange.png,up,right,up,5c03448ca33dc3000159e4ba,2021-09-11_14h38.39.720,arrow_simon_vert,2021.1.2,MacIntel,61.1995104,,,,,,,,,,,,,,,,,,,,,,,,,,,,,,,,,,,,,,
,,,left,1,1.427,0,0.906348635,#a3d0fb,"[""-0.25"",""0""]",left_blue.png,left,13,2,54,2,1,,,left,left_blue.png,down_orange.png,down,left,down,5c03448ca33dc3000159e4ba,2021-09-11_14h38.39.720,arrow_simon_vert,2021.1.2,MacIntel,61.1995104,,,,,,,,,,,,,,,,,,,,,,,,,,,,,,,,,,,,,,
,,,down,1,0.656,0,0.209455905,#f3af84,"[""0"",""-0.25""]",down_orange.png,down,13,3,55,2,1,,,left,left_blue.png,down_orange.png,down,left,down,5c03448ca33dc3000159e4ba,2021-09-11_14h38.39.720,arrow_simon_vert,2021.1.2,MacIntel,61.1995104,,,,,,,,,,,,,,,,,,,,,,,,,,,,,,,,,,,,,,
,,,left,1,1.158,0,0.63907163,#a3d0fb,"[""-0.25"",""0""]",left_blue.png,left,14,0,56,2,1,,,left,left_blue.png,down_orange.png,down,left,down,5c03448ca33dc3000159e4ba,2021-09-11_14h38.39.720,arrow_simon_vert,2021.1.2,MacIntel,61.1995104,,,,,,,,,,,,,,,,,,,,,,,,,,,,,,,,,,,,,,
,,,down,1,2.132,0,0.910591937,#f3af84,"[""0"",""-0.25""]",down_orange.png,down,14,1,57,2,1,,,left,left_blue.png,down_orange.png,down,left,down,5c03448ca33dc3000159e4ba,2021-09-11_14h38.39.720,arrow_simon_vert,2021.1.2,MacIntel,61.1995104,,,,,,,,,,,,,,,,,,,,,,,,,,,,,,,,,,,,,,
,,,right,1,1.007,0,0.414114455,#a3d0fb,"[""-0.25"",""0""]",right_blue.png,right,14,2,58,0,1,,,right,right_blue.png,up_orange.png,up,left,down,5c03448ca33dc3000159e4ba,2021-09-11_14h38.39.720,arrow_simon_vert,2021.1.2,MacIntel,61.1995104,,,,,,,,,,,,,,,,,,,,,,,,,,,,,,,,,,,,,,
,,,up,1,1.359,0,0.818718427,#f3af84,"[""0"",""0.25""]",up_orange.png,up,14,3,59,1,1,,,right,right_blue.png,up_orange.png,up,right,up,5c03448ca33dc3000159e4ba,2021-09-11_14h38.39.720,arrow_simon_vert,2021.1.2,MacIntel,61.1995104,,,,,,,,,,,,,,,,,,,,,,,,,,,,,,,,,,,,,,
,,,,,,,,,,,,,,,,,,,,,,,,,5c03448ca33dc3000159e4ba,2021-09-11_14h38.39.720,arrow_simon_vert,2021.1.2,MacIntel,61.1995104,space,71.021,1,0,1,0,1,,,,,,,,,,,,,,,,,,,,,,,,,,,,,,,
,,,,,,,,,,,,,,,,,,,,,,,,,5c03448ca33dc3000159e4ba,2021-09-11_14h38.39.720,arrow_simon_vert,2021.1.2,MacIntel,61.1995104,,,,,,,,space,0,42.588,up,2.841,0,0,0,0,1,,,,,,,,,,,,,,,,,,,,,
,,,,,,,,,,,,,,,,,,,,,,,,,5c03448ca33dc3000159e4ba,2021-09-11_14h38.39.720,arrow_simon_vert,2021.1.2,MacIntel,61.1995104,,,,,,,,,,,right,3.093,1,0,1,0,1,,,,,,,,,,,,,,,,,,,,,
,,,,,,,,,,,,,,,,,,,,,,,,,5c03448ca33dc3000159e4ba,2021-09-11_14h38.39.720,arrow_simon_vert,2021.1.2,MacIntel,61.1995104,,,,,,,,,,,right,2.906,2,0,2,0,1,,,,,,,,,,,,,,,,,,,,,
,,,,,,,,,,,,,,,,,,,,,,,,,5c03448ca33dc3000159e4ba,2021-09-11_14h38.39.720,arrow_simon_vert,2021.1.2,MacIntel,61.1995104,,,,,,,,,,,down,2.183,3,0,3,0,1,,,,,,,,,,,,,,,,,,,,,
,,,,,,,,,,,,,,,,,,,,,,,,,5c03448ca33dc3000159e4ba,2021-09-11_14h38.39.720,arrow_simon_vert,2021.1.2,MacIntel,61.1995104,,,,,,,,,,,right,2.656,4,0,4,0,1,,,,,,,,,,,,,,,,,,,,,
,,,,,,,,,,,,,,,,,,,,,,,,,5c03448ca33dc3000159e4ba,2021-09-11_14h38.39.720,arrow_simon_vert,2021.1.2,MacIntel,61.1995104,,,,,,,,,,,down,2.634,5,0,5,0,1,,,,,,,,,,,,,,,,,,,,,
,,,,,,,,,,,,,,,,,,,,,,,,,5c03448ca33dc3000159e4ba,2021-09-11_14h38.39.720,arrow_simon_vert,2021.1.2,MacIntel,61.1995104,,,,,,,,,,,left,2.52,6,0,6,0,1,,,,,,,,,,,,,,,,,,,,,
,,,,,,,,,,,,,,,,,,,,,,,,,5c03448ca33dc3000159e4ba,2021-09-11_14h38.39.720,arrow_simon_vert,2021.1.2,MacIntel,61.1995104,,,,,,,,,,,up,2.455,7,0,7,0,1,,,,,,,,,,,,,,,,,,,,,
,,,,,,,,,,,,,,,,,,,,,,,,,5c03448ca33dc3000159e4ba,2021-09-11_14h38.39.720,arrow_simon_vert,2021.1.2,MacIntel,61.1995104,,,,,,,,,,,right,2.548,8,0,8,0,1,,,,,,,,,,,,,,,,,,,,,
,,,,,,,,,,,,,,,,,,,,,,,,,5c03448ca33dc3000159e4ba,2021-09-11_14h38.39.720,arrow_simon_vert,2021.1.2,MacIntel,61.1995104,,,,,,,,,,,down,2.66,9,0,9,0,1,,,,,,,,,,,,,,,,,,,,,
,,,,,,,,,,,,,,,,,,,,,,,,,5c03448ca33dc3000159e4ba,2021-09-11_14h38.39.720,arrow_simon_vert,2021.1.2,MacIntel,61.1995104,,,,,,,,,,,right,2.119,10,0,10,0,1,,,,,,,,,,,,,,,,,,,,,
,,,,,,,,,,,,,,,,,,,,,,,,,5c03448ca33dc3000159e4ba,2021-09-11_14h38.39.720,arrow_simon_vert,2021.1.2,MacIntel,61.1995104,,,,,,,,,,,left,2.704,11,0,11,0,1,,,,,,,,,,,,,,,,,,,,,
,,,,,,,,,,,,,,,,,,,,,,,,,5c03448ca33dc3000159e4ba,2021-09-11_14h38.39.720,arrow_simon_vert,2021.1.2,MacIntel,61.1995104,,,,,,,,,,,right,2.694,12,0,12,0,1,,,,,,,,,,,,,,,,,,,,,
,,,,,,,,,,,,,,,,,,,,,,,,,5c03448ca33dc3000159e4ba,2021-09-11_14h38.39.720,arrow_simon_vert,2021.1.2,MacIntel,61.1995104,,,,,,,,,,,up,2.541,13,0,13,0,1,,,,,,,,,,,,,,,,,,,,,
,,,,,,,,,,,,,,,,,,,,,,,,,5c03448ca33dc3000159e4ba,2021-09-11_14h38.39.720,arrow_simon_vert,2021.1.2,MacIntel,61.1995104,,,,,,,,,,,right,2.783,14,0,14,0,1,,,,,,,,,,,,,,,,,,,,,
,,,,,,,,,,,,,,,,,,,,,,,,,5c03448ca33dc3000159e4ba,2021-09-11_14h38.39.720,arrow_simon_vert,2021.1.2,MacIntel,61.1995104,,,,,,,,,,,down,2.586,15,0,15,0,1,,,,,,,,,,,,,,,,,,,,,
,,,,,,,,,,,,,,,,,,,,,,,,,5c03448ca33dc3000159e4ba,2021-09-11_14h38.39.720,arrow_simon_vert,2021.1.2,MacIntel,61.1995104,,,,,,,,,,,right,2.596,16,0,16,0,1,,,,,,,,,,,,,,,,,,,,,
,,,,,,,,,,,,,,,,,,,,,,,,,5c03448ca33dc3000159e4ba,2021-09-11_14h38.39.720,arrow_simon_vert,2021.1.2,MacIntel,61.1995104,,,,,,,,,,,up,2.527,17,0,17,0,1,,,,,,,,,,,,,,,,,,,,,
,,,,,,,,,,,,,,,,,,,,,,,,,5c03448ca33dc3000159e4ba,2021-09-11_14h38.39.720,arrow_simon_vert,2021.1.2,MacIntel,61.1995104,,,,,,,,,,,right,2.78,18,0,18,0,1,,,,,,,,,,,,,,,,,,,,,
,,,,,,,,,,,,,,,,,,,,,,,,,5c03448ca33dc3000159e4ba,2021-09-11_14h38.39.720,arrow_simon_vert,2021.1.2,MacIntel,61.1995104,,,,,,,,,,,up,2.434,19,0,19,0,1,,,,,,,,,,,,,,,,,,,,,
,,,,,,,,,,,,,,,,,,,,,,,,,5c03448ca33dc3000159e4ba,2021-09-11_14h38.39.720,arrow_simon_vert,2021.1.2,MacIntel,61.1995104,,,,,,,,,,,left,2.554,20,0,20,0,1,,,,,,,,,,,,,,,,,,,,,
,,,,,,,,,,,,,,,,,,,,,,,,,5c03448ca33dc3000159e4ba,2021-09-11_14h38.39.720,arrow_simon_vert,2021.1.2,MacIntel,61.1995104,,,,,,,,,,,down,2.444,21,0,21,0,1,,,,,,,,,,,,,,,,,,,,,
,,,,,,,,,,,,,,,,,,,,,,,,,5c03448ca33dc3000159e4ba,2021-09-11_14h38.39.720,arrow_simon_vert,2021.1.2,MacIntel,61.1995104,,,,,,,,,,,right,2.44,22,0,22,0,1,,,,,,,,,,,,,,,,,,,,,
,,,,,,,,,,,,,,,,,,,,,,,,,5c03448ca33dc3000159e4ba,2021-09-11_14h38.39.720,arrow_simon_vert,2021.1.2,MacIntel,61.1995104,,,,,,,,,,,up,2.374,23,0,23,0,1,,,,,,,,,,,,,,,,,,,,,
,,,,,,,,,,,,,,,,,,,,,,,,,5c03448ca33dc3000159e4ba,2021-09-11_14h38.39.720,arrow_simon_vert,2021.1.2,MacIntel,61.1995104,,,,,,,,,,,right,2.529,24,0,24,0,1,,,,,,,,,,,,,,,,,,,,,
,,,,,,,,,,,,,,,,,,,,,,,,,5c03448ca33dc3000159e4ba,2021-09-11_14h38.39.720,arrow_simon_vert,2021.1.2,MacIntel,61.1995104,,,,,,,,,,,up,2.404,25,0,25,0,1,,,,,,,,,,,,,,,,,,,,,
,,,,,,,,,,,,,,,,,,,,,,,,,5c03448ca33dc3000159e4ba,2021-09-11_14h38.39.720,arrow_simon_vert,2021.1.2,MacIntel,61.1995104,,,,,,,,,,,left,2.442,26,0,26,0,1,,,,,,,,,,,,,,,,,,,,,
,,,,,,,,,,,,,,,,,,,,,,,,,5c03448ca33dc3000159e4ba,2021-09-11_14h38.39.720,arrow_simon_vert,2021.1.2,MacIntel,61.1995104,,,,,,,,,,,up,2.066,27,0,27,0,1,,,,,,,,,,,,,,,,,,,,,
,,,,,,,,,,,,,,,,,,,,,,,,,5c03448ca33dc3000159e4ba,2021-09-11_14h38.39.720,arrow_simon_vert,2021.1.2,MacIntel,61.1995104,,,,,,,,,,,right,2.423,28,0,28,0,1,,,,,,,,,,,,,,,,,,,,,
,,,,,,,,,,,,,,,,,,,,,,,,,5c03448ca33dc3000159e4ba,2021-09-11_14h38.39.720,arrow_simon_vert,2021.1.2,MacIntel,61.1995104,,,,,,,,,,,up,2.569,29,0,29,0,1,,,,,,,,,,,,,,,,,,,,,
,,,,,,,,,,,,,,,,,,,,,,,,,5c03448ca33dc3000159e4ba,2021-09-11_14h38.39.720,arrow_simon_vert,2021.1.2,MacIntel,61.1995104,,,,,,,,,,,right,2.413,30,0,30,0,1,,,,,,,,,,,,,,,,,,,,,
,,,,,,,,,,,,,,,,,,,,,,,,,5c03448ca33dc3000159e4ba,2021-09-11_14h38.39.720,arrow_simon_vert,2021.1.2,MacIntel,61.1995104,,,,,,,,,,,up,2.366,31,0,31,0,1,,,,,,,,,,,,,,,,,,,,,
,,,,,,,,,,,,,,,,,,,,,,,,,5c03448ca33dc3000159e4ba,2021-09-11_14h38.39.720,arrow_simon_vert,2021.1.2,MacIntel,61.1995104,,,,,,,,,,,right,2.227,32,0,32,0,1,,,,,,,,,,,,,,,,,,,,,
,,,,,,,,,,,,,,,,,,,,,,,,,5c03448ca33dc3000159e4ba,2021-09-11_14h38.39.720,arrow_simon_vert,2021.1.2,MacIntel,61.1995104,,,,,,,,,,,down,2.824,33,0,33,0,1,,,,,,,,,,,,,,,,,,,,,
,,,,,,,,,,,,,,,,,,,,,,,,,5c03448ca33dc3000159e4ba,2021-09-11_14h38.39.720,arrow_simon_vert,2021.1.2,MacIntel,61.1995104,,,,,,,,,,,left,2.235,34,0,34,0,1,,,,,,,,,,,,,,,,,,,,,
,,,,,,,,,,,,,,,,,,,,,,,,,5c03448ca33dc3000159e4ba,2021-09-11_14h38.39.720,arrow_simon_vert,2021.1.2,MacIntel,61.1995104,,,,,,,,,,,up,2.139,35,0,35,0,1,,,,,,,,,,,,,,,,,,,,,
,,,,,,,,,,,,,,,,,,,,,,,,,5c03448ca33dc3000159e4ba,2021-09-11_14h38.39.720,arrow_simon_vert,2021.1.2,MacIntel,61.1995104,,,,,,,,,,,right,2.433,36,0,36,0,1,,,,,,,,,,,,,,,,,,,,,
,,,,,,,,,,,,,,,,,,,,,,,,,5c03448ca33dc3000159e4ba,2021-09-11_14h38.39.720,arrow_simon_vert,2021.1.2,MacIntel,61.1995104,,,,,,,,,,,up,2.513,37,0,37,0,1,,,,,,,,,,,,,,,,,,,,,
,,,,,,,,,,,,,,,,,,,,,,,,,5c03448ca33dc3000159e4ba,2021-09-11_14h38.39.720,arrow_simon_vert,2021.1.2,MacIntel,61.1995104,,,,,,,,,,,right,2.711,38,0,38,0,1,,,,,,,,,,,,,,,,,,,,,
,,,,,,,,,,,,,,,,,,,,,,,,,5c03448ca33dc3000159e4ba,2021-09-11_14h38.39.720,arrow_simon_vert,2021.1.2,MacIntel,61.1995104,,,,,,,,,,,up,2.138,39,0,39,0,1,,,,,,,,,,,,,,,,,,,,,
,,,,,,,,,,,,,,,,,,,,,,,,,5c03448ca33dc3000159e4ba,2021-09-11_14h38.39.720,arrow_simon_vert,2021.1.2,MacIntel,61.1995104,,,,,,,,,,,right,2.161,40,0,40,0,1,,,,,,,,,,,,,,,,,,,,,
,,,,,,,,,,,,,,,,,,,,,,,,,5c03448ca33dc3000159e4ba,2021-09-11_14h38.39.720,arrow_simon_vert,2021.1.2,MacIntel,61.1995104,,,,,,,,,,,up,2.25,41,0,41,0,1,,,,,,,,,,,,,,,,,,,,,
,,,,,,,,,,,,,,,,,,,,,,,,,5c03448ca33dc3000159e4ba,2021-09-11_14h38.39.720,arrow_simon_vert,2021.1.2,MacIntel,61.1995104,,,,,,,,,,,left,2.443,42,0,42,0,1,,,,,,,,,,,,,,,,,,,,,
,,,,,,,,,,,,,,,,,,,,,,,,,5c03448ca33dc3000159e4ba,2021-09-11_14h38.39.720,arrow_simon_vert,2021.1.2,MacIntel,61.1995104,,,,,,,,,,,up,2.475,43,0,43,0,1,,,,,,,,,,,,,,,,,,,,,
,,,,,,,,,,,,,,,,,,,,,,,,,5c03448ca33dc3000159e4ba,2021-09-11_14h38.39.720,arrow_simon_vert,2021.1.2,MacIntel,61.1995104,,,,,,,,,,,left,2.557,44,0,44,0,1,,,,,,,,,,,,,,,,,,,,,
,,,,,,,,,,,,,,,,,,,,,,,,,5c03448ca33dc3000159e4ba,2021-09-11_14h38.39.720,arrow_simon_vert,2021.1.2,MacIntel,61.1995104,,,,,,,,,,,down,2.534,45,0,45,0,1,,,,,,,,,,,,,,,,,,,,,
,,,,,,,,,,,,,,,,,,,,,,,,,5c03448ca33dc3000159e4ba,2021-09-11_14h38.39.720,arrow_simon_vert,2021.1.2,MacIntel,61.1995104,,,,,,,,,,,right,2.655,46,0,46,0,1,,,,,,,,,,,,,,,,,,,,,
,,,,,,,,,,,,,,,,,,,,,,,,,5c03448ca33dc3000159e4ba,2021-09-11_14h38.39.720,arrow_simon_vert,2021.1.2,MacIntel,61.1995104,,,,,,,,,,,up,2.408,47,0,47,0,1,,,,,,,,,,,,,,,,,,,,,
,,,,,,,,,,,,,,,,,,,,,,,,,5c03448ca33dc3000159e4ba,2021-09-11_14h38.39.720,arrow_simon_vert,2021.1.2,MacIntel,61.1995104,,,,,,,,,,,right,2.418,48,0,48,0,1,,,,,,,,,,,,,,,,,,,,,
,,,,,,,,,,,,,,,,,,,,,,,,,5c03448ca33dc3000159e4ba,2021-09-11_14h38.39.720,arrow_simon_vert,2021.1.2,MacIntel,61.1995104,,,,,,,,,,,up,2.139,49,0,49,0,1,,,,,,,,,,,,,,,,,,,,,
,,,,,,,,,,,,,,,,,,,,,,,,,5c03448ca33dc3000159e4ba,2021-09-11_14h38.39.720,arrow_simon_vert,2021.1.2,MacIntel,61.1995104,,,,,,,,,,,right,2.309,50,0,50,0,1,,,,,,,,,,,,,,,,,,,,,
,,,,,,,,,,,,,,,,,,,,,,,,,5c03448ca33dc3000159e4ba,2021-09-11_14h38.39.720,arrow_simon_vert,2021.1.2,MacIntel,61.1995104,,,,,,,,,,,down,2.633,51,0,51,0,1,,,,,,,,,,,,,,,,,,,,,
,,,,,,,,,,,,,,,,,,,,,,,,,5c03448ca33dc3000159e4ba,2021-09-11_14h38.39.720,arrow_simon_vert,2021.1.2,MacIntel,61.1995104,,,,,,,,,,,right,1.983,52,0,52,0,1,,,,,,,,,,,,,,,,,,,,,
,,,,,,,,,,,,,,,,,,,,,,,,,5c03448ca33dc3000159e4ba,2021-09-11_14h38.39.720,arrow_simon_vert,2021.1.2,MacIntel,61.1995104,,,,,,,,,,,up,2.6,53,0,53,0,1,,,,,,,,,,,,,,,,,,,,,
,,,,,,,,,,,,,,,,,,,,,,,,,5c03448ca33dc3000159e4ba,2021-09-11_14h38.39.720,arrow_simon_vert,2021.1.2,MacIntel,61.1995104,,,,,,,,,,,right,2.241,54,0,54,0,1,,,,,,,,,,,,,,,,,,,,,
,,,,,,,,,,,,,,,,,,,,,,,,,5c03448ca33dc3000159e4ba,2021-09-11_14h38.39.720,arrow_simon_vert,2021.1.2,MacIntel,61.1995104,,,,,,,,,,,down,2.754,55,0,55,0,1,,,,,,,,,,,,,,,,,,,,,
,,,,,,,,,,,,,,,,,,,,,,,,,5c03448ca33dc3000159e4ba,2021-09-11_14h38.39.720,arrow_simon_vert,2021.1.2,MacIntel,61.1995104,,,,,,,,,,,right,2.678,56,0,56,0,1,,,,,,,,,,,,,,,,,,,,,
,,,,,,,,,,,,,,,,,,,,,,,,,5c03448ca33dc3000159e4ba,2021-09-11_14h38.39.720,arrow_simon_vert,2021.1.2,MacIntel,61.1995104,,,,,,,,,,,down,2.616,57,0,57,0,1,,,,,,,,,,,,,,,,,,,,,
,,,,,,,,,,,,,,,,,,,,,,,,,5c03448ca33dc3000159e4ba,2021-09-11_14h38.39.720,arrow_simon_vert,2021.1.2,MacIntel,61.1995104,,,,,,,,,,,left,2.182,58,0,58,0,1,,,,,,,,,,,,,,,,,,,,,
,,,,,,,,,,,,,,,,,,,,,,,,,5c03448ca33dc3000159e4ba,2021-09-11_14h38.39.720,arrow_simon_vert,2021.1.2,MacIntel,61.1995104,,,,,,,,,,,up,2.609,59,0,59,0,1,,,,,,,,,,,,,,,,,,,,,
,,,,,,0,1.928397483,#a3d0fb,"[""0.25"",""0""]",right_blue.png,right,,,,,,,,right,right_blue.png,up_orange.png,up,right,up,5c03448ca33dc3000159e4ba,2021-09-11_14h38.39.720,arrow_simon_vert,2021.1.2,MacIntel,61.1995104,,,,,,,,,,,,,,,,,,space,0,214.376,right,1,1.313,1,FALSE,TRUE,0,0,0,1,1,,,,,,,
,,,,,,0,2.307569839,#f3af84,"[""0"",""0.25""]",down_orange.png,down,,,,,,,,left,left_blue.png,down_orange.png,down,right,up,5c03448ca33dc3000159e4ba,2021-09-11_14h38.39.720,arrow_simon_vert,2021.1.2,MacIntel,61.1995104,,,,,,,,,,,,,,,,,,,,,down,1,1.788,2,TRUE,FALSE,0,1,1,3,1,,,,,,,
,,,,,,0,1.910632885,#a3d0fb,"[""-0.25"",""0""]",right_blue.png,right,,,,,,,,right,right_blue.png,up_orange.png,up,left,down,5c03448ca33dc3000159e4ba,2021-09-11_14h38.39.720,arrow_simon_vert,2021.1.2,MacIntel,61.1995104,,,,,,,,,,,,,,,,,,,,,left,0,1.226,3,FALSE,TRUE,0,2,2,0,1,,,,,,,
,,,,,,0,1.607787797,#f3af84,"[""0"",""-0.25""]",down_orange.png,down,,,,,,,,left,left_blue.png,down_orange.png,down,left,down,5c03448ca33dc3000159e4ba,2021-09-11_14h38.39.720,arrow_simon_vert,2021.1.2,MacIntel,61.1995104,,,,,,,,,,,,,,,,,,,,,down,1,0.967,4,FALSE,TRUE,0,3,3,2,1,,,,,,,
,,,,,,0,2.484465519,#a3d0fb,"[""-0.25"",""0""]",right_blue.png,right,,,,,,,,right,right_blue.png,up_orange.png,up,left,down,5c03448ca33dc3000159e4ba,2021-09-11_14h38.39.720,arrow_simon_vert,2021.1.2,MacIntel,61.1995104,,,,,,,,,,,,,,,,,,,,,right,1,1.768,5,TRUE,FALSE,1,0,4,0,1,,,,,,,
,,,,,,0,2.294037948,#f3af84,"[""0"",""-0.25""]",down_orange.png,down,,,,,,,,left,left_blue.png,down_orange.png,down,left,down,5c03448ca33dc3000159e4ba,2021-09-11_14h38.39.720,arrow_simon_vert,2021.1.2,MacIntel,61.1995104,,,,,,,,,,,,,,,,,,,,,up,0,1.206,6,FALSE,TRUE,1,1,5,2,1,,,,,,,
,,,,,,0,2.269801623,#a3d0fb,"[""-0.25"",""0""]",right_blue.png,right,,,,,,,,right,right_blue.png,up_orange.png,up,left,down,5c03448ca33dc3000159e4ba,2021-09-11_14h38.39.720,arrow_simon_vert,2021.1.2,MacIntel,61.1995104,,,,,,,,,,,,,,,,,,,,,right,1,1.603,7,TRUE,FALSE,1,2,6,0,1,,,,,,,
,,,,,,1,2.070410323,#f3af84,"[""0"",""-0.25""]",up_orange.png,up,,,,,,,,right,right_blue.png,up_orange.png,up,left,down,5c03448ca33dc3000159e4ba,2021-09-11_14h38.39.720,arrow_simon_vert,2021.1.2,MacIntel,61.1995104,,,,,,,,,,,,,,,,,,,,,down,0,1.401,8,FALSE,FALSE,1,3,7,0,1,,,,,,,
,,,,,,1,1.650754506,#a3d0fb,"[""0.25"",""0""]",right_blue.png,right,,,,,,,,right,right_blue.png,up_orange.png,up,right,up,5c03448ca33dc3000159e4ba,2021-09-11_14h38.39.720,arrow_simon_vert,2021.1.2,MacIntel,61.1995104,,,,,,,,,,,,,,,,,,,,,right,1,1.109,9,FALSE,TRUE,2,0,8,1,1,,,,,,,
,,,,,,1,2.176355142,#f3af84,"[""0"",""0.25""]",down_orange.png,down,,,,,,,,left,left_blue.png,down_orange.png,down,right,up,5c03448ca33dc3000159e4ba,2021-09-11_14h38.39.720,arrow_simon_vert,2021.1.2,MacIntel,61.1995104,,,,,,,,,,,,,,,,,,,,,down,1,1.626,10,TRUE,FALSE,2,1,9,3,1,,,,,,,
,,,,,,1,1.890223761,#a3d0fb,"[""0.25"",""0""]",right_blue.png,right,,,,,,,,right,right_blue.png,up_orange.png,up,right,up,5c03448ca33dc3000159e4ba,2021-09-11_14h38.39.720,arrow_simon_vert,2021.1.2,MacIntel,61.1995104,,,,,,,,,,,,,,,,,,,,,right,1,1.361,11,FALSE,TRUE,2,2,10,1,1,,,,,,,
,,,,,,0,1.892135347,#f3af84,"[""0"",""-0.25""]",down_orange.png,down,,,,,,,,left,left_blue.png,down_orange.png,down,left,down,5c03448ca33dc3000159e4ba,2021-09-11_14h38.39.720,arrow_simon_vert,2021.1.2,MacIntel,61.1995104,,,,,,,,,,,,,,,,,,,,,down,1,1.452,12,FALSE,FALSE,2,3,11,2,1,,,,,,,
,,,,,,1,2.315630399,#a3d0fb,"[""-0.25"",""0""]",right_blue.png,right,,,,,,,,right,right_blue.png,up_orange.png,up,left,down,5c03448ca33dc3000159e4ba,2021-09-11_14h38.39.720,arrow_simon_vert,2021.1.2,MacIntel,61.1995104,,,,,,,,,,,,,,,,,,,,,left,0,1.578,13,FALSE,FALSE,3,0,12,0,1,,,,,,,
,,,,,,1,1.627130124,#f3af84,"[""0"",""-0.25""]",down_orange.png,down,,,,,,,,left,left_blue.png,down_orange.png,down,left,down,5c03448ca33dc3000159e4ba,2021-09-11_14h38.39.720,arrow_simon_vert,2021.1.2,MacIntel,61.1995104,,,,,,,,,,,,,,,,,,,,,down,1,1.138,14,FALSE,TRUE,3,1,13,2,1,,,,,,,
,,,,,,0,2.153208475,#a3d0fb,"[""0.25"",""0""]",right_blue.png,right,,,,,,,,right,right_blue.png,up_orange.png,up,right,up,5c03448ca33dc3000159e4ba,2021-09-11_14h38.39.720,arrow_simon_vert,2021.1.2,MacIntel,61.1995104,,,,,,,,,,,,,,,,,,,,,right,1,1.484,15,FALSE,FALSE,3,2,14,1,1,,,,,,,
,,,,,,0,2.233401714,#f3af84,"[""0"",""0.25""]",up_orange.png,up,,,,,,,,right,right_blue.png,up_orange.png,up,right,up,5c03448ca33dc3000159e4ba,2021-09-11_14h38.39.720,arrow_simon_vert,2021.1.2,MacIntel,61.1995104,,,,,,,,,,,,,,,,,,,,,up,1,1.626,16,TRUE,FALSE,3,3,15,1,1,,,,,,,
,,,,,,1,2.184078019,#a3d0fb,"[""0.25"",""0""]",left_blue.png,left,,,,,,,,left,left_blue.png,down_orange.png,down,right,up,5c03448ca33dc3000159e4ba,2021-09-11_14h38.39.720,arrow_simon_vert,2021.1.2,MacIntel,61.1995104,,,,,,,,,,,,,,,,,,,,,right,0,1.525,17,FALSE,FALSE,4,0,16,3,1,,,,,,,
,,,,,,0,2.059257814,#f3af84,"[""0"",""0.25""]",up_orange.png,up,,,,,,,,right,right_blue.png,up_orange.png,up,right,up,5c03448ca33dc3000159e4ba,2021-09-11_14h38.39.720,arrow_simon_vert,2021.1.2,MacIntel,61.1995104,,,,,,,,,,,,,,,,,,,,,up,1,1.452,18,FALSE,FALSE,4,1,17,1,1,,,,,,,
,,,,,,0,1.685342907,#a3d0fb,"[""0.25"",""0""]",left_blue.png,left,,,,,,,,left,left_blue.png,down_orange.png,down,right,up,5c03448ca33dc3000159e4ba,2021-09-11_14h38.39.720,arrow_simon_vert,2021.1.2,MacIntel,61.1995104,,,,,,,,,,,,,,,,,,,,,right,0,1.147,19,FALSE,TRUE,4,2,18,3,1,,,,,,,
,,,,,,0,2.067553552,#f3af84,"[""0"",""-0.25""]",down_orange.png,down,,,,,,,,left,left_blue.png,down_orange.png,down,left,down,5c03448ca33dc3000159e4ba,2021-09-11_14h38.39.720,arrow_simon_vert,2021.1.2,MacIntel,61.1995104,,,,,,,,,,,,,,,,,,,,,down,1,1.473,20,FALSE,FALSE,4,3,19,2,1,,,,,,,
,,,,,,0,1.561415737,#a3d0fb,"[""-0.25"",""0""]",right_blue.png,right,,,,,,,,right,right_blue.png,up_orange.png,up,left,down,5c03448ca33dc3000159e4ba,2021-09-11_14h38.39.720,arrow_simon_vert,2021.1.2,MacIntel,61.1995104,,,,,,,,,,,,,,,,,,,,,right,1,1.136,21,FALSE,TRUE,5,0,20,0,1,,,,,,,
,,,,,,0,1.563971068,#f3af84,"[""0"",""-0.25""]",down_orange.png,down,,,,,,,,left,left_blue.png,down_orange.png,down,left,down,5c03448ca33dc3000159e4ba,2021-09-11_14h38.39.720,arrow_simon_vert,2021.1.2,MacIntel,61.1995104,,,,,,,,,,,,,,,,,,,,,down,1,1.69,22,TRUE,FALSE,5,1,21,2,1,,,,,,,
,,,,,,0,1.914637303,#a3d0fb,"[""-0.25"",""0""]",right_blue.png,right,,,,,,,,right,right_blue.png,up_orange.png,up,left,down,5c03448ca33dc3000159e4ba,2021-09-11_14h38.39.720,arrow_simon_vert,2021.1.2,MacIntel,61.1995104,,,,,,,,,,,,,,,,,,,,,right,1,1.396,23,FALSE,TRUE,5,2,22,0,1,,,,,,,
,,,,,,0,2.061024387,#f3af84,"[""0"",""0.25""]",down_orange.png,down,,,,,,,,left,left_blue.png,down_orange.png,down,right,up,5c03448ca33dc3000159e4ba,2021-09-11_14h38.39.720,arrow_simon_vert,2021.1.2,MacIntel,61.1995104,,,,,,,,,,,,,,,,,,,,,down,1,1.679,24,TRUE,FALSE,5,3,23,3,1,,,,,,,
,,,,,,0,1.896735195,#a3d0fb,"[""0.25"",""0""]",right_blue.png,right,,,,,,,,right,right_blue.png,up_orange.png,up,right,up,5c03448ca33dc3000159e4ba,2021-09-11_14h38.39.720,arrow_simon_vert,2021.1.2,MacIntel,61.1995104,,,,,,,,,,,,,,,,,,,,,right,1,1.257,25,FALSE,TRUE,6,0,24,1,1,,,,,,,
,,,,,,0,2.103321292,#f3af84,"[""0"",""0.25""]",down_orange.png,down,,,,,,,,left,left_blue.png,down_orange.png,down,right,up,5c03448ca33dc3000159e4ba,2021-09-11_14h38.39.720,arrow_simon_vert,2021.1.2,MacIntel,61.1995104,,,,,,,,,,,,,,,,,,,,,down,1,1.739,26,TRUE,FALSE,6,1,25,3,1,,,,,,,
,,,,,,0,1.805688176,#a3d0fb,"[""0.25"",""0""]",left_blue.png,left,,,,,,,,left,left_blue.png,down_orange.png,down,right,up,5c03448ca33dc3000159e4ba,2021-09-11_14h38.39.720,arrow_simon_vert,2021.1.2,MacIntel,61.1995104,,,,,,,,,,,,,,,,,,,,,left,1,1.242,27,FALSE,TRUE,6,2,26,3,1,,,,,,,
,,,,,,0,2.442387473,#f3af84,"[""0"",""0.25""]",up_orange.png,up,,,,,,,,right,right_blue.png,up_orange.png,up,right,up,5c03448ca33dc3000159e4ba,2021-09-11_14h38.39.720,arrow_simon_vert,2021.1.2,MacIntel,61.1995104,,,,,,,,,,,,,,,,,,,,,down,0,1.757,28,TRUE,FALSE,6,3,27,1,1,,,,,,,
,,,,,,0,1.521742699,#a3d0fb,"[""-0.25"",""0""]",right_blue.png,right,,,,,,,,right,right_blue.png,up_orange.png,up,left,down,5c03448ca33dc3000159e4ba,2021-09-11_14h38.39.720,arrow_simon_vert,2021.1.2,MacIntel,61.1995104,,,,,,,,,,,,,,,,,,,,,right,1,1.455,29,FALSE,FALSE,7,0,28,0,1,,,,,,,
,,,,,,0,1.611507401,#f3af84,"[""0"",""0.25""]",down_orange.png,down,,,,,,,,left,left_blue.png,down_orange.png,down,right,up,5c03448ca33dc3000159e4ba,2021-09-11_14h38.39.720,arrow_simon_vert,2021.1.2,MacIntel,61.1995104,,,,,,,,,,,,,,,,,,,,,down,1,1.06,30,FALSE,TRUE,7,1,29,3,1,,,,,,,
,,,,,,0,1.582364581,#a3d0fb,"[""-0.25"",""0""]",left_blue.png,left,,,,,,,,left,left_blue.png,down_orange.png,down,left,down,5c03448ca33dc3000159e4ba,2021-09-11_14h38.39.720,arrow_simon_vert,2021.1.2,MacIntel,61.1995104,,,,,,,,,,,,,,,,,,,,,left,1,1.602,31,TRUE,FALSE,7,2,30,2,1,,,,,,,
,,,,,,0,1.958365482,#f3af84,"[""0"",""0.25""]",down_orange.png,down,,,,,,,,left,left_blue.png,down_orange.png,down,right,up,5c03448ca33dc3000159e4ba,2021-09-11_14h38.39.720,arrow_simon_vert,2021.1.2,MacIntel,61.1995104,,,,,,,,,,,,,,,,,,,,,down,1,1.677,32,TRUE,FALSE,7,3,31,3,1,,,,,,,
,,,,,,0,1.901519238,#a3d0fb,"[""0.25"",""0""]",right_blue.png,right,,,,,,,,right,right_blue.png,up_orange.png,up,right,up,5c03448ca33dc3000159e4ba,2021-09-11_14h38.39.720,arrow_simon_vert,2021.1.2,MacIntel,61.1995104,,,,,,,,,,,,,,,,,,,,,right,1,1.658,33,TRUE,FALSE,8,0,32,1,1,,,,,,,
,,,,,,0,1.96154526,#f3af84,"[""0"",""0.25""]",down_orange.png,down,,,,,,,,left,left_blue.png,down_orange.png,down,right,up,5c03448ca33dc3000159e4ba,2021-09-11_14h38.39.720,arrow_simon_vert,2021.1.2,MacIntel,61.1995104,,,,,,,,,,,,,,,,,,,,,down,1,1.67,34,TRUE,FALSE,8,1,33,3,1,,,,,,,
,,,,,,0,2.498718973,#a3d0fb,"[""-0.25"",""0""]",left_blue.png,left,,,,,,,,left,left_blue.png,down_orange.png,down,left,down,5c03448ca33dc3000159e4ba,2021-09-11_14h38.39.720,arrow_simon_vert,2021.1.2,MacIntel,61.1995104,,,,,,,,,,,,,,,,,,,,,left,1,2.012,35,TRUE,FALSE,8,2,34,2,1,,,,,,,
,,,,,,0,1.670582178,#f3af84,"[""0"",""0.25""]",up_orange.png,up,,,,,,,,right,right_blue.png,up_orange.png,up,right,up,5c03448ca33dc3000159e4ba,2021-09-11_14h38.39.720,arrow_simon_vert,2021.1.2,MacIntel,61.1995104,,,,,,,,,,,,,,,,,,,,,up,1,1.282,36,FALSE,TRUE,8,3,35,1,1,,,,,,,
,,,,,,0,1.624310926,#a3d0fb,"[""0.25"",""0""]",left_blue.png,left,,,,,,,,left,left_blue.png,down_orange.png,down,right,up,5c03448ca33dc3000159e4ba,2021-09-11_14h38.39.720,arrow_simon_vert,2021.1.2,MacIntel,61.1995104,,,,,,,,,,,,,,,,,,,,,left,1,1.219,37,FALSE,TRUE,9,0,36,3,1,,,,,,,
,,,,,,0,1.929723051,#f3af84,"[""0"",""-0.25""]",up_orange.png,up,,,,,,,,right,right_blue.png,up_orange.png,up,left,down,5c03448ca33dc3000159e4ba,2021-09-11_14h38.39.720,arrow_simon_vert,2021.1.2,MacIntel,61.1995104,,,,,,,,,,,,,,,,,,,,,up,1,1.709,38,TRUE,FALSE,9,1,37,0,1,,,,,,,
,,,,,,0,1.510176655,#a3d0fb,"[""0.25"",""0""]",right_blue.png,right,,,,,,,,right,right_blue.png,up_orange.png,up,right,up,5c03448ca33dc3000159e4ba,2021-09-11_14h38.39.720,arrow_simon_vert,2021.1.2,MacIntel,61.1995104,,,,,,,,,,,,,,,,,,,,,right,1,1.527,39,FALSE,FALSE,9,2,38,1,1,,,,,,,
,,,,,,0,2.099150096,#f3af84,"[""0"",""-0.25""]",down_orange.png,down,,,,,,,,left,left_blue.png,down_orange.png,down,left,down,5c03448ca33dc3000159e4ba,2021-09-11_14h38.39.720,arrow_simon_vert,2021.1.2,MacIntel,61.1995104,,,,,,,,,,,,,,,,,,,,,down,1,1.52,40,FALSE,FALSE,9,3,39,2,1,,,,,,,
,,,,,,0,1.526787713,#a3d0fb,"[""-0.25"",""0""]",right_blue.png,right,,,,,,,,right,right_blue.png,up_orange.png,up,left,down,5c03448ca33dc3000159e4ba,2021-09-11_14h38.39.720,arrow_simon_vert,2021.1.2,MacIntel,61.1995104,,,,,,,,,,,,,,,,,,,,,right,1,1.86,41,TRUE,FALSE,10,0,40,0,1,,,,,,,
,,,,,,0,2.357551678,#f3af84,"[""0"",""-0.25""]",up_orange.png,up,,,,,,,,right,right_blue.png,up_orange.png,up,left,down,5c03448ca33dc3000159e4ba,2021-09-11_14h38.39.720,arrow_simon_vert,2021.1.2,MacIntel,61.1995104,,,,,,,,,,,,,,,,,,,,,down,0,1.759,42,TRUE,FALSE,10,1,41,0,1,,,,,,,
,,,,,,0,2.167158508,#a3d0fb,"[""0.25"",""0""]",right_blue.png,right,,,,,,,,right,right_blue.png,up_orange.png,up,right,up,5c03448ca33dc3000159e4ba,2021-09-11_14h38.39.720,arrow_simon_vert,2021.1.2,MacIntel,61.1995104,,,,,,,,,,,,,,,,,,,,,right,1,1.763,43,TRUE,FALSE,10,2,42,1,1,,,,,,,
,,,,,,0,2.270907757,#f3af84,"[""0"",""0.25""]",up_orange.png,up,,,,,,,,right,right_blue.png,up_orange.png,up,right,up,5c03448ca33dc3000159e4ba,2021-09-11_14h38.39.720,arrow_simon_vert,2021.1.2,MacIntel,61.1995104,,,,,,,,,,,,,,,,,,,,,up,1,1.64,44,TRUE,FALSE,10,3,43,1,1,,,,,,,
,,,,,,0,2.234880475,#a3d0fb,"[""0.25"",""0""]",right_blue.png,right,,,,,,,,right,right_blue.png,up_orange.png,up,right,up,5c03448ca33dc3000159e4ba,2021-09-11_14h38.39.720,arrow_simon_vert,2021.1.2,MacIntel,61.1995104,,,,,,,,,,,,,,,,,,,,,right,1,1.626,45,TRUE,FALSE,11,0,44,1,1,,,,,,,
,,,,,,0,2.065850465,#f3af84,"[""0"",""-0.25""]",up_orange.png,up,,,,,,,,right,right_blue.png,up_orange.png,up,left,down,5c03448ca33dc3000159e4ba,2021-09-11_14h38.39.720,arrow_simon_vert,2021.1.2,MacIntel,61.1995104,,,,,,,,,,,,,,,,,,,,,up,1,1.717,46,TRUE,FALSE,11,1,45,0,1,,,,,,,
,,,,,,0,2.462611912,#a3d0fb,"[""-0.25"",""0""]",right_blue.png,right,,,,,,,,right,right_blue.png,up_orange.png,up,left,down,5c03448ca33dc3000159e4ba,2021-09-11_14h38.39.720,arrow_simon_vert,2021.1.2,MacIntel,61.1995104,,,,,,,,,,,,,,,,,,,,,right,1,1.954,47,TRUE,FALSE,11,2,46,0,1,,,,,,,
,,,,,,0,1.61249229,#f3af84,"[""0"",""-0.25""]",down_orange.png,down,,,,,,,,left,left_blue.png,down_orange.png,down,left,down,5c03448ca33dc3000159e4ba,2021-09-11_14h38.39.720,arrow_simon_vert,2021.1.2,MacIntel,61.1995104,,,,,,,,,,,,,,,,,,,,,down,1,1.22,48,FALSE,TRUE,11,3,47,2,1,,,,,,,
,,,,,,0,2.08599144,#a3d0fb,"[""-0.25"",""0""]",left_blue.png,left,,,,,,,,left,left_blue.png,down_orange.png,down,left,down,5c03448ca33dc3000159e4ba,2021-09-11_14h38.39.720,arrow_simon_vert,2021.1.2,MacIntel,61.1995104,,,,,,,,,,,,,,,,,,,,,left,1,1.539,49,FALSE,FALSE,12,0,48,2,1,,,,,,,
,,,,,,0,1.900249839,#f3af84,"[""0"",""-0.25""]",up_orange.png,up,,,,,,,,right,right_blue.png,up_orange.png,up,left,down,5c03448ca33dc3000159e4ba,2021-09-11_14h38.39.720,arrow_simon_vert,2021.1.2,MacIntel,61.1995104,,,,,,,,,,,,,,,,,,,,,up,1,1.718,50,TRUE,FALSE,12,1,49,0,1,,,,,,,
,,,,,,0,2.17542869,#a3d0fb,"[""-0.25"",""0""]",left_blue.png,left,,,,,,,,left,left_blue.png,down_orange.png,down,left,down,5c03448ca33dc3000159e4ba,2021-09-11_14h38.39.720,arrow_simon_vert,2021.1.2,MacIntel,61.1995104,,,,,,,,,,,,,,,,,,,,,left,1,1.596,51,FALSE,FALSE,12,2,50,2,1,,,,,,,
,,,,,,0,2.195794036,#f3af84,"[""0"",""-0.25""]",down_orange.png,down,,,,,,,,left,left_blue.png,down_orange.png,down,left,down,5c03448ca33dc3000159e4ba,2021-09-11_14h38.39.720,arrow_simon_vert,2021.1.2,MacIntel,61.1995104,,,,,,,,,,,,,,,,,,,,,down,1,1.591,52,FALSE,FALSE,12,3,51,2,1,,,,,,,
,,,,,,0,2.447277027,#a3d0fb,"[""0.25"",""0""]",right_blue.png,right,,,,,,,,right,right_blue.png,up_orange.png,up,right,up,5c03448ca33dc3000159e4ba,2021-09-11_14h38.39.720,arrow_simon_vert,2021.1.2,MacIntel,61.1995104,,,,,,,,,,,,,,,,,,,,,right,1,5.66,53,TRUE,FALSE,13,0,52,1,1,,,,,,,
,,,,,,0,2.134688426,#f3af84,"[""0"",""0.25""]",down_orange.png,down,,,,,,,,left,left_blue.png,down_orange.png,down,right,up,5c03448ca33dc3000159e4ba,2021-09-11_14h38.39.720,arrow_simon_vert,2021.1.2,MacIntel,61.1995104,,,,,,,,,,,,,,,,,,,,,down,1,1.568,54,FALSE,FALSE,13,1,53,3,1,,,,,,,
,,,,,,0,1.762111718,#a3d0fb,"[""0.25"",""0""]",left_blue.png,left,,,,,,,,left,left_blue.png,down_orange.png,down,right,up,5c03448ca33dc3000159e4ba,2021-09-11_14h38.39.720,arrow_simon_vert,2021.1.2,MacIntel,61.1995104,,,,,,,,,,,,,,,,,,,,,left,1,1.713,55,TRUE,FALSE,13,2,54,3,1,,,,,,,
,,,,,,0,2.434643656,#f3af84,"[""0"",""-0.25""]",up_orange.png,up,,,,,,,,right,right_blue.png,up_orange.png,up,left,down,5c03448ca33dc3000159e4ba,2021-09-11_14h38.39.720,arrow_simon_vert,2021.1.2,MacIntel,61.1995104,,,,,,,,,,,,,,,,,,,,,up,1,1.952,56,TRUE,FALSE,13,3,55,0,1,,,,,,,
,,,,,,0,2.387448751,#a3d0fb,"[""-0.25"",""0""]",left_blue.png,left,,,,,,,,left,left_blue.png,down_orange.png,down,left,down,5c03448ca33dc3000159e4ba,2021-09-11_14h38.39.720,arrow_simon_vert,2021.1.2,MacIntel,61.1995104,,,,,,,,,,,,,,,,,,,,,left,1,1.961,57,TRUE,FALSE,14,0,56,2,1,,,,,,,
,,,,,,0,1.909400967,#f3af84,"[""0"",""0.25""]",down_orange.png,down,,,,,,,,left,left_blue.png,down_orange.png,down,right,up,5c03448ca33dc3000159e4ba,2021-09-11_14h38.39.720,arrow_simon_vert,2021.1.2,MacIntel,61.1995104,,,,,,,,,,,,,,,,,,,,,down,1,1.671,58,TRUE,FALSE,14,1,57,3,1,,,,,,,
,,,,,,0,2.23790709,#a3d0fb,"[""0.25"",""0""]",left_blue.png,left,,,,,,,,left,left_blue.png,down_orange.png,down,right,up,5c03448ca33dc3000159e4ba,2021-09-11_14h38.39.720,arrow_simon_vert,2021.1.2,MacIntel,61.1995104,,,,,,,,,,,,,,,,,,,,,left,1,1.871,59,TRUE,FALSE,14,2,58,3,1,,,,,,,
,,,,,,0,1.503798985,#f3af84,"[""0"",""-0.25""]",down_orange.png,down,,,,,,,,left,left_blue.png,down_orange.png,down,left,down,5c03448ca33dc3000159e4ba,2021-09-11_14h38.39.720,arrow_simon_vert,2021.1.2,MacIntel,61.1995104,,,,,,,,,,,,,,,,,,,,,down,1,1.651,60,TRUE,FALSE,14,3,59,2,1,,,,,,,
,,,,,,,,,,,,,,,,,,,,,,,,,5c03448ca33dc3000159e4ba,2021-09-11_14h38.39.720,arrow_simon_vert,2021.1.2,MacIntel,61.1995104,,,,,,,,,,,,,,,,,,,,,,,,,,,,,,,,space,133.293,0,0,0,0,1
,,,,,,0,1.682386978,#a3d0fb,"[""-0.25"",""0""]",left_blue.png,left,,,,,,,,left,left_blue.png,down_orange.png,down,left,down,5c03448ca33dc3000159e4ba,2021-09-11_14h38.39.720,arrow_simon_vert,2021.1.2,MacIntel,61.1995104,,,,,,,,,,,,,,,,,,,,,left,1,1.126,1,FALSE,TRUE,0,0,0,2,1,,,,,,,
,,,,,,0,1.758603844,#f3af84,"[""0"",""-0.25""]",up_orange.png,up,,,,,,,,right,right_blue.png,up_orange.png,up,left,down,5c03448ca33dc3000159e4ba,2021-09-11_14h38.39.720,arrow_simon_vert,2021.1.2,MacIntel,61.1995104,,,,,,,,,,,,,,,,,,,,,down,0,1.293,2,FALSE,TRUE,0,1,1,0,1,,,,,,,
,,,,,,0,2.287783847,#a3d0fb,"[""0.25"",""0""]",right_blue.png,right,,,,,,,,right,right_blue.png,up_orange.png,up,right,up,5c03448ca33dc3000159e4ba,2021-09-11_14h38.39.720,arrow_simon_vert,2021.1.2,MacIntel,61.1995104,,,,,,,,,,,,,,,,,,,,,right,1,1.572,3,FALSE,FALSE,0,2,2,1,1,,,,,,,
,,,,,,0,2.157997016,#f3af84,"[""0"",""-0.25""]",down_orange.png,down,,,,,,,,left,left_blue.png,down_orange.png,down,left,down,5c03448ca33dc3000159e4ba,2021-09-11_14h38.39.720,arrow_simon_vert,2021.1.2,MacIntel,61.1995104,,,,,,,,,,,,,,,,,,,,,down,1,1.474,4,FALSE,FALSE,0,3,3,2,1,,,,,,,
,,,,,,0,1.503095966,#a3d0fb,"[""-0.25"",""0""]",right_blue.png,right,,,,,,,,right,right_blue.png,up_orange.png,up,left,down,5c03448ca33dc3000159e4ba,2021-09-11_14h38.39.720,arrow_simon_vert,2021.1.2,MacIntel,61.1995104,,,,,,,,,,,,,,,,,,,,,right,1,1.151,5,FALSE,TRUE,1,0,4,0,1,,,,,,,
,,,,,,1,2.112263753,#f3af84,"[""0"",""-0.25""]",up_orange.png,up,,,,,,,,right,right_blue.png,up_orange.png,up,left,down,5c03448ca33dc3000159e4ba,2021-09-11_14h38.39.720,arrow_simon_vert,2021.1.2,MacIntel,61.1995104,,,,,,,,,,,,,,,,,,,,,down,0,1.465,6,FALSE,FALSE,1,1,5,0,1,,,,,,,
,,,,,,1,2.052288111,#a3d0fb,"[""0.25"",""0""]",left_blue.png,left,,,,,,,,left,left_blue.png,down_orange.png,down,right,up,5c03448ca33dc3000159e4ba,2021-09-11_14h38.39.720,arrow_simon_vert,2021.1.2,MacIntel,61.1995104,,,,,,,,,,,,,,,,,,,,,left,1,1.717,7,TRUE,FALSE,1,2,6,3,1,,,,,,,
,,,,,,0,2.062735328,#f3af84,"[""0"",""0.25""]",up_orange.png,up,,,,,,,,right,right_blue.png,up_orange.png,up,right,up,5c03448ca33dc3000159e4ba,2021-09-11_14h38.39.720,arrow_simon_vert,2021.1.2,MacIntel,61.1995104,,,,,,,,,,,,,,,,,,,,,up,1,1.41,8,FALSE,FALSE,1,3,7,1,1,,,,,,,
,,,,,,0,2.347912286,#a3d0fb,"[""-0.25"",""0""]",left_blue.png,left,,,,,,,,left,left_blue.png,down_orange.png,down,left,down,5c03448ca33dc3000159e4ba,2021-09-11_14h38.39.720,arrow_simon_vert,2021.1.2,MacIntel,61.1995104,,,,,,,,,,,,,,,,,,,,,left,1,1.72,9,TRUE,FALSE,2,0,8,2,1,,,,,,,
,,,,,,0,1.989133147,#f3af84,"[""0"",""0.25""]",down_orange.png,down,,,,,,,,left,left_blue.png,down_orange.png,down,right,up,5c03448ca33dc3000159e4ba,2021-09-11_14h38.39.720,arrow_simon_vert,2021.1.2,MacIntel,61.1995104,,,,,,,,,,,,,,,,,,,,,down,1,1.459,10,FALSE,FALSE,2,1,9,3,1,,,,,,,
,,,,,,0,2.159564971,#a3d0fb,"[""-0.25"",""0""]",right_blue.png,right,,,,,,,,right,right_blue.png,up_orange.png,up,left,down,5c03448ca33dc3000159e4ba,2021-09-11_14h38.39.720,arrow_simon_vert,2021.1.2,MacIntel,61.1995104,,,,,,,,,,,,,,,,,,,,,down,0,1.677,11,TRUE,FALSE,2,2,10,0,1,,,,,,,
,,,,,,0,2.344214816,#f3af84,"[""0"",""-0.25""]",down_orange.png,down,,,,,,,,left,left_blue.png,down_orange.png,down,left,down,5c03448ca33dc3000159e4ba,2021-09-11_14h38.39.720,arrow_simon_vert,2021.1.2,MacIntel,61.1995104,,,,,,,,,,,,,,,,,,,,,down,1,1.733,12,TRUE,FALSE,2,3,11,2,1,,,,,,,
,,,,,,0,2.402632307,#a3d0fb,"[""0.25"",""0""]",right_blue.png,right,,,,,,,,right,right_blue.png,up_orange.png,up,right,up,5c03448ca33dc3000159e4ba,2021-09-11_14h38.39.720,arrow_simon_vert,2021.1.2,MacIntel,61.1995104,,,,,,,,,,,,,,,,,,,,,right,1,1.757,13,TRUE,FALSE,3,0,12,1,1,,,,,,,
,,,,,,0,1.589648195,#f3af84,"[""0"",""-0.25""]",up_orange.png,up,,,,,,,,right,right_blue.png,up_orange.png,up,left,down,5c03448ca33dc3000159e4ba,2021-09-11_14h38.39.720,arrow_simon_vert,2021.1.2,MacIntel,61.1995104,,,,,,,,,,,,,,,,,,,,,up,1,1.654,14,TRUE,FALSE,3,1,13,0,1,,,,,,,
,,,,,,0,1.806026592,#a3d0fb,"[""0.25"",""0""]",left_blue.png,left,,,,,,,,left,left_blue.png,down_orange.png,down,right,up,5c03448ca33dc3000159e4ba,2021-09-11_14h38.39.720,arrow_simon_vert,2021.1.2,MacIntel,61.1995104,,,,,,,,,,,,,,,,,,,,,left,1,1.807,15,TRUE,FALSE,3,2,14,3,1,,,,,,,
,,,,,,0,2.417274568,#f3af84,"[""0"",""0.25""]",up_orange.png,up,,,,,,,,right,right_blue.png,up_orange.png,up,right,up,5c03448ca33dc3000159e4ba,2021-09-11_14h38.39.720,arrow_simon_vert,2021.1.2,MacIntel,61.1995104,,,,,,,,,,,,,,,,,,,,,up,1,1.935,16,TRUE,FALSE,3,3,15,1,1,,,,,,,
,,,,,,0,1.860901409,#a3d0fb,"[""-0.25"",""0""]",left_blue.png,left,,,,,,,,left,left_blue.png,down_orange.png,down,left,down,5c03448ca33dc3000159e4ba,2021-09-11_14h38.39.720,arrow_simon_vert,2021.1.2,MacIntel,61.1995104,,,,,,,,,,,,,,,,,,,,,left,1,1.412,17,FALSE,FALSE,4,0,16,2,1,,,,,,,
,,,,,,0,1.611284936,#f3af84,"[""0"",""0.25""]",up_orange.png,up,,,,,,,,right,right_blue.png,up_orange.png,up,right,up,5c03448ca33dc3000159e4ba,2021-09-11_14h38.39.720,arrow_simon_vert,2021.1.2,MacIntel,61.1995104,,,,,,,,,,,,,,,,,,,,,up,1,0.997,18,FALSE,TRUE,4,1,17,1,1,,,,,,,
,,,,,,0,1.886031106,#a3d0fb,"[""-0.25"",""0""]",right_blue.png,right,,,,,,,,right,right_blue.png,up_orange.png,up,left,down,5c03448ca33dc3000159e4ba,2021-09-11_14h38.39.720,arrow_simon_vert,2021.1.2,MacIntel,61.1995104,,,,,,,,,,,,,,,,,,,,,right,1,1.468,19,FALSE,FALSE,4,2,18,0,1,,,,,,,
,,,,,,0,1.795317969,#f3af84,"[""0"",""-0.25""]",down_orange.png,down,,,,,,,,left,left_blue.png,down_orange.png,down,left,down,5c03448ca33dc3000159e4ba,2021-09-11_14h38.39.720,arrow_simon_vert,2021.1.2,MacIntel,61.1995104,,,,,,,,,,,,,,,,,,,,,down,1,1.318,20,FALSE,TRUE,4,3,19,2,1,,,,,,,
,,,,,,0,1.604092639,#a3d0fb,"[""0.25"",""0""]",right_blue.png,right,,,,,,,,right,right_blue.png,up_orange.png,up,right,up,5c03448ca33dc3000159e4ba,2021-09-11_14h38.39.720,arrow_simon_vert,2021.1.2,MacIntel,61.1995104,,,,,,,,,,,,,,,,,,,,,right,1,1.687,21,TRUE,FALSE,5,0,20,1,1,,,,,,,
,,,,,,0,2.258333478,#f3af84,"[""0"",""-0.25""]",down_orange.png,down,,,,,,,,left,left_blue.png,down_orange.png,down,left,down,5c03448ca33dc3000159e4ba,2021-09-11_14h38.39.720,arrow_simon_vert,2021.1.2,MacIntel,61.1995104,,,,,,,,,,,,,,,,,,,,,down,1,1.634,22,TRUE,FALSE,5,1,21,2,1,,,,,,,
,,,,,,0,1.899687638,#a3d0fb,"[""-0.25"",""0""]",right_blue.png,right,,,,,,,,right,right_blue.png,up_orange.png,up,left,down,5c03448ca33dc3000159e4ba,2021-09-11_14h38.39.720,arrow_simon_vert,2021.1.2,MacIntel,61.1995104,,,,,,,,,,,,,,,,,,,,,right,1,1.702,23,TRUE,FALSE,5,2,22,0,1,,,,,,,
,,,,,,0,2.189388662,#f3af84,"[""0"",""-0.25""]",down_orange.png,down,,,,,,,,left,left_blue.png,down_orange.png,down,left,down,5c03448ca33dc3000159e4ba,2021-09-11_14h38.39.720,arrow_simon_vert,2021.1.2,MacIntel,61.1995104,,,,,,,,,,,,,,,,,,,,,down,1,1.518,24,FALSE,FALSE,5,3,23,2,1,,,,,,,
,,,,,,0,2.03314483,#a3d0fb,"[""-0.25"",""0""]",left_blue.png,left,,,,,,,,left,left_blue.png,down_orange.png,down,left,down,5c03448ca33dc3000159e4ba,2021-09-11_14h38.39.720,arrow_simon_vert,2021.1.2,MacIntel,61.1995104,,,,,,,,,,,,,,,,,,,,,left,1,1.677,25,TRUE,FALSE,6,0,24,2,1,,,,,,,
,,,,,,0,1.852890088,#f3af84,"[""0"",""0.25""]",down_orange.png,down,,,,,,,,left,left_blue.png,down_orange.png,down,right,up,5c03448ca33dc3000159e4ba,2021-09-11_14h38.39.720,arrow_simon_vert,2021.1.2,MacIntel,61.1995104,,,,,,,,,,,,,,,,,,,,,down,1,1.72,26,TRUE,FALSE,6,1,25,3,1,,,,,,,
,,,,,,0,2.266271787,#a3d0fb,"[""0.25"",""0""]",right_blue.png,right,,,,,,,,right,right_blue.png,up_orange.png,up,right,up,5c03448ca33dc3000159e4ba,2021-09-11_14h38.39.720,arrow_simon_vert,2021.1.2,MacIntel,61.1995104,,,,,,,,,,,,,,,,,,,,,right,1,1.906,27,TRUE,FALSE,6,2,26,1,1,,,,,,,
,,,,,,0,2.190181282,#f3af84,"[""0"",""-0.25""]",down_orange.png,down,,,,,,,,left,left_blue.png,down_orange.png,down,left,down,5c03448ca33dc3000159e4ba,2021-09-11_14h38.39.720,arrow_simon_vert,2021.1.2,MacIntel,61.1995104,,,,,,,,,,,,,,,,,,,,,down,1,1.741,28,TRUE,FALSE,6,3,27,2,1,,,,,,,
,,,,,,0,1.861802284,#a3d0fb,"[""-0.25"",""0""]",left_blue.png,left,,,,,,,,left,left_blue.png,down_orange.png,down,left,down,5c03448ca33dc3000159e4ba,2021-09-11_14h38.39.720,arrow_simon_vert,2021.1.2,MacIntel,61.1995104,,,,,,,,,,,,,,,,,,,,,left,1,1.569,29,FALSE,FALSE,7,0,28,2,1,,,,,,,
,,,,,,0,1.977909056,#f3af84,"[""0"",""0.25""]",down_orange.png,down,,,,,,,,left,left_blue.png,down_orange.png,down,right,up,5c03448ca33dc3000159e4ba,2021-09-11_14h38.39.720,arrow_simon_vert,2021.1.2,MacIntel,61.1995104,,,,,,,,,,,,,,,,,,,,,down,1,1.703,30,TRUE,FALSE,7,1,29,3,1,,,,,,,
,,,,,,0,2.094631703,#a3d0fb,"[""0.25"",""0""]",left_blue.png,left,,,,,,,,left,left_blue.png,down_orange.png,down,right,up,5c03448ca33dc3000159e4ba,2021-09-11_14h38.39.720,arrow_simon_vert,2021.1.2,MacIntel,61.1995104,,,,,,,,,,,,,,,,,,,,,left,1,1.731,31,TRUE,FALSE,7,2,30,3,1,,,,,,,
,,,,,,0,1.586046476,#f3af84,"[""0"",""-0.25""]",up_orange.png,up,,,,,,,,right,right_blue.png,up_orange.png,up,left,down,5c03448ca33dc3000159e4ba,2021-09-11_14h38.39.720,arrow_simon_vert,2021.1.2,MacIntel,61.1995104,,,,,,,,,,,,,,,,,,,,,up,1,1.174,32,FALSE,TRUE,7,3,31,0,1,,,,,,,
,,,,,,0,2.361811928,#a3d0fb,"[""-0.25"",""0""]",right_blue.png,right,,,,,,,,right,right_blue.png,up_orange.png,up,left,down,5c03448ca33dc3000159e4ba,2021-09-11_14h38.39.720,arrow_simon_vert,2021.1.2,MacIntel,61.1995104,,,,,,,,,,,,,,,,,,,,,right,1,1.791,33,TRUE,FALSE,8,0,32,0,1,,,,,,,
,,,,,,0,2.269832951,#f3af84,"[""0"",""0.25""]",down_orange.png,down,,,,,,,,left,left_blue.png,down_orange.png,down,right,up,5c03448ca33dc3000159e4ba,2021-09-11_14h38.39.720,arrow_simon_vert,2021.1.2,MacIntel,61.1995104,,,,,,,,,,,,,,,,,,,,,down,1,1.776,34,TRUE,FALSE,8,1,33,3,1,,,,,,,
,,,,,,0,2.15737525,#a3d0fb,"[""0.25"",""0""]",left_blue.png,left,,,,,,,,left,left_blue.png,down_orange.png,down,right,up,5c03448ca33dc3000159e4ba,2021-09-11_14h38.39.720,arrow_simon_vert,2021.1.2,MacIntel,61.1995104,,,,,,,,,,,,,,,,,,,,,left,1,1.611,35,TRUE,FALSE,8,2,34,3,1,,,,,,,
,,,,,,0,1.865578266,#f3af84,"[""0"",""0.25""]",up_orange.png,up,,,,,,,,right,right_blue.png,up_orange.png,up,right,up,5c03448ca33dc3000159e4ba,2021-09-11_14h38.39.720,arrow_simon_vert,2021.1.2,MacIntel,61.1995104,,,,,,,,,,,,,,,,,,,,,up,1,1.507,36,FALSE,FALSE,8,3,35,1,1,,,,,,,
,,,,,,0,2.435344642,#a3d0fb,"[""0.25"",""0""]",left_blue.png,left,,,,,,,,left,left_blue.png,down_orange.png,down,right,up,5c03448ca33dc3000159e4ba,2021-09-11_14h38.39.720,arrow_simon_vert,2021.1.2,MacIntel,61.1995104,,,,,,,,,,,,,,,,,,,,,left,1,1.969,37,TRUE,FALSE,9,0,36,3,1,,,,,,,
,,,,,,0,1.901823661,#f3af84,"[""0"",""0.25""]",down_orange.png,down,,,,,,,,left,left_blue.png,down_orange.png,down,right,up,5c03448ca33dc3000159e4ba,2021-09-11_14h38.39.720,arrow_simon_vert,2021.1.2,MacIntel,61.1995104,,,,,,,,,,,,,,,,,,,,,down,1,1.637,38,TRUE,FALSE,9,1,37,3,1,,,,,,,
,,,,,,0,2.308437867,#a3d0fb,"[""-0.25"",""0""]",left_blue.png,left,,,,,,,,left,left_blue.png,down_orange.png,down,left,down,5c03448ca33dc3000159e4ba,2021-09-11_14h38.39.720,arrow_simon_vert,2021.1.2,MacIntel,61.1995104,,,,,,,,,,,,,,,,,,,,,left,1,1.962,39,TRUE,FALSE,9,2,38,2,1,,,,,,,
,,,,,,0,1.548372821,#f3af84,"[""0"",""-0.25""]",up_orange.png,up,,,,,,,,right,right_blue.png,up_orange.png,up,left,down,5c03448ca33dc3000159e4ba,2021-09-11_14h38.39.720,arrow_simon_vert,2021.1.2,MacIntel,61.1995104,,,,,,,,,,,,,,,,,,,,,up,1,1.724,40,TRUE,FALSE,9,3,39,0,1,,,,,,,
,,,,,,0,1.702851762,#a3d0fb,"[""-0.25"",""0""]",right_blue.png,right,,,,,,,,right,right_blue.png,up_orange.png,up,left,down,5c03448ca33dc3000159e4ba,2021-09-11_14h38.39.720,arrow_simon_vert,2021.1.2,MacIntel,61.1995104,,,,,,,,,,,,,,,,,,,,,right,1,1.785,41,TRUE,FALSE,10,0,40,0,1,,,,,,,
,,,,,,0,1.513608831,#f3af84,"[""0"",""-0.25""]",up_orange.png,up,,,,,,,,right,right_blue.png,up_orange.png,up,left,down,5c03448ca33dc3000159e4ba,2021-09-11_14h38.39.720,arrow_simon_vert,2021.1.2,MacIntel,61.1995104,,,,,,,,,,,,,,,,,,,,,up,1,1.59,42,FALSE,FALSE,10,1,41,0,1,,,,,,,
,,,,,,0,1.809495096,#a3d0fb,"[""0.25"",""0""]",right_blue.png,right,,,,,,,,right,right_blue.png,up_orange.png,up,right,up,5c03448ca33dc3000159e4ba,2021-09-11_14h38.39.720,arrow_simon_vert,2021.1.2,MacIntel,61.1995104,,,,,,,,,,,,,,,,,,,,,right,1,1.693,43,TRUE,FALSE,10,2,42,1,1,,,,,,,
,,,,,,0,1.817819647,#f3af84,"[""0"",""0.25""]",up_orange.png,up,,,,,,,,right,right_blue.png,up_orange.png,up,right,up,5c03448ca33dc3000159e4ba,2021-09-11_14h38.39.720,arrow_simon_vert,2021.1.2,MacIntel,61.1995104,,,,,,,,,,,,,,,,,,,,,up,1,1.51,44,FALSE,FALSE,10,3,43,1,1,,,,,,,
,,,,,,0,1.552858057,#a3d0fb,"[""0.25"",""0""]",right_blue.png,right,,,,,,,,right,right_blue.png,up_orange.png,up,right,up,5c03448ca33dc3000159e4ba,2021-09-11_14h38.39.720,arrow_simon_vert,2021.1.2,MacIntel,61.1995104,,,,,,,,,,,,,,,,,,,,,right,1,1.59,45,FALSE,FALSE,11,0,44,1,1,,,,,,,
,,,,,,0,1.564918777,#f3af84,"[""0"",""-0.25""]",down_orange.png,down,,,,,,,,left,left_blue.png,down_orange.png,down,left,down,5c03448ca33dc3000159e4ba,2021-09-11_14h38.39.720,arrow_simon_vert,2021.1.2,MacIntel,61.1995104,,,,,,,,,,,,,,,,,,,,,down,1,1.734,46,TRUE,FALSE,11,1,45,2,1,,,,,,,
,,,,,,0,2.4145851,#a3d0fb,"[""0.25"",""0""]",left_blue.png,left,,,,,,,,left,left_blue.png,down_orange.png,down,right,up,5c03448ca33dc3000159e4ba,2021-09-11_14h38.39.720,arrow_simon_vert,2021.1.2,MacIntel,61.1995104,,,,,,,,,,,,,,,,,,,,,left,1,1.971,47,TRUE,FALSE,11,2,46,3,1,,,,,,,
,,,,,,0,1.737268005,#f3af84,"[""0"",""0.25""]",up_orange.png,up,,,,,,,,right,right_blue.png,up_orange.png,up,right,up,5c03448ca33dc3000159e4ba,2021-09-11_14h38.39.720,arrow_simon_vert,2021.1.2,MacIntel,61.1995104,,,,,,,,,,,,,,,,,,,,,up,1,1.732,48,TRUE,FALSE,11,3,47,1,1,,,,,,,
,,,,,,0,2.4280568,#a3d0fb,"[""0.25"",""0""]",right_blue.png,right,,,,,,,,right,right_blue.png,up_orange.png,up,right,up,5c03448ca33dc3000159e4ba,2021-09-11_14h38.39.720,arrow_simon_vert,2021.1.2,MacIntel,61.1995104,,,,,,,,,,,,,,,,,,,,,right,1,1.804,49,TRUE,FALSE,12,0,48,1,1,,,,,,,
,,,,,,0,2.384114813,#f3af84,"[""0"",""0.25""]",down_orange.png,down,,,,,,,,left,left_blue.png,down_orange.png,down,right,up,5c03448ca33dc3000159e4ba,2021-09-11_14h38.39.720,arrow_simon_vert,2021.1.2,MacIntel,61.1995104,,,,,,,,,,,,,,,,,,,,,down,1,1.995,50,TRUE,FALSE,12,1,49,3,1,,,,,,,
,,,,,,0,2.491069608,#a3d0fb,"[""0.25"",""0""]",left_blue.png,left,,,,,,,,left,left_blue.png,down_orange.png,down,right,up,5c03448ca33dc3000159e4ba,2021-09-11_14h38.39.720,arrow_simon_vert,2021.1.2,MacIntel,61.1995104,,,,,,,,,,,,,,,,,,,,,left,1,1.915,51,TRUE,FALSE,12,2,50,3,1,,,,,,,
,,,,,,0,2.122489272,#f3af84,"[""0"",""-0.25""]",up_orange.png,up,,,,,,,,right,right_blue.png,up_orange.png,up,left,down,5c03448ca33dc3000159e4ba,2021-09-11_14h38.39.720,arrow_simon_vert,2021.1.2,MacIntel,61.1995104,,,,,,,,,,,,,,,,,,,,,up,1,1.636,52,TRUE,FALSE,12,3,51,0,1,,,,,,,
,,,,,,0,1.814140877,#a3d0fb,"[""0.25"",""0""]",left_blue.png,left,,,,,,,,left,left_blue.png,down_orange.png,down,right,up,5c03448ca33dc3000159e4ba,2021-09-11_14h38.39.720,arrow_simon_vert,2021.1.2,MacIntel,61.1995104,,,,,,,,,,,,,,,,,,,,,left,1,1.423,53,FALSE,FALSE,13,0,52,3,1,,,,,,,
,,,,,,0,1.530569766,#f3af84,"[""0"",""-0.25""]",down_orange.png,down,,,,,,,,left,left_blue.png,down_orange.png,down,left,down,5c03448ca33dc3000159e4ba,2021-09-11_14h38.39.720,arrow_simon_vert,2021.1.2,MacIntel,61.1995104,,,,,,,,,,,,,,,,,,,,,down,1,1.39,54,FALSE,TRUE,13,1,53,2,1,,,,,,,
,,,,,,0,1.839432433,#a3d0fb,"[""0.25"",""0""]",right_blue.png,right,,,,,,,,right,right_blue.png,up_orange.png,up,right,up,5c03448ca33dc3000159e4ba,2021-09-11_14h38.39.720,arrow_simon_vert,2021.1.2,MacIntel,61.1995104,,,,,,,,,,,,,,,,,,,,,right,1,1.593,55,FALSE,FALSE,13,2,54,1,1,,,,,,,
,,,,,,0,2.149351579,#f3af84,"[""0"",""0.25""]",up_orange.png,up,,,,,,,,right,right_blue.png,up_orange.png,up,right,up,5c03448ca33dc3000159e4ba,2021-09-11_14h38.39.720,arrow_simon_vert,2021.1.2,MacIntel,61.1995104,,,,,,,,,,,,,,,,,,,,,down,0,1.701,56,TRUE,FALSE,13,3,55,1,1,,,,,,,
,,,,,,0,2.308982122,#a3d0fb,"[""-0.25"",""0""]",right_blue.png,right,,,,,,,,right,right_blue.png,up_orange.png,up,left,down,5c03448ca33dc3000159e4ba,2021-09-11_14h38.39.720,arrow_simon_vert,2021.1.2,MacIntel,61.1995104,,,,,,,,,,,,,,,,,,,,,right,1,2.11,57,TRUE,FALSE,14,0,56,0,1,,,,,,,
,,,,,,0,1.877552534,#f3af84,"[""0"",""0.25""]",down_orange.png,down,,,,,,,,left,left_blue.png,down_orange.png,down,right,up,5c03448ca33dc3000159e4ba,2021-09-11_14h38.39.720,arrow_simon_vert,2021.1.2,MacIntel,61.1995104,,,,,,,,,,,,,,,,,,,,,down,1,1.667,58,TRUE,FALSE,14,1,57,3,1,,,,,,,
,,,,,,0,1.537492287,#a3d0fb,"[""-0.25"",""0""]",right_blue.png,right,,,,,,,,right,right_blue.png,up_orange.png,up,left,down,5c03448ca33dc3000159e4ba,2021-09-11_14h38.39.720,arrow_simon_vert,2021.1.2,MacIntel,61.1995104,,,,,,,,,,,,,,,,,,,,,right,1,1.32,59,FALSE,TRUE,14,2,58,0,1,,,,,,,
,,,,,,0,2.467498889,#f3af84,"[""0"",""-0.25""]",down_orange.png,down,,,,,,,,left,left_blue.png,down_orange.png,down,left,down,5c03448ca33dc3000159e4ba,2021-09-11_14h38.39.720,arrow_simon_vert,2021.1.2,MacIntel,61.1995104,,,,,,,,,,,,,,,,,,,,,down,1,1.832,60,TRUE,FALSE,14,3,59,2,1,,,,,,,
,,,,,,,,,,,,,,,,,,,,,,,,,5c03448ca33dc3000159e4ba,2021-09-11_14h38.39.720,arrow_simon_vert,2021.1.2,MacIntel,61.1995104,,,,,,,,,,,,,,,,,,,,,,,,,,,,,,,,space,110.826,1,0,1,0,1
,,,,,,0,2.302915486,#a3d0fb,"[""-0.25"",""0""]",right_blue.png,right,,,,,,,,right,right_blue.png,up_orange.png,up,left,down,5c03448ca33dc3000159e4ba,2021-09-11_14h38.39.720,arrow_simon_vert,2021.1.2,MacIntel,61.1995104,,,,,,,,,,,,,,,,,,,,,right,1,1.669,1,TRUE,FALSE,0,0,0,0,1,,,,,,,
,,,,,,0,2.244269853,#f3af84,"[""0"",""0.25""]",up_orange.png,up,,,,,,,,right,right_blue.png,up_orange.png,up,right,up,5c03448ca33dc3000159e4ba,2021-09-11_14h38.39.720,arrow_simon_vert,2021.1.2,MacIntel,61.1995104,,,,,,,,,,,,,,,,,,,,,left,0,1.68,2,TRUE,FALSE,0,1,1,1,1,,,,,,,
,,,,,,0,1.669586746,#a3d0fb,"[""-0.25"",""0""]",right_blue.png,right,,,,,,,,right,right_blue.png,up_orange.png,up,left,down,5c03448ca33dc3000159e4ba,2021-09-11_14h38.39.720,arrow_simon_vert,2021.1.2,MacIntel,61.1995104,,,,,,,,,,,,,,,,,,,,,right,1,1.176,3,FALSE,TRUE,0,2,2,0,1,,,,,,,
,,,,,,0,1.804733974,#f3af84,"[""0"",""-0.25""]",down_orange.png,down,,,,,,,,left,left_blue.png,down_orange.png,down,left,down,5c03448ca33dc3000159e4ba,2021-09-11_14h38.39.720,arrow_simon_vert,2021.1.2,MacIntel,61.1995104,,,,,,,,,,,,,,,,,,,,,down,1,1.227,4,FALSE,TRUE,0,3,3,2,1,,,,,,,
,,,,,,0,2.344134951,#a3d0fb,"[""0.25"",""0""]",right_blue.png,right,,,,,,,,right,right_blue.png,up_orange.png,up,right,up,5c03448ca33dc3000159e4ba,2021-09-11_14h38.39.720,arrow_simon_vert,2021.1.2,MacIntel,61.1995104,,,,,,,,,,,,,,,,,,,,,right,1,1.678,5,TRUE,FALSE,1,0,4,1,1,,,,,,,
,,,,,,0,2.068170674,#f3af84,"[""0"",""0.25""]",down_orange.png,down,,,,,,,,left,left_blue.png,down_orange.png,down,right,up,5c03448ca33dc3000159e4ba,2021-09-11_14h38.39.720,arrow_simon_vert,2021.1.2,MacIntel,61.1995104,,,,,,,,,,,,,,,,,,,,,down,1,1.621,6,TRUE,FALSE,1,1,5,3,1,,,,,,,
,,,,,,0,2.281856948,#a3d0fb,"[""0.25"",""0""]",right_blue.png,right,,,,,,,,right,right_blue.png,up_orange.png,up,right,up,5c03448ca33dc3000159e4ba,2021-09-11_14h38.39.720,arrow_simon_vert,2021.1.2,MacIntel,61.1995104,,,,,,,,,,,,,,,,,,,,,right,1,1.676,7,TRUE,FALSE,1,2,6,1,1,,,,,,,
,,,,,,0,1.570711195,#f3af84,"[""0"",""0.25""]",up_orange.png,up,,,,,,,,right,right_blue.png,up_orange.png,up,right,up,5c03448ca33dc3000159e4ba,2021-09-11_14h38.39.720,arrow_simon_vert,2021.1.2,MacIntel,61.1995104,,,,,,,,,,,,,,,,,,,,,down,0,1.189,8,FALSE,TRUE,1,3,7,1,1,,,,,,,
,,,,,,0,2.241817516,#a3d0fb,"[""-0.25"",""0""]",left_blue.png,left,,,,,,,,left,left_blue.png,down_orange.png,down,left,down,5c03448ca33dc3000159e4ba,2021-09-11_14h38.39.720,arrow_simon_vert,2021.1.2,MacIntel,61.1995104,,,,,,,,,,,,,,,,,,,,,left,1,1.593,9,FALSE,FALSE,2,0,8,2,1,,,,,,,
,,,,,,0,1.62921577,#f3af84,"[""0"",""0.25""]",up_orange.png,up,,,,,,,,right,right_blue.png,up_orange.png,up,right,up,5c03448ca33dc3000159e4ba,2021-09-11_14h38.39.720,arrow_simon_vert,2021.1.2,MacIntel,61.1995104,,,,,,,,,,,,,,,,,,,,,up,1,1.117,10,FALSE,TRUE,2,1,9,1,1,,,,,,,
,,,,,,0,1.511795205,#a3d0fb,"[""0.25"",""0""]",left_blue.png,left,,,,,,,,left,left_blue.png,down_orange.png,down,right,up,5c03448ca33dc3000159e4ba,2021-09-11_14h38.39.720,arrow_simon_vert,2021.1.2,MacIntel,61.1995104,,,,,,,,,,,,,,,,,,,,,left,1,1.459,11,FALSE,FALSE,2,2,10,3,1,,,,,,,
,,,,,,0,1.752079425,#f3af84,"[""0"",""-0.25""]",up_orange.png,up,,,,,,,,right,right_blue.png,up_orange.png,up,left,down,5c03448ca33dc3000159e4ba,2021-09-11_14h38.39.720,arrow_simon_vert,2021.1.2,MacIntel,61.1995104,,,,,,,,,,,,,,,,,,,,,up,1,1.546,12,FALSE,FALSE,2,3,11,0,1,,,,,,,
,,,,,,0,2.248959982,#a3d0fb,"[""-0.25"",""0""]",left_blue.png,left,,,,,,,,left,left_blue.png,down_orange.png,down,left,down,5c03448ca33dc3000159e4ba,2021-09-11_14h38.39.720,arrow_simon_vert,2021.1.2,MacIntel,61.1995104,,,,,,,,,,,,,,,,,,,,,left,1,1.646,13,TRUE,FALSE,3,0,12,2,1,,,,,,,
,,,,,,0,1.704378057,#f3af84,"[""0"",""-0.25""]",up_orange.png,up,,,,,,,,right,right_blue.png,up_orange.png,up,left,down,5c03448ca33dc3000159e4ba,2021-09-11_14h38.39.720,arrow_simon_vert,2021.1.2,MacIntel,61.1995104,,,,,,,,,,,,,,,,,,,,,up,1,1.717,14,TRUE,FALSE,3,1,13,0,1,,,,,,,
,,,,,,0,2.293465782,#a3d0fb,"[""0.25"",""0""]",left_blue.png,left,,,,,,,,left,left_blue.png,down_orange.png,down,right,up,5c03448ca33dc3000159e4ba,2021-09-11_14h38.39.720,arrow_simon_vert,2021.1.2,MacIntel,61.1995104,,,,,,,,,,,,,,,,,,,,,left,1,1.948,15,TRUE,FALSE,3,2,14,3,1,,,,,,,
,,,,,,0,1.873473279,#f3af84,"[""0"",""-0.25""]",down_orange.png,down,,,,,,,,left,left_blue.png,down_orange.png,down,left,down,5c03448ca33dc3000159e4ba,2021-09-11_14h38.39.720,arrow_simon_vert,2021.1.2,MacIntel,61.1995104,,,,,,,,,,,,,,,,,,,,,down,1,1.539,16,FALSE,FALSE,3,3,15,2,1,,,,,,,
,,,,,,0,2.058873825,#a3d0fb,"[""-0.25"",""0""]",right_blue.png,right,,,,,,,,right,right_blue.png,up_orange.png,up,left,down,5c03448ca33dc3000159e4ba,2021-09-11_14h38.39.720,arrow_simon_vert,2021.1.2,MacIntel,61.1995104,,,,,,,,,,,,,,,,,,,,,right,1,1.873,17,TRUE,FALSE,4,0,16,0,1,,,,,,,
,,,,,,0,1.9427434,#f3af84,"[""0"",""0.25""]",up_orange.png,up,,,,,,,,right,right_blue.png,up_orange.png,up,right,up,5c03448ca33dc3000159e4ba,2021-09-11_14h38.39.720,arrow_simon_vert,2021.1.2,MacIntel,61.1995104,,,,,,,,,,,,,,,,,,,,,up,1,1.369,18,FALSE,TRUE,4,1,17,1,1,,,,,,,
,,,,,,0,1.950145658,#a3d0fb,"[""-0.25"",""0""]",left_blue.png,left,,,,,,,,left,left_blue.png,down_orange.png,down,left,down,5c03448ca33dc3000159e4ba,2021-09-11_14h38.39.720,arrow_simon_vert,2021.1.2,MacIntel,61.1995104,,,,,,,,,,,,,,,,,,,,,left,1,1.506,19,FALSE,FALSE,4,2,18,2,1,,,,,,,
,,,,,,0,2.018900018,#f3af84,"[""0"",""0.25""]",down_orange.png,down,,,,,,,,left,left_blue.png,down_orange.png,down,right,up,5c03448ca33dc3000159e4ba,2021-09-11_14h38.39.720,arrow_simon_vert,2021.1.2,MacIntel,61.1995104,,,,,,,,,,,,,,,,,,,,,down,1,1.687,20,TRUE,FALSE,4,3,19,3,1,,,,,,,
,,,,,,0,1.917763201,#a3d0fb,"[""0.25"",""0""]",right_blue.png,right,,,,,,,,right,right_blue.png,up_orange.png,up,right,up,5c03448ca33dc3000159e4ba,2021-09-11_14h38.39.720,arrow_simon_vert,2021.1.2,MacIntel,61.1995104,,,,,,,,,,,,,,,,,,,,,right,1,1.586,21,FALSE,FALSE,5,0,20,1,1,,,,,,,
,,,,,,0,2.041159145,#f3af84,"[""0"",""0.25""]",down_orange.png,down,,,,,,,,left,left_blue.png,down_orange.png,down,right,up,5c03448ca33dc3000159e4ba,2021-09-11_14h38.39.720,arrow_simon_vert,2021.1.2,MacIntel,61.1995104,,,,,,,,,,,,,,,,,,,,,down,1,1.628,22,TRUE,FALSE,5,1,21,3,1,,,,,,,
,,,,,,0,1.905595328,#a3d0fb,"[""0.25"",""0""]",right_blue.png,right,,,,,,,,right,right_blue.png,up_orange.png,up,right,up,5c03448ca33dc3000159e4ba,2021-09-11_14h38.39.720,arrow_simon_vert,2021.1.2,MacIntel,61.1995104,,,,,,,,,,,,,,,,,,,,,right,1,1.655,23,TRUE,FALSE,5,2,22,1,1,,,,,,,
,,,,,,0,2.328676346,#f3af84,"[""0"",""-0.25""]",down_orange.png,down,,,,,,,,left,left_blue.png,down_orange.png,down,left,down,5c03448ca33dc3000159e4ba,2021-09-11_14h38.39.720,arrow_simon_vert,2021.1.2,MacIntel,61.1995104,,,,,,,,,,,,,,,,,,,,,down,1,1.668,24,TRUE,FALSE,5,3,23,2,1,,,,,,,
,,,,,,0,1.757986074,#a3d0fb,"[""0.25"",""0""]",left_blue.png,left,,,,,,,,left,left_blue.png,down_orange.png,down,right,up,5c03448ca33dc3000159e4ba,2021-09-11_14h38.39.720,arrow_simon_vert,2021.1.2,MacIntel,61.1995104,,,,,,,,,,,,,,,,,,,,,left,1,1.344,25,FALSE,TRUE,6,0,24,3,1,,,,,,,
,,,,,,0,1.850152908,#f3af84,"[""0"",""-0.25""]",down_orange.png,down,,,,,,,,left,left_blue.png,down_orange.png,down,left,down,5c03448ca33dc3000159e4ba,2021-09-11_14h38.39.720,arrow_simon_vert,2021.1.2,MacIntel,61.1995104,,,,,,,,,,,,,,,,,,,,,down,1,1.563,26,FALSE,FALSE,6,1,25,2,1,,,,,,,
,,,,,,0,2.130148143,#a3d0fb,"[""0.25"",""0""]",left_blue.png,left,,,,,,,,left,left_blue.png,down_orange.png,down,right,up,5c03448ca33dc3000159e4ba,2021-09-11_14h38.39.720,arrow_simon_vert,2021.1.2,MacIntel,61.1995104,,,,,,,,,,,,,,,,,,,,,left,1,1.596,27,FALSE,FALSE,6,2,26,3,1,,,,,,,
,,,,,,0,1.569811852,#f3af84,"[""0"",""-0.25""]",down_orange.png,down,,,,,,,,left,left_blue.png,down_orange.png,down,left,down,5c03448ca33dc3000159e4ba,2021-09-11_14h38.39.720,arrow_simon_vert,2021.1.2,MacIntel,61.1995104,,,,,,,,,,,,,,,,,,,,,down,1,1.769,28,TRUE,FALSE,6,3,27,2,1,,,,,,,
,,,,,,0,2.397099774,#a3d0fb,"[""-0.25"",""0""]",right_blue.png,right,,,,,,,,right,right_blue.png,up_orange.png,up,left,down,5c03448ca33dc3000159e4ba,2021-09-11_14h38.39.720,arrow_simon_vert,2021.1.2,MacIntel,61.1995104,,,,,,,,,,,,,,,,,,,,,right,1,1.948,29,TRUE,FALSE,7,0,28,0,1,,,,,,,
,,,,,,1,2.108524174,#f3af84,"[""0"",""0.25""]",up_orange.png,up,,,,,,,,right,right_blue.png,up_orange.png,up,right,up,5c03448ca33dc3000159e4ba,2021-09-11_14h38.39.720,arrow_simon_vert,2021.1.2,MacIntel,61.1995104,,,,,,,,,,,,,,,,,,,,,down,0,1.478,30,FALSE,FALSE,7,1,29,1,1,,,,,,,
,,,,,,1,2.110517427,#a3d0fb,"[""0.25"",""0""]",left_blue.png,left,,,,,,,,left,left_blue.png,down_orange.png,down,right,up,5c03448ca33dc3000159e4ba,2021-09-11_14h38.39.720,arrow_simon_vert,2021.1.2,MacIntel,61.1995104,,,,,,,,,,,,,,,,,,,,,left,1,1.618,31,TRUE,FALSE,7,2,30,3,1,,,,,,,
,,,,,,0,1.805094981,#f3af84,"[""0"",""0.25""]",up_orange.png,up,,,,,,,,right,right_blue.png,up_orange.png,up,right,up,5c03448ca33dc3000159e4ba,2021-09-11_14h38.39.720,arrow_simon_vert,2021.1.2,MacIntel,61.1995104,,,,,,,,,,,,,,,,,,,,,up,1,1.584,32,FALSE,FALSE,7,3,31,1,1,,,,,,,
,,,,,,0,1.917351893,#a3d0fb,"[""0.25"",""0""]",right_blue.png,right,,,,,,,,right,right_blue.png,up_orange.png,up,right,up,5c03448ca33dc3000159e4ba,2021-09-11_14h38.39.720,arrow_simon_vert,2021.1.2,MacIntel,61.1995104,,,,,,,,,,,,,,,,,,,,,right,1,1.65,33,TRUE,FALSE,8,0,32,1,1,,,,,,,
,,,,,,0,1.79823189,#f3af84,"[""0"",""-0.25""]",up_orange.png,up,,,,,,,,right,right_blue.png,up_orange.png,up,left,down,5c03448ca33dc3000159e4ba,2021-09-11_14h38.39.720,arrow_simon_vert,2021.1.2,MacIntel,61.1995104,,,,,,,,,,,,,,,,,,,,,up,1,1.677,34,TRUE,FALSE,8,1,33,0,1,,,,,,,
,,,,,,0,2.337152212,#a3d0fb,"[""-0.25"",""0""]",right_blue.png,right,,,,,,,,right,right_blue.png,up_orange.png,up,left,down,5c03448ca33dc3000159e4ba,2021-09-11_14h38.39.720,arrow_simon_vert,2021.1.2,MacIntel,61.1995104,,,,,,,,,,,,,,,,,,,,,right,1,1.821,35,TRUE,FALSE,8,2,34,0,1,,,,,,,
,,,,,,0,1.795289638,#f3af84,"[""0"",""-0.25""]",up_orange.png,up,,,,,,,,right,right_blue.png,up_orange.png,up,left,down,5c03448ca33dc3000159e4ba,2021-09-11_14h38.39.720,arrow_simon_vert,2021.1.2,MacIntel,61.1995104,,,,,,,,,,,,,,,,,,,,,down,0,1.603,36,TRUE,FALSE,8,3,35,0,1,,,,,,,
,,,,,,0,1.968903171,#a3d0fb,"[""-0.25"",""0""]",left_blue.png,left,,,,,,,,left,left_blue.png,down_orange.png,down,left,down,5c03448ca33dc3000159e4ba,2021-09-11_14h38.39.720,arrow_simon_vert,2021.1.2,MacIntel,61.1995104,,,,,,,,,,,,,,,,,,,,,left,1,1.459,37,FALSE,FALSE,9,0,36,2,1,,,,,,,
,,,,,,0,2.413986569,#f3af84,"[""0"",""0.25""]",down_orange.png,down,,,,,,,,left,left_blue.png,down_orange.png,down,right,up,5c03448ca33dc3000159e4ba,2021-09-11_14h38.39.720,arrow_simon_vert,2021.1.2,MacIntel,61.1995104,,,,,,,,,,,,,,,,,,,,,down,1,1.993,38,TRUE,FALSE,9,1,37,3,1,,,,,,,
,,,,,,0,2.28580825,#a3d0fb,"[""-0.25"",""0""]",left_blue.png,left,,,,,,,,left,left_blue.png,down_orange.png,down,left,down,5c03448ca33dc3000159e4ba,2021-09-11_14h38.39.720,arrow_simon_vert,2021.1.2,MacIntel,61.1995104,,,,,,,,,,,,,,,,,,,,,left,1,1.867,39,TRUE,FALSE,9,2,38,2,1,,,,,,,
,,,,,,0,1.629069582,#f3af84,"[""0"",""0.25""]",down_orange.png,down,,,,,,,,left,left_blue.png,down_orange.png,down,right,up,5c03448ca33dc3000159e4ba,2021-09-11_14h38.39.720,arrow_simon_vert,2021.1.2,MacIntel,61.1995104,,,,,,,,,,,,,,,,,,,,,down,1,1.301,40,FALSE,TRUE,9,3,39,3,1,,,,,,,
,,,,,,0,1.895488225,#a3d0fb,"[""-0.25"",""0""]",right_blue.png,right,,,,,,,,right,right_blue.png,up_orange.png,up,left,down,5c03448ca33dc3000159e4ba,2021-09-11_14h38.39.720,arrow_simon_vert,2021.1.2,MacIntel,61.1995104,,,,,,,,,,,,,,,,,,,,,right,1,1.594,41,FALSE,FALSE,10,0,40,0,1,,,,,,,
,,,,,,0,2.40603132,#f3af84,"[""0"",""-0.25""]",down_orange.png,down,,,,,,,,left,left_blue.png,down_orange.png,down,left,down,5c03448ca33dc3000159e4ba,2021-09-11_14h38.39.720,arrow_simon_vert,2021.1.2,MacIntel,61.1995104,,,,,,,,,,,,,,,,,,,,,down,1,1.871,42,TRUE,FALSE,10,1,41,2,1,,,,,,,
,,,,,,0,2.175384802,#a3d0fb,"[""0.25"",""0""]",left_blue.png,left,,,,,,,,left,left_blue.png,down_orange.png,down,right,up,5c03448ca33dc3000159e4ba,2021-09-11_14h38.39.720,arrow_simon_vert,2021.1.2,MacIntel,61.1995104,,,,,,,,,,,,,,,,,,,,,left,1,1.719,43,TRUE,FALSE,10,2,42,3,1,,,,,,,
,,,,,,1,2.206125897,#f3af84,"[""0"",""-0.25""]",up_orange.png,up,,,,,,,,right,right_blue.png,up_orange.png,up,left,down,5c03448ca33dc3000159e4ba,2021-09-11_14h38.39.720,arrow_simon_vert,2021.1.2,MacIntel,61.1995104,,,,,,,,,,,,,,,,,,,,,down,0,1.535,44,FALSE,FALSE,10,3,43,0,1,,,,,,,
,,,,,,1,2.157790836,#a3d0fb,"[""-0.25"",""0""]",right_blue.png,right,,,,,,,,right,right_blue.png,up_orange.png,up,left,down,5c03448ca33dc3000159e4ba,2021-09-11_14h38.39.720,arrow_simon_vert,2021.1.2,MacIntel,61.1995104,,,,,,,,,,,,,,,,,,,,,right,1,1.604,45,TRUE,FALSE,11,0,44,0,1,,,,,,,
,,,,,,1,1.542918382,#f3af84,"[""0"",""-0.25""]",down_orange.png,down,,,,,,,,left,left_blue.png,down_orange.png,down,left,down,5c03448ca33dc3000159e4ba,2021-09-11_14h38.39.720,arrow_simon_vert,2021.1.2,MacIntel,61.1995104,,,,,,,,,,,,,,,,,,,,,down,1,1.185,46,FALSE,TRUE,11,1,45,2,1,,,,,,,
,,,,,,1,2.351175079,#a3d0fb,"[""-0.25"",""0""]",left_blue.png,left,,,,,,,,left,left_blue.png,down_orange.png,down,left,down,5c03448ca33dc3000159e4ba,2021-09-11_14h38.39.720,arrow_simon_vert,2021.1.2,MacIntel,61.1995104,,,,,,,,,,,,,,,,,,,,,up,0,1.65,47,TRUE,FALSE,11,2,46,2,1,,,,,,,
,,,,,,0,1.677337038,#f3af84,"[""0"",""0.25""]",down_orange.png,down,,,,,,,,left,left_blue.png,down_orange.png,down,right,up,5c03448ca33dc3000159e4ba,2021-09-11_14h38.39.720,arrow_simon_vert,2021.1.2,MacIntel,61.1995104,,,,,,,,,,,,,,,,,,,,,down,1,1.575,48,FALSE,FALSE,11,3,47,3,1,,,,,,,
,,,,,,0,2.311415785,#a3d0fb,"[""-0.25"",""0""]",left_blue.png,left,,,,,,,,left,left_blue.png,down_orange.png,down,left,down,5c03448ca33dc3000159e4ba,2021-09-11_14h38.39.720,arrow_simon_vert,2021.1.2,MacIntel,61.1995104,,,,,,,,,,,,,,,,,,,,,left,1,1.935,49,TRUE,FALSE,12,0,48,2,1,,,,,,,
,,,,,,0,2.464630053,#f3af84,"[""0"",""0.25""]",up_orange.png,up,,,,,,,,right,right_blue.png,up_orange.png,up,right,up,5c03448ca33dc3000159e4ba,2021-09-11_14h38.39.720,arrow_simon_vert,2021.1.2,MacIntel,61.1995104,,,,,,,,,,,,,,,,,,,,,down,0,1.759,50,TRUE,FALSE,12,1,49,1,1,,,,,,,
,,,,,,0,1.634773539,#a3d0fb,"[""-0.25"",""0""]",right_blue.png,right,,,,,,,,right,right_blue.png,up_orange.png,up,left,down,5c03448ca33dc3000159e4ba,2021-09-11_14h38.39.720,arrow_simon_vert,2021.1.2,MacIntel,61.1995104,,,,,,,,,,,,,,,,,,,,,right,1,1.275,51,FALSE,TRUE,12,2,50,0,1,,,,,,,
,,,,,,0,1.75482576,#f3af84,"[""0"",""0.25""]",down_orange.png,down,,,,,,,,left,left_blue.png,down_orange.png,down,right,up,5c03448ca33dc3000159e4ba,2021-09-11_14h38.39.720,arrow_simon_vert,2021.1.2,MacIntel,61.1995104,,,,,,,,,,,,,,,,,,,,,down,1,1.652,52,TRUE,FALSE,12,3,51,3,1,,,,,,,
,,,,,,0,2.319675955,#a3d0fb,"[""0.25"",""0""]",left_blue.png,left,,,,,,,,left,left_blue.png,down_orange.png,down,right,up,5c03448ca33dc3000159e4ba,2021-09-11_14h38.39.720,arrow_simon_vert,2021.1.2,MacIntel,61.1995104,,,,,,,,,,,,,,,,,,,,,left,1,1.765,53,TRUE,FALSE,13,0,52,3,1,,,,,,,
,,,,,,0,1.770575583,#f3af84,"[""0"",""0.25""]",up_orange.png,up,,,,,,,,right,right_blue.png,up_orange.png,up,right,up,5c03448ca33dc3000159e4ba,2021-09-11_14h38.39.720,arrow_simon_vert,2021.1.2,MacIntel,61.1995104,,,,,,,,,,,,,,,,,,,,,up,1,1.37,54,FALSE,TRUE,13,1,53,1,1,,,,,,,
,,,,,,0,2.345630252,#a3d0fb,"[""-0.25"",""0""]",left_blue.png,left,,,,,,,,left,left_blue.png,down_orange.png,down,left,down,5c03448ca33dc3000159e4ba,2021-09-11_14h38.39.720,arrow_simon_vert,2021.1.2,MacIntel,61.1995104,,,,,,,,,,,,,,,,,,,,,left,1,1.643,55,TRUE,FALSE,13,2,54,2,1,,,,,,,
,,,,,,0,1.780361076,#f3af84,"[""0"",""0.25""]",down_orange.png,down,,,,,,,,left,left_blue.png,down_orange.png,down,right,up,5c03448ca33dc3000159e4ba,2021-09-11_14h38.39.720,arrow_simon_vert,2021.1.2,MacIntel,61.1995104,,,,,,,,,,,,,,,,,,,,,down,1,1.58,56,FALSE,FALSE,13,3,55,3,1,,,,,,,
,,,,,,0,2.062059945,#a3d0fb,"[""0.25"",""0""]",right_blue.png,right,,,,,,,,right,right_blue.png,up_orange.png,up,right,up,5c03448ca33dc3000159e4ba,2021-09-11_14h38.39.720,arrow_simon_vert,2021.1.2,MacIntel,61.1995104,,,,,,,,,,,,,,,,,,,,,right,1,1.851,57,TRUE,FALSE,14,0,56,1,1,,,,,,,
,,,,,,0,2.443915298,#f3af84,"[""0"",""-0.25""]",up_orange.png,up,,,,,,,,right,right_blue.png,up_orange.png,up,left,down,5c03448ca33dc3000159e4ba,2021-09-11_14h38.39.720,arrow_simon_vert,2021.1.2,MacIntel,61.1995104,,,,,,,,,,,,,,,,,,,,,up,1,2.074,58,TRUE,FALSE,14,1,57,0,1,,,,,,,
,,,,,,0,2.445800254,#a3d0fb,"[""-0.25"",""0""]",right_blue.png,right,,,,,,,,right,right_blue.png,up_orange.png,up,left,down,5c03448ca33dc3000159e4ba,2021-09-11_14h38.39.720,arrow_simon_vert,2021.1.2,MacIntel,61.1995104,,,,,,,,,,,,,,,,,,,,,right,1,1.879,59,TRUE,FALSE,14,2,58,0,1,,,,,,,
,,,,,,0,1.769067094,#f3af84,"[""0"",""0.25""]",up_orange.png,up,,,,,,,,right,right_blue.png,up_orange.png,up,right,up,5c03448ca33dc3000159e4ba,2021-09-11_14h38.39.720,arrow_simon_vert,2021.1.2,MacIntel,61.1995104,,,,,,,,,,,,,,,,,,,,,up,1,1.254,60,FALSE,TRUE,14,3,59,1,1,,,,,,,
,,,,,,,,,,,,,,,,,,,,,,,,,5c03448ca33dc3000159e4ba,2021-09-11_14h38.39.720,arrow_simon_vert,2021.1.2,MacIntel,61.1995104,,,,,,,,,,,,,,,,,,,,,,,,,,,,,,,,space,26.569,2,0,2,0,1
,,,,,,0,2.17646991,#a3d0fb,"[""0.25"",""0""]",left_blue.png,left,,,,,,,,left,left_blue.png,down_orange.png,down,right,up,5c03448ca33dc3000159e4ba,2021-09-11_14h38.39.720,arrow_simon_vert,2021.1.2,MacIntel,61.1995104,,,,,,,,,,,,,,,,,,,,,left,1,1.597,1,FALSE,FALSE,0,0,0,3,1,,,,,,,
,,,,,,0,2.071688849,#f3af84,"[""0"",""-0.25""]",down_orange.png,down,,,,,,,,left,left_blue.png,down_orange.png,down,left,down,5c03448ca33dc3000159e4ba,2021-09-11_14h38.39.720,arrow_simon_vert,2021.1.2,MacIntel,61.1995104,,,,,,,,,,,,,,,,,,,,,down,1,1.517,2,FALSE,FALSE,0,1,1,2,1,,,,,,,
,,,,,,0,1.886070739,#a3d0fb,"[""-0.25"",""0""]",left_blue.png,left,,,,,,,,left,left_blue.png,down_orange.png,down,left,down,5c03448ca33dc3000159e4ba,2021-09-11_14h38.39.720,arrow_simon_vert,2021.1.2,MacIntel,61.1995104,,,,,,,,,,,,,,,,,,,,,left,1,1.314,3,FALSE,TRUE,0,2,2,2,1,,,,,,,
,,,,,,1,2.087197335,#f3af84,"[""0"",""-0.25""]",up_orange.png,up,,,,,,,,right,right_blue.png,up_orange.png,up,left,down,5c03448ca33dc3000159e4ba,2021-09-11_14h38.39.720,arrow_simon_vert,2021.1.2,MacIntel,61.1995104,,,,,,,,,,,,,,,,,,,,,down,0,1.45,4,FALSE,FALSE,0,3,3,0,1,,,,,,,
,,,,,,1,1.680420892,#a3d0fb,"[""-0.25"",""0""]",right_blue.png,right,,,,,,,,right,right_blue.png,up_orange.png,up,left,down,5c03448ca33dc3000159e4ba,2021-09-11_14h38.39.720,arrow_simon_vert,2021.1.2,MacIntel,61.1995104,,,,,,,,,,,,,,,,,,,,,right,1,1.361,5,FALSE,TRUE,1,0,4,0,1,,,,,,,
,,,,,,1,1.946681431,#f3af84,"[""0"",""-0.25""]",down_orange.png,down,,,,,,,,left,left_blue.png,down_orange.png,down,left,down,5c03448ca33dc3000159e4ba,2021-09-11_14h38.39.720,arrow_simon_vert,2021.1.2,MacIntel,61.1995104,,,,,,,,,,,,,,,,,,,,,down,1,1.647,6,TRUE,FALSE,1,1,5,2,1,,,,,,,
,,,,,,0,1.556699694,#a3d0fb,"[""-0.25"",""0""]",right_blue.png,right,,,,,,,,right,right_blue.png,up_orange.png,up,left,down,5c03448ca33dc3000159e4ba,2021-09-11_14h38.39.720,arrow_simon_vert,2021.1.2,MacIntel,61.1995104,,,,,,,,,,,,,,,,,,,,,right,1,1.488,7,FALSE,FALSE,1,2,6,0,1,,,,,,,
,,,,,,0,1.787678702,#f3af84,"[""0"",""0.25""]",up_orange.png,up,,,,,,,,right,right_blue.png,up_orange.png,up,right,up,5c03448ca33dc3000159e4ba,2021-09-11_14h38.39.720,arrow_simon_vert,2021.1.2,MacIntel,61.1995104,,,,,,,,,,,,,,,,,,,,,down,0,1.614,8,TRUE,FALSE,1,3,7,1,1,,,,,,,
,,,,,,0,2.481370872,#a3d0fb,"[""0.25"",""0""]",left_blue.png,left,,,,,,,,left,left_blue.png,down_orange.png,down,right,up,5c03448ca33dc3000159e4ba,2021-09-11_14h38.39.720,arrow_simon_vert,2021.1.2,MacIntel,61.1995104,,,,,,,,,,,,,,,,,,,,,left,1,1.968,9,TRUE,FALSE,2,0,8,3,1,,,,,,,
,,,,,,0,2.447206155,#f3af84,"[""0"",""-0.25""]",down_orange.png,down,,,,,,,,left,left_blue.png,down_orange.png,down,left,down,5c03448ca33dc3000159e4ba,2021-09-11_14h38.39.720,arrow_simon_vert,2021.1.2,MacIntel,61.1995104,,,,,,,,,,,,,,,,,,,,,down,1,2.043,10,TRUE,FALSE,2,1,9,2,1,,,,,,,
,,,,,,0,2.489602738,#a3d0fb,"[""0.25"",""0""]",right_blue.png,right,,,,,,,,right,right_blue.png,up_orange.png,up,right,up,5c03448ca33dc3000159e4ba,2021-09-11_14h38.39.720,arrow_simon_vert,2021.1.2,MacIntel,61.1995104,,,,,,,,,,,,,,,,,,,,,right,1,1.877,11,TRUE,FALSE,2,2,10,1,1,,,,,,,
,,,,,,0,1.596548006,#f3af84,"[""0"",""0.25""]",down_orange.png,down,,,,,,,,left,left_blue.png,down_orange.png,down,right,up,5c03448ca33dc3000159e4ba,2021-09-11_14h38.39.720,arrow_simon_vert,2021.1.2,MacIntel,61.1995104,,,,,,,,,,,,,,,,,,,,,down,1,1.635,12,TRUE,FALSE,2,3,11,3,1,,,,,,,
,,,,,,0,2.403212344,#a3d0fb,"[""-0.25"",""0""]",right_blue.png,right,,,,,,,,right,right_blue.png,up_orange.png,up,left,down,5c03448ca33dc3000159e4ba,2021-09-11_14h38.39.720,arrow_simon_vert,2021.1.2,MacIntel,61.1995104,,,,,,,,,,,,,,,,,,,,,left,0,1.774,13,TRUE,FALSE,3,0,12,0,1,,,,,,,
,,,,,,0,2.233008298,#f3af84,"[""0"",""-0.25""]",down_orange.png,down,,,,,,,,left,left_blue.png,down_orange.png,down,left,down,5c03448ca33dc3000159e4ba,2021-09-11_14h38.39.720,arrow_simon_vert,2021.1.2,MacIntel,61.1995104,,,,,,,,,,,,,,,,,,,,,down,1,1.705,14,TRUE,FALSE,3,1,13,2,1,,,,,,,
