instruct_resp_simon.keys,instruct_resp_simon.corr,instruct_resp_simon.rt,trial_resp_simon.keys,trial_resp_simon.corr,trial_resp_simon.rt,kerr,target_onset,target_color,target_pos,target_file,target_resp,trials_train_simon.thisRepN,trials_train_simon.thisTrialN,trials_train_simon.thisN,trials_train_simon.thisIndex,trials_train_simon.ran,odd_target_pos,even_target_pos,odd_target_resp,odd_target_file,even_target_file,even_target_resp,odd_target_side,even_target_side,participant,date,expName,psychopyVersion,OS,frameRate,train_block_note_resp.keys,train_block_note_resp.rt,blocks_train.thisRepN,blocks_train.thisTrialN,blocks_train.thisN,blocks_train.thisIndex,blocks_train.ran,instruct_resp_timing.keys,instruct_resp_timing.corr,instruct_resp_timing.rt,trial_resp_timing.keys,trial_resp_timing.rt,trials_train_timing.thisRepN,trials_train_timing.thisTrialN,trials_train_timing.thisN,trials_train_timing.thisIndex,trials_train_timing.ran,instruct_resp.keys,instruct_resp.corr,instruct_resp.rt,trial_resp.keys,trial_resp.corr,trial_resp.rt,trial_num,too_slow,too_soon,trials.thisRepN,trials.thisTrialN,trials.thisN,trials.thisIndex,trials.ran,block_note_resp.keys,block_note_resp.rt,blocks.thisRepN,blocks.thisTrialN,blocks.thisN,blocks.thisIndex,blocks.ran
space,0,381.7408,right,1,1.8756,0,0.547834461,#a3d0fb,"[""-0.25"",""0""]",right_blue.png,right,0,0,0,0,1,,,right,right_blue.png,up_orange.png,up,left,down,5d60b5beea1c1c0001c98bf6,2021-09-11_17h43.09.326,arrow_simon_vert,2021.1.2,Win32,60.09254252,,,,,,,,,,,,,,,,,,,,,,,,,,,,,,,,,,,,,,
,,,up,1,1.1258,0,0.220230432,#f3af84,"[""0"",""-0.25""]",up_orange.png,up,0,1,1,0,1,,,right,right_blue.png,up_orange.png,up,left,down,5d60b5beea1c1c0001c98bf6,2021-09-11_17h43.09.326,arrow_simon_vert,2021.1.2,Win32,60.09254252,,,,,,,,,,,,,,,,,,,,,,,,,,,,,,,,,,,,,,
,,,right,1,1.564,0,0.83019075,#a3d0fb,"[""0.25"",""0""]",right_blue.png,right,0,2,2,1,1,,,right,right_blue.png,up_orange.png,up,right,up,5d60b5beea1c1c0001c98bf6,2021-09-11_17h43.09.326,arrow_simon_vert,2021.1.2,Win32,60.09254252,,,,,,,,,,,,,,,,,,,,,,,,,,,,,,,,,,,,,,
,,,up,1,1.7537,0,0.776494402,#f3af84,"[""0"",""0.25""]",up_orange.png,up,0,3,3,1,1,,,right,right_blue.png,up_orange.png,up,right,up,5d60b5beea1c1c0001c98bf6,2021-09-11_17h43.09.326,arrow_simon_vert,2021.1.2,Win32,60.09254252,,,,,,,,,,,,,,,,,,,,,,,,,,,,,,,,,,,,,,
,,,left,1,1.3367,0,0.334327018,#a3d0fb,"[""-0.25"",""0""]",left_blue.png,left,1,0,4,2,1,,,left,left_blue.png,down_orange.png,down,left,down,5d60b5beea1c1c0001c98bf6,2021-09-11_17h43.09.326,arrow_simon_vert,2021.1.2,Win32,60.09254252,,,,,,,,,,,,,,,,,,,,,,,,,,,,,,,,,,,,,,
,,,up,1,0.8827,0,0.090048969,#f3af84,"[""0"",""0.25""]",up_orange.png,up,1,1,5,1,1,,,right,right_blue.png,up_orange.png,up,right,up,5d60b5beea1c1c0001c98bf6,2021-09-11_17h43.09.326,arrow_simon_vert,2021.1.2,Win32,60.09254252,,,,,,,,,,,,,,,,,,,,,,,,,,,,,,,,,,,,,,
,,,left,1,1.5465,0,0.726532459,#a3d0fb,"[""-0.25"",""0""]",left_blue.png,left,1,2,6,2,1,,,left,left_blue.png,down_orange.png,down,left,down,5d60b5beea1c1c0001c98bf6,2021-09-11_17h43.09.326,arrow_simon_vert,2021.1.2,Win32,60.09254252,,,,,,,,,,,,,,,,,,,,,,,,,,,,,,,,,,,,,,
,,,up,1,1.2166,0,0.422915501,#f3af84,"[""0"",""0.25""]",up_orange.png,up,1,3,7,1,1,,,right,right_blue.png,up_orange.png,up,right,up,5d60b5beea1c1c0001c98bf6,2021-09-11_17h43.09.326,arrow_simon_vert,2021.1.2,Win32,60.09254252,,,,,,,,,,,,,,,,,,,,,,,,,,,,,,,,,,,,,,
,,,right,1,0.8854,0,0.286525773,#a3d0fb,"[""0.25"",""0""]",right_blue.png,right,2,0,8,1,1,,,right,right_blue.png,up_orange.png,up,right,up,5d60b5beea1c1c0001c98bf6,2021-09-11_17h43.09.326,arrow_simon_vert,2021.1.2,Win32,60.09254252,,,,,,,,,,,,,,,,,,,,,,,,,,,,,,,,,,,,,,
,,,left,0,1.1639,1,0.54521675,#f3af84,"[""0"",""-0.25""]",down_orange.png,down,2,1,9,2,1,,,left,left_blue.png,down_orange.png,down,left,down,5d60b5beea1c1c0001c98bf6,2021-09-11_17h43.09.326,arrow_simon_vert,2021.1.2,Win32,60.09254252,,,,,,,,,,,,,,,,,,,,,,,,,,,,,,,,,,,,,,
,,,left,1,1.7766,0,0.735249931,#a3d0fb,"[""0.25"",""0""]",left_blue.png,left,2,2,10,3,1,,,left,left_blue.png,down_orange.png,down,right,up,5d60b5beea1c1c0001c98bf6,2021-09-11_17h43.09.326,arrow_simon_vert,2021.1.2,Win32,60.09254252,,,,,,,,,,,,,,,,,,,,,,,,,,,,,,,,,,,,,,
,,,down,1,2.0207,0,0.739831754,#f3af84,"[""0"",""0.25""]",down_orange.png,down,2,3,11,3,1,,,left,left_blue.png,down_orange.png,down,right,up,5d60b5beea1c1c0001c98bf6,2021-09-11_17h43.09.326,arrow_simon_vert,2021.1.2,Win32,60.09254252,,,,,,,,,,,,,,,,,,,,,,,,,,,,,,,,,,,,,,
,,,right,1,1.1193,0,0.109735499,#a3d0fb,"[""0.25"",""0""]",right_blue.png,right,3,0,12,1,1,,,right,right_blue.png,up_orange.png,up,right,up,5d60b5beea1c1c0001c98bf6,2021-09-11_17h43.09.326,arrow_simon_vert,2021.1.2,Win32,60.09254252,,,,,,,,,,,,,,,,,,,,,,,,,,,,,,,,,,,,,,
,,,up,1,0.7191,0,0.053425021,#f3af84,"[""0"",""0.25""]",up_orange.png,up,3,1,13,1,1,,,right,right_blue.png,up_orange.png,up,right,up,5d60b5beea1c1c0001c98bf6,2021-09-11_17h43.09.326,arrow_simon_vert,2021.1.2,Win32,60.09254252,,,,,,,,,,,,,,,,,,,,,,,,,,,,,,,,,,,,,,
,,,left,1,0.8603,0,0.212186753,#a3d0fb,"[""-0.25"",""0""]",left_blue.png,left,3,2,14,2,1,,,left,left_blue.png,down_orange.png,down,left,down,5d60b5beea1c1c0001c98bf6,2021-09-11_17h43.09.326,arrow_simon_vert,2021.1.2,Win32,60.09254252,,,,,,,,,,,,,,,,,,,,,,,,,,,,,,,,,,,,,,
,,,down,1,2.0612,0,0.652460993,#f3af84,"[""0"",""0.25""]",down_orange.png,down,3,3,15,3,1,,,left,left_blue.png,down_orange.png,down,right,up,5d60b5beea1c1c0001c98bf6,2021-09-11_17h43.09.326,arrow_simon_vert,2021.1.2,Win32,60.09254252,,,,,,,,,,,,,,,,,,,,,,,,,,,,,,,,,,,,,,
,,,right,1,1.1246,0,0.166430656,#a3d0fb,"[""-0.25"",""0""]",right_blue.png,right,4,0,16,0,1,,,right,right_blue.png,up_orange.png,up,left,down,5d60b5beea1c1c0001c98bf6,2021-09-11_17h43.09.326,arrow_simon_vert,2021.1.2,Win32,60.09254252,,,,,,,,,,,,,,,,,,,,,,,,,,,,,,,,,,,,,,
,,,up,1,0.8689,0,0.324044556,#f3af84,"[""0"",""0.25""]",up_orange.png,up,4,1,17,1,1,,,right,right_blue.png,up_orange.png,up,right,up,5d60b5beea1c1c0001c98bf6,2021-09-11_17h43.09.326,arrow_simon_vert,2021.1.2,Win32,60.09254252,,,,,,,,,,,,,,,,,,,,,,,,,,,,,,,,,,,,,,
,,,left,1,1.1237,0,0.333167379,#a3d0fb,"[""0.25"",""0""]",left_blue.png,left,4,2,18,3,1,,,left,left_blue.png,down_orange.png,down,right,up,5d60b5beea1c1c0001c98bf6,2021-09-11_17h43.09.326,arrow_simon_vert,2021.1.2,Win32,60.09254252,,,,,,,,,,,,,,,,,,,,,,,,,,,,,,,,,,,,,,
,,,up,1,1.139,0,0.119240447,#f3af84,"[""0"",""-0.25""]",up_orange.png,up,4,3,19,0,1,,,right,right_blue.png,up_orange.png,up,left,down,5d60b5beea1c1c0001c98bf6,2021-09-11_17h43.09.326,arrow_simon_vert,2021.1.2,Win32,60.09254252,,,,,,,,,,,,,,,,,,,,,,,,,,,,,,,,,,,,,,
,,,left,1,1.1367,0,0.406372032,#a3d0fb,"[""-0.25"",""0""]",left_blue.png,left,5,0,20,2,1,,,left,left_blue.png,down_orange.png,down,left,down,5d60b5beea1c1c0001c98bf6,2021-09-11_17h43.09.326,arrow_simon_vert,2021.1.2,Win32,60.09254252,,,,,,,,,,,,,,,,,,,,,,,,,,,,,,,,,,,,,,
,,,up,1,1.6377,0,0.891345808,#f3af84,"[""0"",""-0.25""]",up_orange.png,up,5,1,21,0,1,,,right,right_blue.png,up_orange.png,up,left,down,5d60b5beea1c1c0001c98bf6,2021-09-11_17h43.09.326,arrow_simon_vert,2021.1.2,Win32,60.09254252,,,,,,,,,,,,,,,,,,,,,,,,,,,,,,,,,,,,,,
,,,right,1,0.9426,0,0.335782801,#a3d0fb,"[""0.25"",""0""]",right_blue.png,right,5,2,22,1,1,,,right,right_blue.png,up_orange.png,up,right,up,5d60b5beea1c1c0001c98bf6,2021-09-11_17h43.09.326,arrow_simon_vert,2021.1.2,Win32,60.09254252,,,,,,,,,,,,,,,,,,,,,,,,,,,,,,,,,,,,,,
,,,up,1,0.9807,0,0.472980572,#f3af84,"[""0"",""0.25""]",up_orange.png,up,5,3,23,1,1,,,right,right_blue.png,up_orange.png,up,right,up,5d60b5beea1c1c0001c98bf6,2021-09-11_17h43.09.326,arrow_simon_vert,2021.1.2,Win32,60.09254252,,,,,,,,,,,,,,,,,,,,,,,,,,,,,,,,,,,,,,
,,,left,1,1.058,0,0.296197677,#a3d0fb,"[""-0.25"",""0""]",left_blue.png,left,6,0,24,2,1,,,left,left_blue.png,down_orange.png,down,left,down,5d60b5beea1c1c0001c98bf6,2021-09-11_17h43.09.326,arrow_simon_vert,2021.1.2,Win32,60.09254252,,,,,,,,,,,,,,,,,,,,,,,,,,,,,,,,,,,,,,
,,,up,1,1.2832,0,0.801989431,#f3af84,"[""0"",""0.25""]",up_orange.png,up,6,1,25,1,1,,,right,right_blue.png,up_orange.png,up,right,up,5d60b5beea1c1c0001c98bf6,2021-09-11_17h43.09.326,arrow_simon_vert,2021.1.2,Win32,60.09254252,,,,,,,,,,,,,,,,,,,,,,,,,,,,,,,,,,,,,,
,,,left,1,0.7947,0,0.067340746,#a3d0fb,"[""-0.25"",""0""]",left_blue.png,left,6,2,26,2,1,,,left,left_blue.png,down_orange.png,down,left,down,5d60b5beea1c1c0001c98bf6,2021-09-11_17h43.09.326,arrow_simon_vert,2021.1.2,Win32,60.09254252,,,,,,,,,,,,,,,,,,,,,,,,,,,,,,,,,,,,,,
,,,down,1,1.759,0,0.751892082,#f3af84,"[""0"",""0.25""]",down_orange.png,down,6,3,27,3,1,,,left,left_blue.png,down_orange.png,down,right,up,5d60b5beea1c1c0001c98bf6,2021-09-11_17h43.09.326,arrow_simon_vert,2021.1.2,Win32,60.09254252,,,,,,,,,,,,,,,,,,,,,,,,,,,,,,,,,,,,,,
,,,right,1,1.555,0,0.740037374,#a3d0fb,"[""-0.25"",""0""]",right_blue.png,right,7,0,28,0,1,,,right,right_blue.png,up_orange.png,up,left,down,5d60b5beea1c1c0001c98bf6,2021-09-11_17h43.09.326,arrow_simon_vert,2021.1.2,Win32,60.09254252,,,,,,,,,,,,,,,,,,,,,,,,,,,,,,,,,,,,,,
,,,up,1,1.2728,0,0.58739081,#f3af84,"[""0"",""0.25""]",up_orange.png,up,7,1,29,1,1,,,right,right_blue.png,up_orange.png,up,right,up,5d60b5beea1c1c0001c98bf6,2021-09-11_17h43.09.326,arrow_simon_vert,2021.1.2,Win32,60.09254252,,,,,,,,,,,,,,,,,,,,,,,,,,,,,,,,,,,,,,
,,,left,1,1.1693,0,0.374411479,#a3d0fb,"[""0.25"",""0""]",left_blue.png,left,7,2,30,3,1,,,left,left_blue.png,down_orange.png,down,right,up,5d60b5beea1c1c0001c98bf6,2021-09-11_17h43.09.326,arrow_simon_vert,2021.1.2,Win32,60.09254252,,,,,,,,,,,,,,,,,,,,,,,,,,,,,,,,,,,,,,
,,,down,1,1.0118,0,0.010537958,#f3af84,"[""0"",""-0.25""]",down_orange.png,down,7,3,31,2,1,,,left,left_blue.png,down_orange.png,down,left,down,5d60b5beea1c1c0001c98bf6,2021-09-11_17h43.09.326,arrow_simon_vert,2021.1.2,Win32,60.09254252,,,,,,,,,,,,,,,,,,,,,,,,,,,,,,,,,,,,,,
,,,left,1,0.9192,0,0.265011069,#a3d0fb,"[""0.25"",""0""]",left_blue.png,left,8,0,32,3,1,,,left,left_blue.png,down_orange.png,down,right,up,5d60b5beea1c1c0001c98bf6,2021-09-11_17h43.09.326,arrow_simon_vert,2021.1.2,Win32,60.09254252,,,,,,,,,,,,,,,,,,,,,,,,,,,,,,,,,,,,,,
,,,up,1,1.27,0,0.487336343,#f3af84,"[""0"",""-0.25""]",up_orange.png,up,8,1,33,0,1,,,right,right_blue.png,up_orange.png,up,left,down,5d60b5beea1c1c0001c98bf6,2021-09-11_17h43.09.326,arrow_simon_vert,2021.1.2,Win32,60.09254252,,,,,,,,,,,,,,,,,,,,,,,,,,,,,,,,,,,,,,
,,,right,1,1.0943,0,0.462044433,#a3d0fb,"[""-0.25"",""0""]",right_blue.png,right,8,2,34,0,1,,,right,right_blue.png,up_orange.png,up,left,down,5d60b5beea1c1c0001c98bf6,2021-09-11_17h43.09.326,arrow_simon_vert,2021.1.2,Win32,60.09254252,,,,,,,,,,,,,,,,,,,,,,,,,,,,,,,,,,,,,,
,,,up,1,0.7897,0,0.186753316,#f3af84,"[""0"",""-0.25""]",up_orange.png,up,8,3,35,0,1,,,right,right_blue.png,up_orange.png,up,left,down,5d60b5beea1c1c0001c98bf6,2021-09-11_17h43.09.326,arrow_simon_vert,2021.1.2,Win32,60.09254252,,,,,,,,,,,,,,,,,,,,,,,,,,,,,,,,,,,,,,
,,,left,1,1.5059,0,0.917353256,#a3d0fb,"[""-0.25"",""0""]",left_blue.png,left,9,0,36,2,1,,,left,left_blue.png,down_orange.png,down,left,down,5d60b5beea1c1c0001c98bf6,2021-09-11_17h43.09.326,arrow_simon_vert,2021.1.2,Win32,60.09254252,,,,,,,,,,,,,,,,,,,,,,,,,,,,,,,,,,,,,,
,,,down,1,1.1126,0,0.165464582,#f3af84,"[""0"",""0.25""]",down_orange.png,down,9,1,37,3,1,,,left,left_blue.png,down_orange.png,down,right,up,5d60b5beea1c1c0001c98bf6,2021-09-11_17h43.09.326,arrow_simon_vert,2021.1.2,Win32,60.09254252,,,,,,,,,,,,,,,,,,,,,,,,,,,,,,,,,,,,,,
,,,right,1,1.4717,0,0.911664343,#a3d0fb,"[""0.25"",""0""]",right_blue.png,right,9,2,38,1,1,,,right,right_blue.png,up_orange.png,up,right,up,5d60b5beea1c1c0001c98bf6,2021-09-11_17h43.09.326,arrow_simon_vert,2021.1.2,Win32,60.09254252,,,,,,,,,,,,,,,,,,,,,,,,,,,,,,,,,,,,,,
,,,down,1,1.8161,0,0.979269552,#f3af84,"[""0"",""-0.25""]",down_orange.png,down,9,3,39,2,1,,,left,left_blue.png,down_orange.png,down,left,down,5d60b5beea1c1c0001c98bf6,2021-09-11_17h43.09.326,arrow_simon_vert,2021.1.2,Win32,60.09254252,,,,,,,,,,,,,,,,,,,,,,,,,,,,,,,,,,,,,,
,,,left,1,1.5133,0,0.664228032,#a3d0fb,"[""-0.25"",""0""]",left_blue.png,left,10,0,40,2,1,,,left,left_blue.png,down_orange.png,down,left,down,5d60b5beea1c1c0001c98bf6,2021-09-11_17h43.09.326,arrow_simon_vert,2021.1.2,Win32,60.09254252,,,,,,,,,,,,,,,,,,,,,,,,,,,,,,,,,,,,,,
,,,down,1,1.2318,0,0.014174586,#f3af84,"[""0"",""0.25""]",down_orange.png,down,10,1,41,3,1,,,left,left_blue.png,down_orange.png,down,right,up,5d60b5beea1c1c0001c98bf6,2021-09-11_17h43.09.326,arrow_simon_vert,2021.1.2,Win32,60.09254252,,,,,,,,,,,,,,,,,,,,,,,,,,,,,,,,,,,,,,
,,,right,1,0.7221,0,0.026701461,#a3d0fb,"[""-0.25"",""0""]",right_blue.png,right,10,2,42,0,1,,,right,right_blue.png,up_orange.png,up,left,down,5d60b5beea1c1c0001c98bf6,2021-09-11_17h43.09.326,arrow_simon_vert,2021.1.2,Win32,60.09254252,,,,,,,,,,,,,,,,,,,,,,,,,,,,,,,,,,,,,,
,,,up,1,0.9289,0,0.198010189,#f3af84,"[""0"",""-0.25""]",up_orange.png,up,10,3,43,0,1,,,right,right_blue.png,up_orange.png,up,left,down,5d60b5beea1c1c0001c98bf6,2021-09-11_17h43.09.326,arrow_simon_vert,2021.1.2,Win32,60.09254252,,,,,,,,,,,,,,,,,,,,,,,,,,,,,,,,,,,,,,
,,,left,1,1.3445,0,0.527627041,#a3d0fb,"[""0.25"",""0""]",left_blue.png,left,11,0,44,3,1,,,left,left_blue.png,down_orange.png,down,right,up,5d60b5beea1c1c0001c98bf6,2021-09-11_17h43.09.326,arrow_simon_vert,2021.1.2,Win32,60.09254252,,,,,,,,,,,,,,,,,,,,,,,,,,,,,,,,,,,,,,
,,,down,1,1.8454,0,0.991467969,#f3af84,"[""0"",""-0.25""]",down_orange.png,down,11,1,45,2,1,,,left,left_blue.png,down_orange.png,down,left,down,5d60b5beea1c1c0001c98bf6,2021-09-11_17h43.09.326,arrow_simon_vert,2021.1.2,Win32,60.09254252,,,,,,,,,,,,,,,,,,,,,,,,,,,,,,,,,,,,,,
,,,left,1,1.6938,0,0.846131996,#a3d0fb,"[""0.25"",""0""]",left_blue.png,left,11,2,46,3,1,,,left,left_blue.png,down_orange.png,down,right,up,5d60b5beea1c1c0001c98bf6,2021-09-11_17h43.09.326,arrow_simon_vert,2021.1.2,Win32,60.09254252,,,,,,,,,,,,,,,,,,,,,,,,,,,,,,,,,,,,,,
,,,up,1,1.7175,0,0.961738551,#f3af84,"[""0"",""-0.25""]",up_orange.png,up,11,3,47,0,1,,,right,right_blue.png,up_orange.png,up,left,down,5d60b5beea1c1c0001c98bf6,2021-09-11_17h43.09.326,arrow_simon_vert,2021.1.2,Win32,60.09254252,,,,,,,,,,,,,,,,,,,,,,,,,,,,,,,,,,,,,,
,,,left,1,0.7393,0,0.104074666,#a3d0fb,"[""-0.25"",""0""]",left_blue.png,left,12,0,48,2,1,,,left,left_blue.png,down_orange.png,down,left,down,5d60b5beea1c1c0001c98bf6,2021-09-11_17h43.09.326,arrow_simon_vert,2021.1.2,Win32,60.09254252,,,,,,,,,,,,,,,,,,,,,,,,,,,,,,,,,,,,,,
,,,down,1,1.297,0,0.781224289,#f3af84,"[""0"",""-0.25""]",down_orange.png,down,12,1,49,2,1,,,left,left_blue.png,down_orange.png,down,left,down,5d60b5beea1c1c0001c98bf6,2021-09-11_17h43.09.326,arrow_simon_vert,2021.1.2,Win32,60.09254252,,,,,,,,,,,,,,,,,,,,,,,,,,,,,,,,,,,,,,
,,,left,1,0.8807,0,0.078209503,#a3d0fb,"[""0.25"",""0""]",left_blue.png,left,12,2,50,3,1,,,left,left_blue.png,down_orange.png,down,right,up,5d60b5beea1c1c0001c98bf6,2021-09-11_17h43.09.326,arrow_simon_vert,2021.1.2,Win32,60.09254252,,,,,,,,,,,,,,,,,,,,,,,,,,,,,,,,,,,,,,
,,,up,1,1.1862,0,0.47966679,#f3af84,"[""0"",""-0.25""]",up_orange.png,up,12,3,51,0,1,,,right,right_blue.png,up_orange.png,up,left,down,5d60b5beea1c1c0001c98bf6,2021-09-11_17h43.09.326,arrow_simon_vert,2021.1.2,Win32,60.09254252,,,,,,,,,,,,,,,,,,,,,,,,,,,,,,,,,,,,,,
,,,left,1,1.6703,0,0.911896568,#a3d0fb,"[""0.25"",""0""]",left_blue.png,left,13,0,52,3,1,,,left,left_blue.png,down_orange.png,down,right,up,5d60b5beea1c1c0001c98bf6,2021-09-11_17h43.09.326,arrow_simon_vert,2021.1.2,Win32,60.09254252,,,,,,,,,,,,,,,,,,,,,,,,,,,,,,,,,,,,,,
,,,up,1,1.0053,0,0.48719319,#f3af84,"[""0"",""0.25""]",up_orange.png,up,13,1,53,1,1,,,right,right_blue.png,up_orange.png,up,right,up,5d60b5beea1c1c0001c98bf6,2021-09-11_17h43.09.326,arrow_simon_vert,2021.1.2,Win32,60.09254252,,,,,,,,,,,,,,,,,,,,,,,,,,,,,,,,,,,,,,
,,,right,1,0.7855,0,0.073126183,#a3d0fb,"[""0.25"",""0""]",right_blue.png,right,13,2,54,1,1,,,right,right_blue.png,up_orange.png,up,right,up,5d60b5beea1c1c0001c98bf6,2021-09-11_17h43.09.326,arrow_simon_vert,2021.1.2,Win32,60.09254252,,,,,,,,,,,,,,,,,,,,,,,,,,,,,,,,,,,,,,
,,,down,1,0.9401,0,0.113031817,#f3af84,"[""0"",""0.25""]",down_orange.png,down,13,3,55,3,1,,,left,left_blue.png,down_orange.png,down,right,up,5d60b5beea1c1c0001c98bf6,2021-09-11_17h43.09.326,arrow_simon_vert,2021.1.2,Win32,60.09254252,,,,,,,,,,,,,,,,,,,,,,,,,,,,,,,,,,,,,,
,,,left,1,0.6187,0,0.041879978,#a3d0fb,"[""-0.25"",""0""]",left_blue.png,left,14,0,56,2,1,,,left,left_blue.png,down_orange.png,down,left,down,5d60b5beea1c1c0001c98bf6,2021-09-11_17h43.09.326,arrow_simon_vert,2021.1.2,Win32,60.09254252,,,,,,,,,,,,,,,,,,,,,,,,,,,,,,,,,,,,,,
,,,up,1,0.8214,0,0.194356004,#f3af84,"[""0"",""-0.25""]",up_orange.png,up,14,1,57,0,1,,,right,right_blue.png,up_orange.png,up,left,down,5d60b5beea1c1c0001c98bf6,2021-09-11_17h43.09.326,arrow_simon_vert,2021.1.2,Win32,60.09254252,,,,,,,,,,,,,,,,,,,,,,,,,,,,,,,,,,,,,,
,,,left,1,1.0083,0,0.293219873,#a3d0fb,"[""0.25"",""0""]",left_blue.png,left,14,2,58,3,1,,,left,left_blue.png,down_orange.png,down,right,up,5d60b5beea1c1c0001c98bf6,2021-09-11_17h43.09.326,arrow_simon_vert,2021.1.2,Win32,60.09254252,,,,,,,,,,,,,,,,,,,,,,,,,,,,,,,,,,,,,,
,,,up,1,1.0283,0,0.377734134,#f3af84,"[""0"",""-0.25""]",up_orange.png,up,14,3,59,0,1,,,right,right_blue.png,up_orange.png,up,left,down,5d60b5beea1c1c0001c98bf6,2021-09-11_17h43.09.326,arrow_simon_vert,2021.1.2,Win32,60.09254252,,,,,,,,,,,,,,,,,,,,,,,,,,,,,,,,,,,,,,
,,,,,,,,,,,,,,,,,,,,,,,,,5d60b5beea1c1c0001c98bf6,2021-09-11_17h43.09.326,arrow_simon_vert,2021.1.2,Win32,60.09254252,space,13.6223,0,0,0,0,1,,,,,,,,,,,,,,,,,,,,,,,,,,,,,,,
,,,left,1,1.1737,0,0.243321637,#a3d0fb,"[""0.25"",""0""]",left_blue.png,left,0,0,0,3,1,,,left,left_blue.png,down_orange.png,down,right,up,5d60b5beea1c1c0001c98bf6,2021-09-11_17h43.09.326,arrow_simon_vert,2021.1.2,Win32,60.09254252,,,,,,,,,,,,,,,,,,,,,,,,,,,,,,,,,,,,,,
,,,up,1,0.8422,0,0.312762698,#f3af84,"[""0"",""-0.25""]",up_orange.png,up,0,1,1,0,1,,,right,right_blue.png,up_orange.png,up,left,down,5d60b5beea1c1c0001c98bf6,2021-09-11_17h43.09.326,arrow_simon_vert,2021.1.2,Win32,60.09254252,,,,,,,,,,,,,,,,,,,,,,,,,,,,,,,,,,,,,,
,,,right,1,1.2193,0,0.592387587,#a3d0fb,"[""-0.25"",""0""]",right_blue.png,right,0,2,2,0,1,,,right,right_blue.png,up_orange.png,up,left,down,5d60b5beea1c1c0001c98bf6,2021-09-11_17h43.09.326,arrow_simon_vert,2021.1.2,Win32,60.09254252,,,,,,,,,,,,,,,,,,,,,,,,,,,,,,,,,,,,,,
,,,up,1,0.7359,0,0.13931279,#f3af84,"[""0"",""0.25""]",up_orange.png,up,0,3,3,1,1,,,right,right_blue.png,up_orange.png,up,right,up,5d60b5beea1c1c0001c98bf6,2021-09-11_17h43.09.326,arrow_simon_vert,2021.1.2,Win32,60.09254252,,,,,,,,,,,,,,,,,,,,,,,,,,,,,,,,,,,,,,
,,,right,1,1.1817,0,0.554012326,#a3d0fb,"[""-0.25"",""0""]",right_blue.png,right,1,0,4,0,1,,,right,right_blue.png,up_orange.png,up,left,down,5d60b5beea1c1c0001c98bf6,2021-09-11_17h43.09.326,arrow_simon_vert,2021.1.2,Win32,60.09254252,,,,,,,,,,,,,,,,,,,,,,,,,,,,,,,,,,,,,,
,,,up,1,1.4429,0,0.99499094,#f3af84,"[""0"",""0.25""]",up_orange.png,up,1,1,5,1,1,,,right,right_blue.png,up_orange.png,up,right,up,5d60b5beea1c1c0001c98bf6,2021-09-11_17h43.09.326,arrow_simon_vert,2021.1.2,Win32,60.09254252,,,,,,,,,,,,,,,,,,,,,,,,,,,,,,,,,,,,,,
,,,right,1,0.9634,0,0.270130713,#a3d0fb,"[""-0.25"",""0""]",right_blue.png,right,1,2,6,0,1,,,right,right_blue.png,up_orange.png,up,left,down,5d60b5beea1c1c0001c98bf6,2021-09-11_17h43.09.326,arrow_simon_vert,2021.1.2,Win32,60.09254252,,,,,,,,,,,,,,,,,,,,,,,,,,,,,,,,,,,,,,
,,,down,1,0.8648,0,0.170713627,#f3af84,"[""0"",""-0.25""]",down_orange.png,down,1,3,7,2,1,,,left,left_blue.png,down_orange.png,down,left,down,5d60b5beea1c1c0001c98bf6,2021-09-11_17h43.09.326,arrow_simon_vert,2021.1.2,Win32,60.09254252,,,,,,,,,,,,,,,,,,,,,,,,,,,,,,,,,,,,,,
,,,right,1,1.2698,0,0.784844999,#a3d0fb,"[""0.25"",""0""]",right_blue.png,right,2,0,8,1,1,,,right,right_blue.png,up_orange.png,up,right,up,5d60b5beea1c1c0001c98bf6,2021-09-11_17h43.09.326,arrow_simon_vert,2021.1.2,Win32,60.09254252,,,,,,,,,,,,,,,,,,,,,,,,,,,,,,,,,,,,,,
,,,up,1,1.0361,0,0.546577577,#f3af84,"[""0"",""0.25""]",up_orange.png,up,2,1,9,1,1,,,right,right_blue.png,up_orange.png,up,right,up,5d60b5beea1c1c0001c98bf6,2021-09-11_17h43.09.326,arrow_simon_vert,2021.1.2,Win32,60.09254252,,,,,,,,,,,,,,,,,,,,,,,,,,,,,,,,,,,,,,
,,,left,1,0.6853,0,0.08963925,#a3d0fb,"[""-0.25"",""0""]",left_blue.png,left,2,2,10,2,1,,,left,left_blue.png,down_orange.png,down,left,down,5d60b5beea1c1c0001c98bf6,2021-09-11_17h43.09.326,arrow_simon_vert,2021.1.2,Win32,60.09254252,,,,,,,,,,,,,,,,,,,,,,,,,,,,,,,,,,,,,,
,,,up,1,1.3359,0,0.754993552,#f3af84,"[""0"",""0.25""]",up_orange.png,up,2,3,11,1,1,,,right,right_blue.png,up_orange.png,up,right,up,5d60b5beea1c1c0001c98bf6,2021-09-11_17h43.09.326,arrow_simon_vert,2021.1.2,Win32,60.09254252,,,,,,,,,,,,,,,,,,,,,,,,,,,,,,,,,,,,,,
,,,right,1,0.6749,0,0.222243906,#a3d0fb,"[""0.25"",""0""]",right_blue.png,right,3,0,12,1,1,,,right,right_blue.png,up_orange.png,up,right,up,5d60b5beea1c1c0001c98bf6,2021-09-11_17h43.09.326,arrow_simon_vert,2021.1.2,Win32,60.09254252,,,,,,,,,,,,,,,,,,,,,,,,,,,,,,,,,,,,,,
,,,down,1,1.172,0,0.140632743,#f3af84,"[""0"",""0.25""]",down_orange.png,down,3,1,13,3,1,,,left,left_blue.png,down_orange.png,down,right,up,5d60b5beea1c1c0001c98bf6,2021-09-11_17h43.09.326,arrow_simon_vert,2021.1.2,Win32,60.09254252,,,,,,,,,,,,,,,,,,,,,,,,,,,,,,,,,,,,,,
,,,right,1,1.1694,0,0.733090144,#a3d0fb,"[""0.25"",""0""]",right_blue.png,right,3,2,14,1,1,,,right,right_blue.png,up_orange.png,up,right,up,5d60b5beea1c1c0001c98bf6,2021-09-11_17h43.09.326,arrow_simon_vert,2021.1.2,Win32,60.09254252,,,,,,,,,,,,,,,,,,,,,,,,,,,,,,,,,,,,,,
,,,down,1,1.0767,0,0.256139949,#f3af84,"[""0"",""-0.25""]",down_orange.png,down,3,3,15,2,1,,,left,left_blue.png,down_orange.png,down,left,down,5d60b5beea1c1c0001c98bf6,2021-09-11_17h43.09.326,arrow_simon_vert,2021.1.2,Win32,60.09254252,,,,,,,,,,,,,,,,,,,,,,,,,,,,,,,,,,,,,,
,,,left,1,0.9029,0,0.149273395,#a3d0fb,"[""0.25"",""0""]",left_blue.png,left,4,0,16,3,1,,,left,left_blue.png,down_orange.png,down,right,up,5d60b5beea1c1c0001c98bf6,2021-09-11_17h43.09.326,arrow_simon_vert,2021.1.2,Win32,60.09254252,,,,,,,,,,,,,,,,,,,,,,,,,,,,,,,,,,,,,,
,,,down,1,1.6287,0,0.721561851,#f3af84,"[""0"",""0.25""]",down_orange.png,down,4,1,17,3,1,,,left,left_blue.png,down_orange.png,down,right,up,5d60b5beea1c1c0001c98bf6,2021-09-11_17h43.09.326,arrow_simon_vert,2021.1.2,Win32,60.09254252,,,,,,,,,,,,,,,,,,,,,,,,,,,,,,,,,,,,,,
,,,left,1,1.4695,0,0.780969795,#a3d0fb,"[""-0.25"",""0""]",left_blue.png,left,4,2,18,2,1,,,left,left_blue.png,down_orange.png,down,left,down,5d60b5beea1c1c0001c98bf6,2021-09-11_17h43.09.326,arrow_simon_vert,2021.1.2,Win32,60.09254252,,,,,,,,,,,,,,,,,,,,,,,,,,,,,,,,,,,,,,
,,,up,1,1.0387,0,0.36929119,#f3af84,"[""0"",""0.25""]",up_orange.png,up,4,3,19,1,1,,,right,right_blue.png,up_orange.png,up,right,up,5d60b5beea1c1c0001c98bf6,2021-09-11_17h43.09.326,arrow_simon_vert,2021.1.2,Win32,60.09254252,,,,,,,,,,,,,,,,,,,,,,,,,,,,,,,,,,,,,,
,,,left,1,0.8725,0,0.132344107,#a3d0fb,"[""0.25"",""0""]",left_blue.png,left,5,0,20,3,1,,,left,left_blue.png,down_orange.png,down,right,up,5d60b5beea1c1c0001c98bf6,2021-09-11_17h43.09.326,arrow_simon_vert,2021.1.2,Win32,60.09254252,,,,,,,,,,,,,,,,,,,,,,,,,,,,,,,,,,,,,,
,,,up,1,1.2197,0,0.388111931,#f3af84,"[""0"",""-0.25""]",up_orange.png,up,5,1,21,0,1,,,right,right_blue.png,up_orange.png,up,left,down,5d60b5beea1c1c0001c98bf6,2021-09-11_17h43.09.326,arrow_simon_vert,2021.1.2,Win32,60.09254252,,,,,,,,,,,,,,,,,,,,,,,,,,,,,,,,,,,,,,
,,,right,1,1.4435,0,0.719404647,#a3d0fb,"[""-0.25"",""0""]",right_blue.png,right,5,2,22,0,1,,,right,right_blue.png,up_orange.png,up,left,down,5d60b5beea1c1c0001c98bf6,2021-09-11_17h43.09.326,arrow_simon_vert,2021.1.2,Win32,60.09254252,,,,,,,,,,,,,,,,,,,,,,,,,,,,,,,,,,,,,,
,,,down,1,1.2048,0,0.473137904,#f3af84,"[""0"",""-0.25""]",down_orange.png,down,5,3,23,2,1,,,left,left_blue.png,down_orange.png,down,left,down,5d60b5beea1c1c0001c98bf6,2021-09-11_17h43.09.326,arrow_simon_vert,2021.1.2,Win32,60.09254252,,,,,,,,,,,,,,,,,,,,,,,,,,,,,,,,,,,,,,
,,,left,1,1.5872,0,0.985835839,#a3d0fb,"[""-0.25"",""0""]",left_blue.png,left,6,0,24,2,1,,,left,left_blue.png,down_orange.png,down,left,down,5d60b5beea1c1c0001c98bf6,2021-09-11_17h43.09.326,arrow_simon_vert,2021.1.2,Win32,60.09254252,,,,,,,,,,,,,,,,,,,,,,,,,,,,,,,,,,,,,,
,,,up,1,1.2532,0,0.614247729,#f3af84,"[""0"",""-0.25""]",up_orange.png,up,6,1,25,0,1,,,right,right_blue.png,up_orange.png,up,left,down,5d60b5beea1c1c0001c98bf6,2021-09-11_17h43.09.326,arrow_simon_vert,2021.1.2,Win32,60.09254252,,,,,,,,,,,,,,,,,,,,,,,,,,,,,,,,,,,,,,
,,,right,1,1.3808,0,0.925318218,#a3d0fb,"[""0.25"",""0""]",right_blue.png,right,6,2,26,1,1,,,right,right_blue.png,up_orange.png,up,right,up,5d60b5beea1c1c0001c98bf6,2021-09-11_17h43.09.326,arrow_simon_vert,2021.1.2,Win32,60.09254252,,,,,,,,,,,,,,,,,,,,,,,,,,,,,,,,,,,,,,
,,,down,1,1.4199,0,0.590611766,#f3af84,"[""0"",""-0.25""]",down_orange.png,down,6,3,27,2,1,,,left,left_blue.png,down_orange.png,down,left,down,5d60b5beea1c1c0001c98bf6,2021-09-11_17h43.09.326,arrow_simon_vert,2021.1.2,Win32,60.09254252,,,,,,,,,,,,,,,,,,,,,,,,,,,,,,,,,,,,,,
,,,left,1,0.8257,0,0.132222772,#a3d0fb,"[""-0.25"",""0""]",left_blue.png,left,7,0,28,2,1,,,left,left_blue.png,down_orange.png,down,left,down,5d60b5beea1c1c0001c98bf6,2021-09-11_17h43.09.326,arrow_simon_vert,2021.1.2,Win32,60.09254252,,,,,,,,,,,,,,,,,,,,,,,,,,,,,,,,,,,,,,
,,,down,1,1.0209,0,0.17183642,#f3af84,"[""0"",""-0.25""]",down_orange.png,down,7,1,29,2,1,,,left,left_blue.png,down_orange.png,down,left,down,5d60b5beea1c1c0001c98bf6,2021-09-11_17h43.09.326,arrow_simon_vert,2021.1.2,Win32,60.09254252,,,,,,,,,,,,,,,,,,,,,,,,,,,,,,,,,,,,,,
,,,left,1,1.3117,0,0.657588218,#a3d0fb,"[""-0.25"",""0""]",left_blue.png,left,7,2,30,2,1,,,left,left_blue.png,down_orange.png,down,left,down,5d60b5beea1c1c0001c98bf6,2021-09-11_17h43.09.326,arrow_simon_vert,2021.1.2,Win32,60.09254252,,,,,,,,,,,,,,,,,,,,,,,,,,,,,,,,,,,,,,
,,,up,1,0.623,0,0.021866272,#f3af84,"[""0"",""0.25""]",up_orange.png,up,7,3,31,1,1,,,right,right_blue.png,up_orange.png,up,right,up,5d60b5beea1c1c0001c98bf6,2021-09-11_17h43.09.326,arrow_simon_vert,2021.1.2,Win32,60.09254252,,,,,,,,,,,,,,,,,,,,,,,,,,,,,,,,,,,,,,
,,,left,1,1.4575,0,0.706606545,#a3d0fb,"[""0.25"",""0""]",left_blue.png,left,8,0,32,3,1,,,left,left_blue.png,down_orange.png,down,right,up,5d60b5beea1c1c0001c98bf6,2021-09-11_17h43.09.326,arrow_simon_vert,2021.1.2,Win32,60.09254252,,,,,,,,,,,,,,,,,,,,,,,,,,,,,,,,,,,,,,
,,,up,0,1.1942,1,0.728476345,#f3af84,"[""0"",""0.25""]",down_orange.png,down,8,1,33,3,1,,,left,left_blue.png,down_orange.png,down,right,up,5d60b5beea1c1c0001c98bf6,2021-09-11_17h43.09.326,arrow_simon_vert,2021.1.2,Win32,60.09254252,,,,,,,,,,,,,,,,,,,,,,,,,,,,,,,,,,,,,,
,,,right,1,1.3657,0,0.144285882,#a3d0fb,"[""0.25"",""0""]",right_blue.png,right,8,2,34,1,1,,,right,right_blue.png,up_orange.png,up,right,up,5d60b5beea1c1c0001c98bf6,2021-09-11_17h43.09.326,arrow_simon_vert,2021.1.2,Win32,60.09254252,,,,,,,,,,,,,,,,,,,,,,,,,,,,,,,,,,,,,,
,,,down,1,1.0986,0,0.318942596,#f3af84,"[""0"",""-0.25""]",down_orange.png,down,8,3,35,2,1,,,left,left_blue.png,down_orange.png,down,left,down,5d60b5beea1c1c0001c98bf6,2021-09-11_17h43.09.326,arrow_simon_vert,2021.1.2,Win32,60.09254252,,,,,,,,,,,,,,,,,,,,,,,,,,,,,,,,,,,,,,
,,,left,1,0.611,0,0.024960091,#a3d0fb,"[""-0.25"",""0""]",left_blue.png,left,9,0,36,2,1,,,left,left_blue.png,down_orange.png,down,left,down,5d60b5beea1c1c0001c98bf6,2021-09-11_17h43.09.326,arrow_simon_vert,2021.1.2,Win32,60.09254252,,,,,,,,,,,,,,,,,,,,,,,,,,,,,,,,,,,,,,
,,,up,1,1.3103,0,0.499642509,#f3af84,"[""0"",""-0.25""]",up_orange.png,up,9,1,37,0,1,,,right,right_blue.png,up_orange.png,up,left,down,5d60b5beea1c1c0001c98bf6,2021-09-11_17h43.09.326,arrow_simon_vert,2021.1.2,Win32,60.09254252,,,,,,,,,,,,,,,,,,,,,,,,,,,,,,,,,,,,,,
,,,right,1,1.053,0,0.40139817,#a3d0fb,"[""-0.25"",""0""]",right_blue.png,right,9,2,38,0,1,,,right,right_blue.png,up_orange.png,up,left,down,5d60b5beea1c1c0001c98bf6,2021-09-11_17h43.09.326,arrow_simon_vert,2021.1.2,Win32,60.09254252,,,,,,,,,,,,,,,,,,,,,,,,,,,,,,,,,,,,,,
,,,up,1,0.9902,0,0.323490549,#f3af84,"[""0"",""0.25""]",up_orange.png,up,9,3,39,1,1,,,right,right_blue.png,up_orange.png,up,right,up,5d60b5beea1c1c0001c98bf6,2021-09-11_17h43.09.326,arrow_simon_vert,2021.1.2,Win32,60.09254252,,,,,,,,,,,,,,,,,,,,,,,,,,,,,,,,,,,,,,
,,,right,1,1.0526,0,0.374147888,#a3d0fb,"[""-0.25"",""0""]",right_blue.png,right,10,0,40,0,1,,,right,right_blue.png,up_orange.png,up,left,down,5d60b5beea1c1c0001c98bf6,2021-09-11_17h43.09.326,arrow_simon_vert,2021.1.2,Win32,60.09254252,,,,,,,,,,,,,,,,,,,,,,,,,,,,,,,,,,,,,,
,,,up,1,0.9567,0,0.356899607,#f3af84,"[""0"",""0.25""]",up_orange.png,up,10,1,41,1,1,,,right,right_blue.png,up_orange.png,up,right,up,5d60b5beea1c1c0001c98bf6,2021-09-11_17h43.09.326,arrow_simon_vert,2021.1.2,Win32,60.09254252,,,,,,,,,,,,,,,,,,,,,,,,,,,,,,,,,,,,,,
,,,left,1,0.7775,0,0.085868878,#a3d0fb,"[""-0.25"",""0""]",left_blue.png,left,10,2,42,2,1,,,left,left_blue.png,down_orange.png,down,left,down,5d60b5beea1c1c0001c98bf6,2021-09-11_17h43.09.326,arrow_simon_vert,2021.1.2,Win32,60.09254252,,,,,,,,,,,,,,,,,,,,,,,,,,,,,,,,,,,,,,
,,,down,1,2.0463,0,0.999464658,#f3af84,"[""0"",""0.25""]",down_orange.png,down,10,3,43,3,1,,,left,left_blue.png,down_orange.png,down,right,up,5d60b5beea1c1c0001c98bf6,2021-09-11_17h43.09.326,arrow_simon_vert,2021.1.2,Win32,60.09254252,,,,,,,,,,,,,,,,,,,,,,,,,,,,,,,,,,,,,,
,,,right,1,1.0946,0,0.328823045,#a3d0fb,"[""0.25"",""0""]",right_blue.png,right,11,0,44,1,1,,,right,right_blue.png,up_orange.png,up,right,up,5d60b5beea1c1c0001c98bf6,2021-09-11_17h43.09.326,arrow_simon_vert,2021.1.2,Win32,60.09254252,,,,,,,,,,,,,,,,,,,,,,,,,,,,,,,,,,,,,,
,,,down,1,1.2624,0,0.159998593,#f3af84,"[""0"",""0.25""]",down_orange.png,down,11,1,45,3,1,,,left,left_blue.png,down_orange.png,down,right,up,5d60b5beea1c1c0001c98bf6,2021-09-11_17h43.09.326,arrow_simon_vert,2021.1.2,Win32,60.09254252,,,,,,,,,,,,,,,,,,,,,,,,,,,,,,,,,,,,,,
,,,right,1,1.344,0,0.673416928,#a3d0fb,"[""-0.25"",""0""]",right_blue.png,right,11,2,46,0,1,,,right,right_blue.png,up_orange.png,up,left,down,5d60b5beea1c1c0001c98bf6,2021-09-11_17h43.09.326,arrow_simon_vert,2021.1.2,Win32,60.09254252,,,,,,,,,,,,,,,,,,,,,,,,,,,,,,,,,,,,,,
,,,down,1,1.4867,0,0.50546395,#f3af84,"[""0"",""-0.25""]",down_orange.png,down,11,3,47,2,1,,,left,left_blue.png,down_orange.png,down,left,down,5d60b5beea1c1c0001c98bf6,2021-09-11_17h43.09.326,arrow_simon_vert,2021.1.2,Win32,60.09254252,,,,,,,,,,,,,,,,,,,,,,,,,,,,,,,,,,,,,,
,,,left,1,1.2757,0,0.435127748,#a3d0fb,"[""0.25"",""0""]",left_blue.png,left,12,0,48,3,1,,,left,left_blue.png,down_orange.png,down,right,up,5d60b5beea1c1c0001c98bf6,2021-09-11_17h43.09.326,arrow_simon_vert,2021.1.2,Win32,60.09254252,,,,,,,,,,,,,,,,,,,,,,,,,,,,,,,,,,,,,,
,,,up,1,1.2039,0,0.404706594,#f3af84,"[""0"",""-0.25""]",up_orange.png,up,12,1,49,0,1,,,right,right_blue.png,up_orange.png,up,left,down,5d60b5beea1c1c0001c98bf6,2021-09-11_17h43.09.326,arrow_simon_vert,2021.1.2,Win32,60.09254252,,,,,,,,,,,,,,,,,,,,,,,,,,,,,,,,,,,,,,
,,,left,1,1.0309,0,0.221226083,#a3d0fb,"[""0.25"",""0""]",left_blue.png,left,12,2,50,3,1,,,left,left_blue.png,down_orange.png,down,right,up,5d60b5beea1c1c0001c98bf6,2021-09-11_17h43.09.326,arrow_simon_vert,2021.1.2,Win32,60.09254252,,,,,,,,,,,,,,,,,,,,,,,,,,,,,,,,,,,,,,
,,,up,1,0.97,0,0.230010271,#f3af84,"[""0"",""-0.25""]",up_orange.png,up,12,3,51,0,1,,,right,right_blue.png,up_orange.png,up,left,down,5d60b5beea1c1c0001c98bf6,2021-09-11_17h43.09.326,arrow_simon_vert,2021.1.2,Win32,60.09254252,,,,,,,,,,,,,,,,,,,,,,,,,,,,,,,,,,,,,,
,,,right,1,1.1102,0,0.497333548,#a3d0fb,"[""-0.25"",""0""]",right_blue.png,right,13,0,52,0,1,,,right,right_blue.png,up_orange.png,up,left,down,5d60b5beea1c1c0001c98bf6,2021-09-11_17h43.09.326,arrow_simon_vert,2021.1.2,Win32,60.09254252,,,,,,,,,,,,,,,,,,,,,,,,,,,,,,,,,,,,,,
,,,up,1,0.7414,0,0.029221888,#f3af84,"[""0"",""-0.25""]",up_orange.png,up,13,1,53,0,1,,,right,right_blue.png,up_orange.png,up,left,down,5d60b5beea1c1c0001c98bf6,2021-09-11_17h43.09.326,arrow_simon_vert,2021.1.2,Win32,60.09254252,,,,,,,,,,,,,,,,,,,,,,,,,,,,,,,,,,,,,,
,,,left,1,1.5644,0,0.947989187,#a3d0fb,"[""0.25"",""0""]",left_blue.png,left,13,2,54,3,1,,,left,left_blue.png,down_orange.png,down,right,up,5d60b5beea1c1c0001c98bf6,2021-09-11_17h43.09.326,arrow_simon_vert,2021.1.2,Win32,60.09254252,,,,,,,,,,,,,,,,,,,,,,,,,,,,,,,,,,,,,,
,,,down,1,1.2247,0,0.274894501,#f3af84,"[""0"",""0.25""]",down_orange.png,down,13,3,55,3,1,,,left,left_blue.png,down_orange.png,down,right,up,5d60b5beea1c1c0001c98bf6,2021-09-11_17h43.09.326,arrow_simon_vert,2021.1.2,Win32,60.09254252,,,,,,,,,,,,,,,,,,,,,,,,,,,,,,,,,,,,,,
,,,right,1,0.9794,0,0.41620527,#a3d0fb,"[""0.25"",""0""]",right_blue.png,right,14,0,56,1,1,,,right,right_blue.png,up_orange.png,up,right,up,5d60b5beea1c1c0001c98bf6,2021-09-11_17h43.09.326,arrow_simon_vert,2021.1.2,Win32,60.09254252,,,,,,,,,,,,,,,,,,,,,,,,,,,,,,,,,,,,,,
,,,down,1,1.6315,0,0.789046599,#f3af84,"[""0"",""0.25""]",down_orange.png,down,14,1,57,3,1,,,left,left_blue.png,down_orange.png,down,right,up,5d60b5beea1c1c0001c98bf6,2021-09-11_17h43.09.326,arrow_simon_vert,2021.1.2,Win32,60.09254252,,,,,,,,,,,,,,,,,,,,,,,,,,,,,,,,,,,,,,
,,,left,1,1.1051,0,0.346457113,#a3d0fb,"[""-0.25"",""0""]",left_blue.png,left,14,2,58,2,1,,,left,left_blue.png,down_orange.png,down,left,down,5d60b5beea1c1c0001c98bf6,2021-09-11_17h43.09.326,arrow_simon_vert,2021.1.2,Win32,60.09254252,,,,,,,,,,,,,,,,,,,,,,,,,,,,,,,,,,,,,,
,,,down,1,1.2361,0,0.174973096,#f3af84,"[""0"",""0.25""]",down_orange.png,down,14,3,59,3,1,,,left,left_blue.png,down_orange.png,down,right,up,5d60b5beea1c1c0001c98bf6,2021-09-11_17h43.09.326,arrow_simon_vert,2021.1.2,Win32,60.09254252,,,,,,,,,,,,,,,,,,,,,,,,,,,,,,,,,,,,,,
,,,,,,,,,,,,,,,,,,,,,,,,,5d60b5beea1c1c0001c98bf6,2021-09-11_17h43.09.326,arrow_simon_vert,2021.1.2,Win32,60.09254252,space,4.6593,1,0,1,0,1,,,,,,,,,,,,,,,,,,,,,,,,,,,,,,,
,,,,,,,,,,,,,,,,,,,,,,,,,5d60b5beea1c1c0001c98bf6,2021-09-11_17h43.09.326,arrow_simon_vert,2021.1.2,Win32,60.09254252,,,,,,,,space,0,196.3978,down,3.6357,0,0,0,0,1,,,,,,,,,,,,,,,,,,,,,
,,,,,,,,,,,,,,,,,,,,,,,,,5d60b5beea1c1c0001c98bf6,2021-09-11_17h43.09.326,arrow_simon_vert,2021.1.2,Win32,60.09254252,,,,,,,,,,,down,5.0427,1,0,1,0,1,,,,,,,,,,,,,,,,,,,,,
,,,,,,,,,,,,,,,,,,,,,,,,,5d60b5beea1c1c0001c98bf6,2021-09-11_17h43.09.326,arrow_simon_vert,2021.1.2,Win32,60.09254252,,,,,,,,,,,right,3.8072,2,0,2,0,1,,,,,,,,,,,,,,,,,,,,,
,,,,,,,,,,,,,,,,,,,,,,,,,5d60b5beea1c1c0001c98bf6,2021-09-11_17h43.09.326,arrow_simon_vert,2021.1.2,Win32,60.09254252,,,,,,,,,,,down,4.0196,3,0,3,0,1,,,,,,,,,,,,,,,,,,,,,
,,,,,,,,,,,,,,,,,,,,,,,,,5d60b5beea1c1c0001c98bf6,2021-09-11_17h43.09.326,arrow_simon_vert,2021.1.2,Win32,60.09254252,,,,,,,,,,,up,3.1064,4,0,4,0,1,,,,,,,,,,,,,,,,,,,,,
,,,,,,,,,,,,,,,,,,,,,,,,,5d60b5beea1c1c0001c98bf6,2021-09-11_17h43.09.326,arrow_simon_vert,2021.1.2,Win32,60.09254252,,,,,,,,,,,left,5.0304,5,0,5,0,1,,,,,,,,,,,,,,,,,,,,,
,,,,,,,,,,,,,,,,,,,,,,,,,5d60b5beea1c1c0001c98bf6,2021-09-11_17h43.09.326,arrow_simon_vert,2021.1.2,Win32,60.09254252,,,,,,,,,,,left,4.1857,6,0,6,0,1,,,,,,,,,,,,,,,,,,,,,
,,,,,,,,,,,,,,,,,,,,,,,,,5d60b5beea1c1c0001c98bf6,2021-09-11_17h43.09.326,arrow_simon_vert,2021.1.2,Win32,60.09254252,,,,,,,,,,,right,2.9769,7,0,7,0,1,,,,,,,,,,,,,,,,,,,,,
,,,,,,,,,,,,,,,,,,,,,,,,,5d60b5beea1c1c0001c98bf6,2021-09-11_17h43.09.326,arrow_simon_vert,2021.1.2,Win32,60.09254252,,,,,,,,,,,left,3.2749,8,0,8,0,1,,,,,,,,,,,,,,,,,,,,,
,,,,,,,,,,,,,,,,,,,,,,,,,5d60b5beea1c1c0001c98bf6,2021-09-11_17h43.09.326,arrow_simon_vert,2021.1.2,Win32,60.09254252,,,,,,,,,,,up,3.2471,9,0,9,0,1,,,,,,,,,,,,,,,,,,,,,
,,,,,,,,,,,,,,,,,,,,,,,,,5d60b5beea1c1c0001c98bf6,2021-09-11_17h43.09.326,arrow_simon_vert,2021.1.2,Win32,60.09254252,,,,,,,,,,,left,2.7888,10,0,10,0,1,,,,,,,,,,,,,,,,,,,,,
,,,,,,,,,,,,,,,,,,,,,,,,,5d60b5beea1c1c0001c98bf6,2021-09-11_17h43.09.326,arrow_simon_vert,2021.1.2,Win32,60.09254252,,,,,,,,,,,up,3.1835,11,0,11,0,1,,,,,,,,,,,,,,,,,,,,,
,,,,,,,,,,,,,,,,,,,,,,,,,5d60b5beea1c1c0001c98bf6,2021-09-11_17h43.09.326,arrow_simon_vert,2021.1.2,Win32,60.09254252,,,,,,,,,,,left,3.3598,12,0,12,0,1,,,,,,,,,,,,,,,,,,,,,
,,,,,,,,,,,,,,,,,,,,,,,,,5d60b5beea1c1c0001c98bf6,2021-09-11_17h43.09.326,arrow_simon_vert,2021.1.2,Win32,60.09254252,,,,,,,,,,,left,2.7554,13,0,13,0,1,,,,,,,,,,,,,,,,,,,,,
,,,,,,,,,,,,,,,,,,,,,,,,,5d60b5beea1c1c0001c98bf6,2021-09-11_17h43.09.326,arrow_simon_vert,2021.1.2,Win32,60.09254252,,,,,,,,,,,left,2.7964,14,0,14,0,1,,,,,,,,,,,,,,,,,,,,,
,,,,,,,,,,,,,,,,,,,,,,,,,5d60b5beea1c1c0001c98bf6,2021-09-11_17h43.09.326,arrow_simon_vert,2021.1.2,Win32,60.09254252,,,,,,,,,,,up,2.6846,15,0,15,0,1,,,,,,,,,,,,,,,,,,,,,
,,,,,,,,,,,,,,,,,,,,,,,,,5d60b5beea1c1c0001c98bf6,2021-09-11_17h43.09.326,arrow_simon_vert,2021.1.2,Win32,60.09254252,,,,,,,,,,,left,2.8057,16,0,16,0,1,,,,,,,,,,,,,,,,,,,,,
,,,,,,,,,,,,,,,,,,,,,,,,,5d60b5beea1c1c0001c98bf6,2021-09-11_17h43.09.326,arrow_simon_vert,2021.1.2,Win32,60.09254252,,,,,,,,,,,up,3.1567,17,0,17,0,1,,,,,,,,,,,,,,,,,,,,,
,,,,,,,,,,,,,,,,,,,,,,,,,5d60b5beea1c1c0001c98bf6,2021-09-11_17h43.09.326,arrow_simon_vert,2021.1.2,Win32,60.09254252,,,,,,,,,,,left,3.0843,18,0,18,0,1,,,,,,,,,,,,,,,,,,,,,
,,,,,,,,,,,,,,,,,,,,,,,,,5d60b5beea1c1c0001c98bf6,2021-09-11_17h43.09.326,arrow_simon_vert,2021.1.2,Win32,60.09254252,,,,,,,,,,,up,3.0176,19,0,19,0,1,,,,,,,,,,,,,,,,,,,,,
,,,,,,,,,,,,,,,,,,,,,,,,,5d60b5beea1c1c0001c98bf6,2021-09-11_17h43.09.326,arrow_simon_vert,2021.1.2,Win32,60.09254252,,,,,,,,,,,left,2.762,20,0,20,0,1,,,,,,,,,,,,,,,,,,,,,
,,,,,,,,,,,,,,,,,,,,,,,,,5d60b5beea1c1c0001c98bf6,2021-09-11_17h43.09.326,arrow_simon_vert,2021.1.2,Win32,60.09254252,,,,,,,,,,,right,3.2438,21,0,21,0,1,,,,,,,,,,,,,,,,,,,,,
,,,,,,,,,,,,,,,,,,,,,,,,,5d60b5beea1c1c0001c98bf6,2021-09-11_17h43.09.326,arrow_simon_vert,2021.1.2,Win32,60.09254252,,,,,,,,,,,up,2.1459,22,0,22,0,1,,,,,,,,,,,,,,,,,,,,,
,,,,,,,,,,,,,,,,,,,,,,,,,5d60b5beea1c1c0001c98bf6,2021-09-11_17h43.09.326,arrow_simon_vert,2021.1.2,Win32,60.09254252,,,,,,,,,,,down,3.1346,23,0,23,0,1,,,,,,,,,,,,,,,,,,,,,
,,,,,,,,,,,,,,,,,,,,,,,,,5d60b5beea1c1c0001c98bf6,2021-09-11_17h43.09.326,arrow_simon_vert,2021.1.2,Win32,60.09254252,,,,,,,,,,,left,3.1732,24,0,24,0,1,,,,,,,,,,,,,,,,,,,,,
,,,,,,,,,,,,,,,,,,,,,,,,,5d60b5beea1c1c0001c98bf6,2021-09-11_17h43.09.326,arrow_simon_vert,2021.1.2,Win32,60.09254252,,,,,,,,,,,up,2.8669,25,0,25,0,1,,,,,,,,,,,,,,,,,,,,,
,,,,,,,,,,,,,,,,,,,,,,,,,5d60b5beea1c1c0001c98bf6,2021-09-11_17h43.09.326,arrow_simon_vert,2021.1.2,Win32,60.09254252,,,,,,,,,,,left,2.9726,26,0,26,0,1,,,,,,,,,,,,,,,,,,,,,
,,,,,,,,,,,,,,,,,,,,,,,,,5d60b5beea1c1c0001c98bf6,2021-09-11_17h43.09.326,arrow_simon_vert,2021.1.2,Win32,60.09254252,,,,,,,,,,,up,3.0342,27,0,27,0,1,,,,,,,,,,,,,,,,,,,,,
,,,,,,,,,,,,,,,,,,,,,,,,,5d60b5beea1c1c0001c98bf6,2021-09-11_17h43.09.326,arrow_simon_vert,2021.1.2,Win32,60.09254252,,,,,,,,,,,left,2.7056,28,0,28,0,1,,,,,,,,,,,,,,,,,,,,,
,,,,,,,,,,,,,,,,,,,,,,,,,5d60b5beea1c1c0001c98bf6,2021-09-11_17h43.09.326,arrow_simon_vert,2021.1.2,Win32,60.09254252,,,,,,,,,,,up,2.9585,29,0,29,0,1,,,,,,,,,,,,,,,,,,,,,
,,,,,,,,,,,,,,,,,,,,,,,,,5d60b5beea1c1c0001c98bf6,2021-09-11_17h43.09.326,arrow_simon_vert,2021.1.2,Win32,60.09254252,,,,,,,,,,,left,3.1279,30,0,30,0,1,,,,,,,,,,,,,,,,,,,,,
,,,,,,,,,,,,,,,,,,,,,,,,,5d60b5beea1c1c0001c98bf6,2021-09-11_17h43.09.326,arrow_simon_vert,2021.1.2,Win32,60.09254252,,,,,,,,,,,up,3.1728,31,0,31,0,1,,,,,,,,,,,,,,,,,,,,,
,,,,,,,,,,,,,,,,,,,,,,,,,5d60b5beea1c1c0001c98bf6,2021-09-11_17h43.09.326,arrow_simon_vert,2021.1.2,Win32,60.09254252,,,,,,,,,,,left,3.2533,32,0,32,0,1,,,,,,,,,,,,,,,,,,,,,
,,,,,,,,,,,,,,,,,,,,,,,,,5d60b5beea1c1c0001c98bf6,2021-09-11_17h43.09.326,arrow_simon_vert,2021.1.2,Win32,60.09254252,,,,,,,,,,,up,3.2341,33,0,33,0,1,,,,,,,,,,,,,,,,,,,,,
,,,,,,,,,,,,,,,,,,,,,,,,,5d60b5beea1c1c0001c98bf6,2021-09-11_17h43.09.326,arrow_simon_vert,2021.1.2,Win32,60.09254252,,,,,,,,,,,left,3.2171,34,0,34,0,1,,,,,,,,,,,,,,,,,,,,,
,,,,,,,,,,,,,,,,,,,,,,,,,5d60b5beea1c1c0001c98bf6,2021-09-11_17h43.09.326,arrow_simon_vert,2021.1.2,Win32,60.09254252,,,,,,,,,,,up,3.09,35,0,35,0,1,,,,,,,,,,,,,,,,,,,,,
,,,,,,,,,,,,,,,,,,,,,,,,,5d60b5beea1c1c0001c98bf6,2021-09-11_17h43.09.326,arrow_simon_vert,2021.1.2,Win32,60.09254252,,,,,,,,,,,left,3.07,36,0,36,0,1,,,,,,,,,,,,,,,,,,,,,
,,,,,,,,,,,,,,,,,,,,,,,,,5d60b5beea1c1c0001c98bf6,2021-09-11_17h43.09.326,arrow_simon_vert,2021.1.2,Win32,60.09254252,,,,,,,,,,,up,3.0589,37,0,37,0,1,,,,,,,,,,,,,,,,,,,,,
,,,,,,,,,,,,,,,,,,,,,,,,,5d60b5beea1c1c0001c98bf6,2021-09-11_17h43.09.326,arrow_simon_vert,2021.1.2,Win32,60.09254252,,,,,,,,,,,left,3.0336,38,0,38,0,1,,,,,,,,,,,,,,,,,,,,,
,,,,,,,,,,,,,,,,,,,,,,,,,5d60b5beea1c1c0001c98bf6,2021-09-11_17h43.09.326,arrow_simon_vert,2021.1.2,Win32,60.09254252,,,,,,,,,,,up,2.848,39,0,39,0,1,,,,,,,,,,,,,,,,,,,,,
,,,,,,,,,,,,,,,,,,,,,,,,,5d60b5beea1c1c0001c98bf6,2021-09-11_17h43.09.326,arrow_simon_vert,2021.1.2,Win32,60.09254252,,,,,,,,,,,left,3.359,40,0,40,0,1,,,,,,,,,,,,,,,,,,,,,
,,,,,,,,,,,,,,,,,,,,,,,,,5d60b5beea1c1c0001c98bf6,2021-09-11_17h43.09.326,arrow_simon_vert,2021.1.2,Win32,60.09254252,,,,,,,,,,,up,2.7858,41,0,41,0,1,,,,,,,,,,,,,,,,,,,,,
,,,,,,,,,,,,,,,,,,,,,,,,,5d60b5beea1c1c0001c98bf6,2021-09-11_17h43.09.326,arrow_simon_vert,2021.1.2,Win32,60.09254252,,,,,,,,,,,left,2.3059,42,0,42,0,1,,,,,,,,,,,,,,,,,,,,,
,,,,,,,,,,,,,,,,,,,,,,,,,5d60b5beea1c1c0001c98bf6,2021-09-11_17h43.09.326,arrow_simon_vert,2021.1.2,Win32,60.09254252,,,,,,,,,,,up,2.7358,43,0,43,0,1,,,,,,,,,,,,,,,,,,,,,
,,,,,,,,,,,,,,,,,,,,,,,,,5d60b5beea1c1c0001c98bf6,2021-09-11_17h43.09.326,arrow_simon_vert,2021.1.2,Win32,60.09254252,,,,,,,,,,,left,2.7635,44,0,44,0,1,,,,,,,,,,,,,,,,,,,,,
,,,,,,,,,,,,,,,,,,,,,,,,,5d60b5beea1c1c0001c98bf6,2021-09-11_17h43.09.326,arrow_simon_vert,2021.1.2,Win32,60.09254252,,,,,,,,,,,up,2.8726,45,0,45,0,1,,,,,,,,,,,,,,,,,,,,,
,,,,,,,,,,,,,,,,,,,,,,,,,5d60b5beea1c1c0001c98bf6,2021-09-11_17h43.09.326,arrow_simon_vert,2021.1.2,Win32,60.09254252,,,,,,,,,,,left,2.3947,46,0,46,0,1,,,,,,,,,,,,,,,,,,,,,
,,,,,,,,,,,,,,,,,,,,,,,,,5d60b5beea1c1c0001c98bf6,2021-09-11_17h43.09.326,arrow_simon_vert,2021.1.2,Win32,60.09254252,,,,,,,,,,,up,3.1248,47,0,47,0,1,,,,,,,,,,,,,,,,,,,,,
,,,,,,,,,,,,,,,,,,,,,,,,,5d60b5beea1c1c0001c98bf6,2021-09-11_17h43.09.326,arrow_simon_vert,2021.1.2,Win32,60.09254252,,,,,,,,,,,left,3.1994,48,0,48,0,1,,,,,,,,,,,,,,,,,,,,,
,,,,,,,,,,,,,,,,,,,,,,,,,5d60b5beea1c1c0001c98bf6,2021-09-11_17h43.09.326,arrow_simon_vert,2021.1.2,Win32,60.09254252,,,,,,,,,,,up,3.0561,49,0,49,0,1,,,,,,,,,,,,,,,,,,,,,
,,,,,,,,,,,,,,,,,,,,,,,,,5d60b5beea1c1c0001c98bf6,2021-09-11_17h43.09.326,arrow_simon_vert,2021.1.2,Win32,60.09254252,,,,,,,,,,,left,2.3581,50,0,50,0,1,,,,,,,,,,,,,,,,,,,,,
,,,,,,,,,,,,,,,,,,,,,,,,,5d60b5beea1c1c0001c98bf6,2021-09-11_17h43.09.326,arrow_simon_vert,2021.1.2,Win32,60.09254252,,,,,,,,,,,up,3.0645,51,0,51,0,1,,,,,,,,,,,,,,,,,,,,,
,,,,,,,,,,,,,,,,,,,,,,,,,5d60b5beea1c1c0001c98bf6,2021-09-11_17h43.09.326,arrow_simon_vert,2021.1.2,Win32,60.09254252,,,,,,,,,,,left,2.8463,52,0,52,0,1,,,,,,,,,,,,,,,,,,,,,
,,,,,,,,,,,,,,,,,,,,,,,,,5d60b5beea1c1c0001c98bf6,2021-09-11_17h43.09.326,arrow_simon_vert,2021.1.2,Win32,60.09254252,,,,,,,,,,,up,2.8227,53,0,53,0,1,,,,,,,,,,,,,,,,,,,,,
,,,,,,,,,,,,,,,,,,,,,,,,,5d60b5beea1c1c0001c98bf6,2021-09-11_17h43.09.326,arrow_simon_vert,2021.1.2,Win32,60.09254252,,,,,,,,,,,left,3.1168,54,0,54,0,1,,,,,,,,,,,,,,,,,,,,,
,,,,,,,,,,,,,,,,,,,,,,,,,5d60b5beea1c1c0001c98bf6,2021-09-11_17h43.09.326,arrow_simon_vert,2021.1.2,Win32,60.09254252,,,,,,,,,,,up,3.1846,55,0,55,0,1,,,,,,,,,,,,,,,,,,,,,
,,,,,,,,,,,,,,,,,,,,,,,,,5d60b5beea1c1c0001c98bf6,2021-09-11_17h43.09.326,arrow_simon_vert,2021.1.2,Win32,60.09254252,,,,,,,,,,,left,3.1067,56,0,56,0,1,,,,,,,,,,,,,,,,,,,,,
,,,,,,,,,,,,,,,,,,,,,,,,,5d60b5beea1c1c0001c98bf6,2021-09-11_17h43.09.326,arrow_simon_vert,2021.1.2,Win32,60.09254252,,,,,,,,,,,up,3.2453,57,0,57,0,1,,,,,,,,,,,,,,,,,,,,,
,,,,,,,,,,,,,,,,,,,,,,,,,5d60b5beea1c1c0001c98bf6,2021-09-11_17h43.09.326,arrow_simon_vert,2021.1.2,Win32,60.09254252,,,,,,,,,,,left,3.1475,58,0,58,0,1,,,,,,,,,,,,,,,,,,,,,
,,,,,,,,,,,,,,,,,,,,,,,,,5d60b5beea1c1c0001c98bf6,2021-09-11_17h43.09.326,arrow_simon_vert,2021.1.2,Win32,60.09254252,,,,,,,,,,,up,3.0233,59,0,59,0,1,,,,,,,,,,,,,,,,,,,,,
,,,,,,0,1.520807837,#a3d0fb,"[""0.25"",""0""]",left_blue.png,left,,,,,,,,left,left_blue.png,down_orange.png,down,right,up,5d60b5beea1c1c0001c98bf6,2021-09-11_17h43.09.326,arrow_simon_vert,2021.1.2,Win32,60.09254252,,,,,,,,,,,,,,,,,,space,0,92.147,left,1,1.3921,1,FALSE,TRUE,0,0,0,3,1,,,,,,,
,,,,,,0,2.184053956,#f3af84,"[""0"",""-0.25""]",down_orange.png,down,,,,,,,,left,left_blue.png,down_orange.png,down,left,down,5d60b5beea1c1c0001c98bf6,2021-09-11_17h43.09.326,arrow_simon_vert,2021.1.2,Win32,60.09254252,,,,,,,,,,,,,,,,,,,,,down,1,1.9543,2,TRUE,FALSE,0,1,1,2,1,,,,,,,
,,,,,,0,1.772142203,#a3d0fb,"[""0.25"",""0""]",right_blue.png,right,,,,,,,,right,right_blue.png,up_orange.png,up,right,up,5d60b5beea1c1c0001c98bf6,2021-09-11_17h43.09.326,arrow_simon_vert,2021.1.2,Win32,60.09254252,,,,,,,,,,,,,,,,,,,,,right,1,1.6215,3,TRUE,FALSE,0,2,2,1,1,,,,,,,
,,,,,,0,2.114403028,#f3af84,"[""0"",""-0.25""]",up_orange.png,up,,,,,,,,right,right_blue.png,up_orange.png,up,left,down,5d60b5beea1c1c0001c98bf6,2021-09-11_17h43.09.326,arrow_simon_vert,2021.1.2,Win32,60.09254252,,,,,,,,,,,,,,,,,,,,,up,1,1.805,4,TRUE,FALSE,0,3,3,0,1,,,,,,,
,,,,,,0,1.86557779,#a3d0fb,"[""-0.25"",""0""]",left_blue.png,left,,,,,,,,left,left_blue.png,down_orange.png,down,left,down,5d60b5beea1c1c0001c98bf6,2021-09-11_17h43.09.326,arrow_simon_vert,2021.1.2,Win32,60.09254252,,,,,,,,,,,,,,,,,,,,,left,1,1.4141,5,FALSE,FALSE,1,0,4,2,1,,,,,,,
,,,,,,0,2.159909788,#f3af84,"[""0"",""-0.25""]",down_orange.png,down,,,,,,,,left,left_blue.png,down_orange.png,down,left,down,5d60b5beea1c1c0001c98bf6,2021-09-11_17h43.09.326,arrow_simon_vert,2021.1.2,Win32,60.09254252,,,,,,,,,,,,,,,,,,,,,down,1,2.0008,6,TRUE,FALSE,1,1,5,2,1,,,,,,,
,,,,,,0,2.356209012,#a3d0fb,"[""0.25"",""0""]",right_blue.png,right,,,,,,,,right,right_blue.png,up_orange.png,up,right,up,5d60b5beea1c1c0001c98bf6,2021-09-11_17h43.09.326,arrow_simon_vert,2021.1.2,Win32,60.09254252,,,,,,,,,,,,,,,,,,,,,right,1,1.8809,7,TRUE,FALSE,1,2,6,1,1,,,,,,,
,,,,,,0,1.670041279,#f3af84,"[""0"",""-0.25""]",up_orange.png,up,,,,,,,,right,right_blue.png,up_orange.png,up,left,down,5d60b5beea1c1c0001c98bf6,2021-09-11_17h43.09.326,arrow_simon_vert,2021.1.2,Win32,60.09254252,,,,,,,,,,,,,,,,,,,,,up,1,1.5035,8,FALSE,FALSE,1,3,7,0,1,,,,,,,
,,,,,,0,2.237298033,#a3d0fb,"[""-0.25"",""0""]",left_blue.png,left,,,,,,,,left,left_blue.png,down_orange.png,down,left,down,5d60b5beea1c1c0001c98bf6,2021-09-11_17h43.09.326,arrow_simon_vert,2021.1.2,Win32,60.09254252,,,,,,,,,,,,,,,,,,,,,left,1,1.8931,9,TRUE,FALSE,2,0,8,2,1,,,,,,,
,,,,,,0,1.67812987,#f3af84,"[""0"",""0.25""]",down_orange.png,down,,,,,,,,left,left_blue.png,down_orange.png,down,right,up,5d60b5beea1c1c0001c98bf6,2021-09-11_17h43.09.326,arrow_simon_vert,2021.1.2,Win32,60.09254252,,,,,,,,,,,,,,,,,,,,,down,1,1.4198,10,FALSE,FALSE,2,1,9,3,1,,,,,,,
,,,,,,0,2.443739289,#a3d0fb,"[""0.25"",""0""]",right_blue.png,right,,,,,,,,right,right_blue.png,up_orange.png,up,right,up,5d60b5beea1c1c0001c98bf6,2021-09-11_17h43.09.326,arrow_simon_vert,2021.1.2,Win32,60.09254252,,,,,,,,,,,,,,,,,,,,,right,1,2.0372,11,TRUE,FALSE,2,2,10,1,1,,,,,,,
,,,,,,0,1.609231953,#f3af84,"[""0"",""0.25""]",up_orange.png,up,,,,,,,,right,right_blue.png,up_orange.png,up,right,up,5d60b5beea1c1c0001c98bf6,2021-09-11_17h43.09.326,arrow_simon_vert,2021.1.2,Win32,60.09254252,,,,,,,,,,,,,,,,,,,,,up,1,1.1707,12,FALSE,TRUE,2,3,11,1,1,,,,,,,
,,,,,,0,1.956715377,#a3d0fb,"[""-0.25"",""0""]",left_blue.png,left,,,,,,,,left,left_blue.png,down_orange.png,down,left,down,5d60b5beea1c1c0001c98bf6,2021-09-11_17h43.09.326,arrow_simon_vert,2021.1.2,Win32,60.09254252,,,,,,,,,,,,,,,,,,,,,left,1,1.8135,13,TRUE,FALSE,3,0,12,2,1,,,,,,,
,,,,,,0,2.204498218,#f3af84,"[""0"",""0.25""]",up_orange.png,up,,,,,,,,right,right_blue.png,up_orange.png,up,right,up,5d60b5beea1c1c0001c98bf6,2021-09-11_17h43.09.326,arrow_simon_vert,2021.1.2,Win32,60.09254252,,,,,,,,,,,,,,,,,,,,,up,1,1.8538,14,TRUE,FALSE,3,1,13,1,1,,,,,,,
,,,,,,0,2.164042958,#a3d0fb,"[""-0.25"",""0""]",left_blue.png,left,,,,,,,,left,left_blue.png,down_orange.png,down,left,down,5d60b5beea1c1c0001c98bf6,2021-09-11_17h43.09.326,arrow_simon_vert,2021.1.2,Win32,60.09254252,,,,,,,,,,,,,,,,,,,,,left,1,1.7701,15,TRUE,FALSE,3,2,14,2,1,,,,,,,
,,,,,,0,2.296281733,#f3af84,"[""0"",""-0.25""]",down_orange.png,down,,,,,,,,left,left_blue.png,down_orange.png,down,left,down,5d60b5beea1c1c0001c98bf6,2021-09-11_17h43.09.326,arrow_simon_vert,2021.1.2,Win32,60.09254252,,,,,,,,,,,,,,,,,,,,,down,1,1.9875,16,TRUE,FALSE,3,3,15,2,1,,,,,,,
,,,,,,0,2.298011237,#a3d0fb,"[""-0.25"",""0""]",right_blue.png,right,,,,,,,,right,right_blue.png,up_orange.png,up,left,down,5d60b5beea1c1c0001c98bf6,2021-09-11_17h43.09.326,arrow_simon_vert,2021.1.2,Win32,60.09254252,,,,,,,,,,,,,,,,,,,,,left,0,1.7867,17,TRUE,FALSE,4,0,16,0,1,,,,,,,
,,,,,,0,1.602251396,#f3af84,"[""0"",""0.25""]",down_orange.png,down,,,,,,,,left,left_blue.png,down_orange.png,down,right,up,5d60b5beea1c1c0001c98bf6,2021-09-11_17h43.09.326,arrow_simon_vert,2021.1.2,Win32,60.09254252,,,,,,,,,,,,,,,,,,,,,down,1,1.5634,18,FALSE,FALSE,4,1,17,3,1,,,,,,,
,,,,,,0,2.281573475,#a3d0fb,"[""-0.25"",""0""]",right_blue.png,right,,,,,,,,right,right_blue.png,up_orange.png,up,left,down,5d60b5beea1c1c0001c98bf6,2021-09-11_17h43.09.326,arrow_simon_vert,2021.1.2,Win32,60.09254252,,,,,,,,,,,,,,,,,,,,,right,1,1.8614,19,TRUE,FALSE,4,2,18,0,1,,,,,,,
,,,,,,0,1.775684302,#f3af84,"[""0"",""-0.25""]",down_orange.png,down,,,,,,,,left,left_blue.png,down_orange.png,down,left,down,5d60b5beea1c1c0001c98bf6,2021-09-11_17h43.09.326,arrow_simon_vert,2021.1.2,Win32,60.09254252,,,,,,,,,,,,,,,,,,,,,down,1,1.6534,20,TRUE,FALSE,4,3,19,2,1,,,,,,,
,,,,,,0,2.284452959,#a3d0fb,"[""-0.25"",""0""]",right_blue.png,right,,,,,,,,right,right_blue.png,up_orange.png,up,left,down,5d60b5beea1c1c0001c98bf6,2021-09-11_17h43.09.326,arrow_simon_vert,2021.1.2,Win32,60.09254252,,,,,,,,,,,,,,,,,,,,,right,1,1.8872,21,TRUE,FALSE,5,0,20,0,1,,,,,,,
,,,,,,0,2.225979393,#f3af84,"[""0"",""0.25""]",down_orange.png,down,,,,,,,,left,left_blue.png,down_orange.png,down,right,up,5d60b5beea1c1c0001c98bf6,2021-09-11_17h43.09.326,arrow_simon_vert,2021.1.2,Win32,60.09254252,,,,,,,,,,,,,,,,,,,,,down,1,1.9608,22,TRUE,FALSE,5,1,21,3,1,,,,,,,
,,,,,,0,1.994665314,#a3d0fb,"[""0.25"",""0""]",left_blue.png,left,,,,,,,,left,left_blue.png,down_orange.png,down,right,up,5d60b5beea1c1c0001c98bf6,2021-09-11_17h43.09.326,arrow_simon_vert,2021.1.2,Win32,60.09254252,,,,,,,,,,,,,,,,,,,,,left,1,1.6872,23,TRUE,FALSE,5,2,22,3,1,,,,,,,
,,,,,,0,2.125350064,#f3af84,"[""0"",""0.25""]",up_orange.png,up,,,,,,,,right,right_blue.png,up_orange.png,up,right,up,5d60b5beea1c1c0001c98bf6,2021-09-11_17h43.09.326,arrow_simon_vert,2021.1.2,Win32,60.09254252,,,,,,,,,,,,,,,,,,,,,up,1,1.8414,24,TRUE,FALSE,5,3,23,1,1,,,,,,,
,,,,,,0,2.297338331,#a3d0fb,"[""-0.25"",""0""]",right_blue.png,right,,,,,,,,right,right_blue.png,up_orange.png,up,left,down,5d60b5beea1c1c0001c98bf6,2021-09-11_17h43.09.326,arrow_simon_vert,2021.1.2,Win32,60.09254252,,,,,,,,,,,,,,,,,,,,,right,1,1.9443,25,TRUE,FALSE,6,0,24,0,1,,,,,,,
,,,,,,0,1.910943181,#f3af84,"[""0"",""0.25""]",up_orange.png,up,,,,,,,,right,right_blue.png,up_orange.png,up,right,up,5d60b5beea1c1c0001c98bf6,2021-09-11_17h43.09.326,arrow_simon_vert,2021.1.2,Win32,60.09254252,,,,,,,,,,,,,,,,,,,,,up,1,1.9477,26,TRUE,FALSE,6,1,25,1,1,,,,,,,
,,,,,,0,1.738043903,#a3d0fb,"[""0.25"",""0""]",right_blue.png,right,,,,,,,,right,right_blue.png,up_orange.png,up,right,up,5d60b5beea1c1c0001c98bf6,2021-09-11_17h43.09.326,arrow_simon_vert,2021.1.2,Win32,60.09254252,,,,,,,,,,,,,,,,,,,,,right,1,1.2318,27,FALSE,TRUE,6,2,26,1,1,,,,,,,
,,,,,,0,1.84965942,#f3af84,"[""0"",""-0.25""]",up_orange.png,up,,,,,,,,right,right_blue.png,up_orange.png,up,left,down,5d60b5beea1c1c0001c98bf6,2021-09-11_17h43.09.326,arrow_simon_vert,2021.1.2,Win32,60.09254252,,,,,,,,,,,,,,,,,,,,,up,1,1.5368,28,FALSE,FALSE,6,3,27,0,1,,,,,,,
,,,,,,0,1.614869995,#a3d0fb,"[""-0.25"",""0""]",right_blue.png,right,,,,,,,,right,right_blue.png,up_orange.png,up,left,down,5d60b5beea1c1c0001c98bf6,2021-09-11_17h43.09.326,arrow_simon_vert,2021.1.2,Win32,60.09254252,,,,,,,,,,,,,,,,,,,,,right,1,1.7325,29,TRUE,FALSE,7,0,28,0,1,,,,,,,
,,,,,,0,1.878049703,#f3af84,"[""0"",""-0.25""]",down_orange.png,down,,,,,,,,left,left_blue.png,down_orange.png,down,left,down,5d60b5beea1c1c0001c98bf6,2021-09-11_17h43.09.326,arrow_simon_vert,2021.1.2,Win32,60.09254252,,,,,,,,,,,,,,,,,,,,,down,1,1.6896,30,TRUE,FALSE,7,1,29,2,1,,,,,,,
,,,,,,0,1.625453085,#a3d0fb,"[""0.25"",""0""]",right_blue.png,right,,,,,,,,right,right_blue.png,up_orange.png,up,right,up,5d60b5beea1c1c0001c98bf6,2021-09-11_17h43.09.326,arrow_simon_vert,2021.1.2,Win32,60.09254252,,,,,,,,,,,,,,,,,,,,,right,1,1.1747,31,FALSE,TRUE,7,2,30,1,1,,,,,,,
,,,,,,0,2.034708865,#f3af84,"[""0"",""-0.25""]",up_orange.png,up,,,,,,,,right,right_blue.png,up_orange.png,up,left,down,5d60b5beea1c1c0001c98bf6,2021-09-11_17h43.09.326,arrow_simon_vert,2021.1.2,Win32,60.09254252,,,,,,,,,,,,,,,,,,,,,up,1,1.7301,32,TRUE,FALSE,7,3,31,0,1,,,,,,,
,,,,,,0,1.68624557,#a3d0fb,"[""0.25"",""0""]",left_blue.png,left,,,,,,,,left,left_blue.png,down_orange.png,down,right,up,5d60b5beea1c1c0001c98bf6,2021-09-11_17h43.09.326,arrow_simon_vert,2021.1.2,Win32,60.09254252,,,,,,,,,,,,,,,,,,,,,left,1,1.4146,33,FALSE,FALSE,8,0,32,3,1,,,,,,,
,,,,,,0,1.70891334,#f3af84,"[""0"",""0.25""]",down_orange.png,down,,,,,,,,left,left_blue.png,down_orange.png,down,right,up,5d60b5beea1c1c0001c98bf6,2021-09-11_17h43.09.326,arrow_simon_vert,2021.1.2,Win32,60.09254252,,,,,,,,,,,,,,,,,,,,,down,1,1.8875,34,TRUE,FALSE,8,1,33,3,1,,,,,,,
,,,,,,0,2.491169001,#a3d0fb,"[""-0.25"",""0""]",left_blue.png,left,,,,,,,,left,left_blue.png,down_orange.png,down,left,down,5d60b5beea1c1c0001c98bf6,2021-09-11_17h43.09.326,arrow_simon_vert,2021.1.2,Win32,60.09254252,,,,,,,,,,,,,,,,,,,,,left,1,2.165,35,TRUE,FALSE,8,2,34,2,1,,,,,,,
,,,,,,0,1.506948522,#f3af84,"[""0"",""0.25""]",up_orange.png,up,,,,,,,,right,right_blue.png,up_orange.png,up,right,up,5d60b5beea1c1c0001c98bf6,2021-09-11_17h43.09.326,arrow_simon_vert,2021.1.2,Win32,60.09254252,,,,,,,,,,,,,,,,,,,,,up,1,1.344,36,FALSE,TRUE,8,3,35,1,1,,,,,,,
,,,,,,0,1.786639672,#a3d0fb,"[""0.25"",""0""]",left_blue.png,left,,,,,,,,left,left_blue.png,down_orange.png,down,right,up,5d60b5beea1c1c0001c98bf6,2021-09-11_17h43.09.326,arrow_simon_vert,2021.1.2,Win32,60.09254252,,,,,,,,,,,,,,,,,,,,,left,1,2.0873,37,TRUE,FALSE,9,0,36,3,1,,,,,,,
,,,,,,0,2.339292074,#f3af84,"[""0"",""-0.25""]",up_orange.png,up,,,,,,,,right,right_blue.png,up_orange.png,up,left,down,5d60b5beea1c1c0001c98bf6,2021-09-11_17h43.09.326,arrow_simon_vert,2021.1.2,Win32,60.09254252,,,,,,,,,,,,,,,,,,,,,up,1,2.0204,38,TRUE,FALSE,9,1,37,0,1,,,,,,,
,,,,,,0,1.612307087,#a3d0fb,"[""0.25"",""0""]",left_blue.png,left,,,,,,,,left,left_blue.png,down_orange.png,down,right,up,5d60b5beea1c1c0001c98bf6,2021-09-11_17h43.09.326,arrow_simon_vert,2021.1.2,Win32,60.09254252,,,,,,,,,,,,,,,,,,,,,left,1,1.546,39,FALSE,FALSE,9,2,38,3,1,,,,,,,
,,,,,,0,2.26008333,#f3af84,"[""0"",""0.25""]",down_orange.png,down,,,,,,,,left,left_blue.png,down_orange.png,down,right,up,5d60b5beea1c1c0001c98bf6,2021-09-11_17h43.09.326,arrow_simon_vert,2021.1.2,Win32,60.09254252,,,,,,,,,,,,,,,,,,,,,down,1,2.071,40,TRUE,FALSE,9,3,39,3,1,,,,,,,
,,,,,,0,1.555073076,#a3d0fb,"[""0.25"",""0""]",right_blue.png,right,,,,,,,,right,right_blue.png,up_orange.png,up,right,up,5d60b5beea1c1c0001c98bf6,2021-09-11_17h43.09.326,arrow_simon_vert,2021.1.2,Win32,60.09254252,,,,,,,,,,,,,,,,,,,,,right,1,1.1188,41,FALSE,TRUE,10,0,40,1,1,,,,,,,
,,,,,,0,2.224664247,#f3af84,"[""0"",""-0.25""]",down_orange.png,down,,,,,,,,left,left_blue.png,down_orange.png,down,left,down,5d60b5beea1c1c0001c98bf6,2021-09-11_17h43.09.326,arrow_simon_vert,2021.1.2,Win32,60.09254252,,,,,,,,,,,,,,,,,,,,,down,1,1.9068,42,TRUE,FALSE,10,1,41,2,1,,,,,,,
,,,,,,0,2.379738386,#a3d0fb,"[""0.25"",""0""]",left_blue.png,left,,,,,,,,left,left_blue.png,down_orange.png,down,right,up,5d60b5beea1c1c0001c98bf6,2021-09-11_17h43.09.326,arrow_simon_vert,2021.1.2,Win32,60.09254252,,,,,,,,,,,,,,,,,,,,,left,1,2.0383,43,TRUE,FALSE,10,2,42,3,1,,,,,,,
,,,,,,0,2.314058707,#f3af84,"[""0"",""0.25""]",up_orange.png,up,,,,,,,,right,right_blue.png,up_orange.png,up,right,up,5d60b5beea1c1c0001c98bf6,2021-09-11_17h43.09.326,arrow_simon_vert,2021.1.2,Win32,60.09254252,,,,,,,,,,,,,,,,,,,,,up,1,2.0873,44,TRUE,FALSE,10,3,43,1,1,,,,,,,
,,,,,,0,1.520377498,#a3d0fb,"[""-0.25"",""0""]",right_blue.png,right,,,,,,,,right,right_blue.png,up_orange.png,up,left,down,5d60b5beea1c1c0001c98bf6,2021-09-11_17h43.09.326,arrow_simon_vert,2021.1.2,Win32,60.09254252,,,,,,,,,,,,,,,,,,,,,right,1,1.2114,45,FALSE,TRUE,11,0,44,0,1,,,,,,,
,,,,,,0,2.119961262,#f3af84,"[""0"",""-0.25""]",down_orange.png,down,,,,,,,,left,left_blue.png,down_orange.png,down,left,down,5d60b5beea1c1c0001c98bf6,2021-09-11_17h43.09.326,arrow_simon_vert,2021.1.2,Win32,60.09254252,,,,,,,,,,,,,,,,,,,,,down,1,2.5327,46,TRUE,FALSE,11,1,45,2,1,,,,,,,
,,,,,,0,1.524462694,#a3d0fb,"[""-0.25"",""0""]",left_blue.png,left,,,,,,,,left,left_blue.png,down_orange.png,down,left,down,5d60b5beea1c1c0001c98bf6,2021-09-11_17h43.09.326,arrow_simon_vert,2021.1.2,Win32,60.09254252,,,,,,,,,,,,,,,,,,,,,left,1,1.9539,47,TRUE,FALSE,11,2,46,2,1,,,,,,,
,,,,,,0,1.876756119,#f3af84,"[""0"",""0.25""]",up_orange.png,up,,,,,,,,right,right_blue.png,up_orange.png,up,right,up,5d60b5beea1c1c0001c98bf6,2021-09-11_17h43.09.326,arrow_simon_vert,2021.1.2,Win32,60.09254252,,,,,,,,,,,,,,,,,,,,,up,1,1.854,48,TRUE,FALSE,11,3,47,1,1,,,,,,,
,,,,,,0,1.603723855,#a3d0fb,"[""0.25"",""0""]",left_blue.png,left,,,,,,,,left,left_blue.png,down_orange.png,down,right,up,5d60b5beea1c1c0001c98bf6,2021-09-11_17h43.09.326,arrow_simon_vert,2021.1.2,Win32,60.09254252,,,,,,,,,,,,,,,,,,,,,left,1,2.0817,49,TRUE,FALSE,12,0,48,3,1,,,,,,,
,,,,,,0,1.527824126,#f3af84,"[""0"",""-0.25""]",down_orange.png,down,,,,,,,,left,left_blue.png,down_orange.png,down,left,down,5d60b5beea1c1c0001c98bf6,2021-09-11_17h43.09.326,arrow_simon_vert,2021.1.2,Win32,60.09254252,,,,,,,,,,,,,,,,,,,,,down,1,1.8874,50,TRUE,FALSE,12,1,49,2,1,,,,,,,
,,,,,,0,1.913958843,#a3d0fb,"[""0.25"",""0""]",left_blue.png,left,,,,,,,,left,left_blue.png,down_orange.png,down,right,up,5d60b5beea1c1c0001c98bf6,2021-09-11_17h43.09.326,arrow_simon_vert,2021.1.2,Win32,60.09254252,,,,,,,,,,,,,,,,,,,,,left,1,1.7653,51,TRUE,FALSE,12,2,50,3,1,,,,,,,
,,,,,,0,2.484183711,#f3af84,"[""0"",""-0.25""]",up_orange.png,up,,,,,,,,right,right_blue.png,up_orange.png,up,left,down,5d60b5beea1c1c0001c98bf6,2021-09-11_17h43.09.326,arrow_simon_vert,2021.1.2,Win32,60.09254252,,,,,,,,,,,,,,,,,,,,,up,1,2.0317,52,TRUE,FALSE,12,3,51,0,1,,,,,,,
,,,,,,0,1.761654434,#a3d0fb,"[""0.25"",""0""]",left_blue.png,left,,,,,,,,left,left_blue.png,down_orange.png,down,right,up,5d60b5beea1c1c0001c98bf6,2021-09-11_17h43.09.326,arrow_simon_vert,2021.1.2,Win32,60.09254252,,,,,,,,,,,,,,,,,,,,,left,1,1.4185,53,FALSE,FALSE,13,0,52,3,1,,,,,,,
,,,,,,0,1.960466509,#f3af84,"[""0"",""0.25""]",up_orange.png,up,,,,,,,,right,right_blue.png,up_orange.png,up,right,up,5d60b5beea1c1c0001c98bf6,2021-09-11_17h43.09.326,arrow_simon_vert,2021.1.2,Win32,60.09254252,,,,,,,,,,,,,,,,,,,,,up,1,1.5054,54,FALSE,FALSE,13,1,53,1,1,,,,,,,
,,,,,,0,2.323942613,#a3d0fb,"[""0.25"",""0""]",left_blue.png,left,,,,,,,,left,left_blue.png,down_orange.png,down,right,up,5d60b5beea1c1c0001c98bf6,2021-09-11_17h43.09.326,arrow_simon_vert,2021.1.2,Win32,60.09254252,,,,,,,,,,,,,,,,,,,,,left,1,1.878,55,TRUE,FALSE,13,2,54,3,1,,,,,,,
,,,,,,0,2.240046374,#f3af84,"[""0"",""-0.25""]",down_orange.png,down,,,,,,,,left,left_blue.png,down_orange.png,down,left,down,5d60b5beea1c1c0001c98bf6,2021-09-11_17h43.09.326,arrow_simon_vert,2021.1.2,Win32,60.09254252,,,,,,,,,,,,,,,,,,,,,down,1,2.0121,56,TRUE,FALSE,13,3,55,2,1,,,,,,,
,,,,,,0,2.400264069,#a3d0fb,"[""-0.25"",""0""]",right_blue.png,right,,,,,,,,right,right_blue.png,up_orange.png,up,left,down,5d60b5beea1c1c0001c98bf6,2021-09-11_17h43.09.326,arrow_simon_vert,2021.1.2,Win32,60.09254252,,,,,,,,,,,,,,,,,,,,,right,1,2.0377,57,TRUE,FALSE,14,0,56,0,1,,,,,,,
,,,,,,0,1.625942866,#f3af84,"[""0"",""0.25""]",up_orange.png,up,,,,,,,,right,right_blue.png,up_orange.png,up,right,up,5d60b5beea1c1c0001c98bf6,2021-09-11_17h43.09.326,arrow_simon_vert,2021.1.2,Win32,60.09254252,,,,,,,,,,,,,,,,,,,,,up,1,1.1305,58,FALSE,TRUE,14,1,57,1,1,,,,,,,
,,,,,,0,2.160605747,#a3d0fb,"[""-0.25"",""0""]",right_blue.png,right,,,,,,,,right,right_blue.png,up_orange.png,up,left,down,5d60b5beea1c1c0001c98bf6,2021-09-11_17h43.09.326,arrow_simon_vert,2021.1.2,Win32,60.09254252,,,,,,,,,,,,,,,,,,,,,right,1,1.819,59,TRUE,FALSE,14,2,58,0,1,,,,,,,
,,,,,,0,2.003657337,#f3af84,"[""0"",""-0.25""]",up_orange.png,up,,,,,,,,right,right_blue.png,up_orange.png,up,left,down,5d60b5beea1c1c0001c98bf6,2021-09-11_17h43.09.326,arrow_simon_vert,2021.1.2,Win32,60.09254252,,,,,,,,,,,,,,,,,,,,,up,1,1.6369,60,TRUE,FALSE,14,3,59,0,1,,,,,,,
,,,,,,,,,,,,,,,,,,,,,,,,,5d60b5beea1c1c0001c98bf6,2021-09-11_17h43.09.326,arrow_simon_vert,2021.1.2,Win32,60.09254252,,,,,,,,,,,,,,,,,,,,,,,,,,,,,,,,space,40.2892,0,0,0,0,1
,,,,,,0,1.526458319,#a3d0fb,"[""0.25"",""0""]",right_blue.png,right,,,,,,,,right,right_blue.png,up_orange.png,up,right,up,5d60b5beea1c1c0001c98bf6,2021-09-11_17h43.09.326,arrow_simon_vert,2021.1.2,Win32,60.09254252,,,,,,,,,,,,,,,,,,,,,right,1,1.2271,1,FALSE,TRUE,0,0,0,1,1,,,,,,,
,,,,,,0,2.288478752,#f3af84,"[""0"",""0.25""]",up_orange.png,up,,,,,,,,right,right_blue.png,up_orange.png,up,right,up,5d60b5beea1c1c0001c98bf6,2021-09-11_17h43.09.326,arrow_simon_vert,2021.1.2,Win32,60.09254252,,,,,,,,,,,,,,,,,,,,,up,1,1.8043,2,TRUE,FALSE,0,1,1,1,1,,,,,,,
,,,,,,0,1.75734349,#a3d0fb,"[""-0.25"",""0""]",left_blue.png,left,,,,,,,,left,left_blue.png,down_orange.png,down,left,down,5d60b5beea1c1c0001c98bf6,2021-09-11_17h43.09.326,arrow_simon_vert,2021.1.2,Win32,60.09254252,,,,,,,,,,,,,,,,,,,,,left,1,1.3526,3,FALSE,TRUE,0,2,2,2,1,,,,,,,
,,,,,,0,2.090555565,#f3af84,"[""0"",""0.25""]",up_orange.png,up,,,,,,,,right,right_blue.png,up_orange.png,up,right,up,5d60b5beea1c1c0001c98bf6,2021-09-11_17h43.09.326,arrow_simon_vert,2021.1.2,Win32,60.09254252,,,,,,,,,,,,,,,,,,,,,up,1,1.8661,4,TRUE,FALSE,0,3,3,1,1,,,,,,,
,,,,,,0,2.315189948,#a3d0fb,"[""-0.25"",""0""]",right_blue.png,right,,,,,,,,right,right_blue.png,up_orange.png,up,left,down,5d60b5beea1c1c0001c98bf6,2021-09-11_17h43.09.326,arrow_simon_vert,2021.1.2,Win32,60.09254252,,,,,,,,,,,,,,,,,,,,,right,1,2.1042,5,TRUE,FALSE,1,0,4,0,1,,,,,,,
,,,,,,0,1.503714381,#f3af84,"[""0"",""0.25""]",down_orange.png,down,,,,,,,,left,left_blue.png,down_orange.png,down,right,up,5d60b5beea1c1c0001c98bf6,2021-09-11_17h43.09.326,arrow_simon_vert,2021.1.2,Win32,60.09254252,,,,,,,,,,,,,,,,,,,,,down,1,2.1042,6,TRUE,FALSE,1,1,5,3,1,,,,,,,
,,,,,,0,2.19164941,#a3d0fb,"[""-0.25"",""0""]",right_blue.png,right,,,,,,,,right,right_blue.png,up_orange.png,up,left,down,5d60b5beea1c1c0001c98bf6,2021-09-11_17h43.09.326,arrow_simon_vert,2021.1.2,Win32,60.09254252,,,,,,,,,,,,,,,,,,,,,right,1,1.8242,7,TRUE,FALSE,1,2,6,0,1,,,,,,,
,,,,,,0,2.482239798,#f3af84,"[""0"",""0.25""]",down_orange.png,down,,,,,,,,left,left_blue.png,down_orange.png,down,right,up,5d60b5beea1c1c0001c98bf6,2021-09-11_17h43.09.326,arrow_simon_vert,2021.1.2,Win32,60.09254252,,,,,,,,,,,,,,,,,,,,,down,1,2.2635,8,TRUE,FALSE,1,3,7,3,1,,,,,,,
,,,,,,0,1.819454788,#a3d0fb,"[""0.25"",""0""]",left_blue.png,left,,,,,,,,left,left_blue.png,down_orange.png,down,right,up,5d60b5beea1c1c0001c98bf6,2021-09-11_17h43.09.326,arrow_simon_vert,2021.1.2,Win32,60.09254252,,,,,,,,,,,,,,,,,,,,,left,1,1.554,9,FALSE,FALSE,2,0,8,3,1,,,,,,,
,,,,,,0,1.923008964,#f3af84,"[""0"",""-0.25""]",up_orange.png,up,,,,,,,,right,right_blue.png,up_orange.png,up,left,down,5d60b5beea1c1c0001c98bf6,2021-09-11_17h43.09.326,arrow_simon_vert,2021.1.2,Win32,60.09254252,,,,,,,,,,,,,,,,,,,,,up,1,1.8418,10,TRUE,FALSE,2,1,9,0,1,,,,,,,
,,,,,,0,1.622716301,#a3d0fb,"[""0.25"",""0""]",right_blue.png,right,,,,,,,,right,right_blue.png,up_orange.png,up,right,up,5d60b5beea1c1c0001c98bf6,2021-09-11_17h43.09.326,arrow_simon_vert,2021.1.2,Win32,60.09254252,,,,,,,,,,,,,,,,,,,,,right,1,1.1529,11,FALSE,TRUE,2,2,10,1,1,,,,,,,
,,,,,,0,2.029040663,#f3af84,"[""0"",""-0.25""]",down_orange.png,down,,,,,,,,left,left_blue.png,down_orange.png,down,left,down,5d60b5beea1c1c0001c98bf6,2021-09-11_17h43.09.326,arrow_simon_vert,2021.1.2,Win32,60.09254252,,,,,,,,,,,,,,,,,,,,,down,1,1.6609,12,TRUE,FALSE,2,3,11,2,1,,,,,,,
,,,,,,0,1.758505103,#a3d0fb,"[""0.25"",""0""]",right_blue.png,right,,,,,,,,right,right_blue.png,up_orange.png,up,right,up,5d60b5beea1c1c0001c98bf6,2021-09-11_17h43.09.326,arrow_simon_vert,2021.1.2,Win32,60.09254252,,,,,,,,,,,,,,,,,,,,,right,1,1.3406,13,FALSE,TRUE,3,0,12,1,1,,,,,,,
,,,,,,0,1.708479006,#f3af84,"[""0"",""-0.25""]",up_orange.png,up,,,,,,,,right,right_blue.png,up_orange.png,up,left,down,5d60b5beea1c1c0001c98bf6,2021-09-11_17h43.09.326,arrow_simon_vert,2021.1.2,Win32,60.09254252,,,,,,,,,,,,,,,,,,,,,up,1,2.0639,14,TRUE,FALSE,3,1,13,0,1,,,,,,,
,,,,,,0,2.355929945,#a3d0fb,"[""0.25"",""0""]",right_blue.png,right,,,,,,,,right,right_blue.png,up_orange.png,up,right,up,5d60b5beea1c1c0001c98bf6,2021-09-11_17h43.09.326,arrow_simon_vert,2021.1.2,Win32,60.09254252,,,,,,,,,,,,,,,,,,,,,right,1,2.0709,15,TRUE,FALSE,3,2,14,1,1,,,,,,,
,,,,,,0,1.52414015,#f3af84,"[""0"",""0.25""]",up_orange.png,up,,,,,,,,right,right_blue.png,up_orange.png,up,right,up,5d60b5beea1c1c0001c98bf6,2021-09-11_17h43.09.326,arrow_simon_vert,2021.1.2,Win32,60.09254252,,,,,,,,,,,,,,,,,,,,,up,1,1.2935,16,FALSE,TRUE,3,3,15,1,1,,,,,,,
,,,,,,0,1.659129331,#a3d0fb,"[""0.25"",""0""]",right_blue.png,right,,,,,,,,right,right_blue.png,up_orange.png,up,right,up,5d60b5beea1c1c0001c98bf6,2021-09-11_17h43.09.326,arrow_simon_vert,2021.1.2,Win32,60.09254252,,,,,,,,,,,,,,,,,,,,,right,1,1.403,17,FALSE,FALSE,4,0,16,1,1,,,,,,,
,,,,,,0,1.753296567,#f3af84,"[""0"",""0.25""]",down_orange.png,down,,,,,,,,left,left_blue.png,down_orange.png,down,right,up,5d60b5beea1c1c0001c98bf6,2021-09-11_17h43.09.326,arrow_simon_vert,2021.1.2,Win32,60.09254252,,,,,,,,,,,,,,,,,,,,,down,1,1.7715,18,TRUE,FALSE,4,1,17,3,1,,,,,,,
,,,,,,0,1.881310464,#a3d0fb,"[""0.25"",""0""]",left_blue.png,left,,,,,,,,left,left_blue.png,down_orange.png,down,right,up,5d60b5beea1c1c0001c98bf6,2021-09-11_17h43.09.326,arrow_simon_vert,2021.1.2,Win32,60.09254252,,,,,,,,,,,,,,,,,,,,,left,1,1.6709,19,TRUE,FALSE,4,2,18,3,1,,,,,,,
,,,,,,0,1.926027831,#f3af84,"[""0"",""0.25""]",down_orange.png,down,,,,,,,,left,left_blue.png,down_orange.png,down,right,up,5d60b5beea1c1c0001c98bf6,2021-09-11_17h43.09.326,arrow_simon_vert,2021.1.2,Win32,60.09254252,,,,,,,,,,,,,,,,,,,,,down,1,1.6369,20,TRUE,FALSE,4,3,19,3,1,,,,,,,
,,,,,,0,2.086409997,#a3d0fb,"[""-0.25"",""0""]",left_blue.png,left,,,,,,,,left,left_blue.png,down_orange.png,down,left,down,5d60b5beea1c1c0001c98bf6,2021-09-11_17h43.09.326,arrow_simon_vert,2021.1.2,Win32,60.09254252,,,,,,,,,,,,,,,,,,,,,left,1,1.6548,21,TRUE,FALSE,5,0,20,2,1,,,,,,,
,,,,,,0,1.802786654,#f3af84,"[""0"",""-0.25""]",up_orange.png,up,,,,,,,,right,right_blue.png,up_orange.png,up,left,down,5d60b5beea1c1c0001c98bf6,2021-09-11_17h43.09.326,arrow_simon_vert,2021.1.2,Win32,60.09254252,,,,,,,,,,,,,,,,,,,,,up,1,1.9228,22,TRUE,FALSE,5,1,21,0,1,,,,,,,
,,,,,,0,1.867097174,#a3d0fb,"[""-0.25"",""0""]",right_blue.png,right,,,,,,,,right,right_blue.png,up_orange.png,up,left,down,5d60b5beea1c1c0001c98bf6,2021-09-11_17h43.09.326,arrow_simon_vert,2021.1.2,Win32,60.09254252,,,,,,,,,,,,,,,,,,,,,right,1,1.52,23,FALSE,FALSE,5,2,22,0,1,,,,,,,
,,,,,,0,2.076884828,#f3af84,"[""0"",""0.25""]",down_orange.png,down,,,,,,,,left,left_blue.png,down_orange.png,down,right,up,5d60b5beea1c1c0001c98bf6,2021-09-11_17h43.09.326,arrow_simon_vert,2021.1.2,Win32,60.09254252,,,,,,,,,,,,,,,,,,,,,down,1,1.937,24,TRUE,FALSE,5,3,23,3,1,,,,,,,
,,,,,,0,1.62761085,#a3d0fb,"[""0.25"",""0""]",right_blue.png,right,,,,,,,,right,right_blue.png,up_orange.png,up,right,up,5d60b5beea1c1c0001c98bf6,2021-09-11_17h43.09.326,arrow_simon_vert,2021.1.2,Win32,60.09254252,,,,,,,,,,,,,,,,,,,,,right,1,1.1863,25,FALSE,TRUE,6,0,24,1,1,,,,,,,
,,,,,,0,2.029620385,#f3af84,"[""0"",""-0.25""]",down_orange.png,down,,,,,,,,left,left_blue.png,down_orange.png,down,left,down,5d60b5beea1c1c0001c98bf6,2021-09-11_17h43.09.326,arrow_simon_vert,2021.1.2,Win32,60.09254252,,,,,,,,,,,,,,,,,,,,,down,1,1.8171,26,TRUE,FALSE,6,1,25,2,1,,,,,,,
,,,,,,0,1.556798662,#a3d0fb,"[""-0.25"",""0""]",right_blue.png,right,,,,,,,,right,right_blue.png,up_orange.png,up,left,down,5d60b5beea1c1c0001c98bf6,2021-09-11_17h43.09.326,arrow_simon_vert,2021.1.2,Win32,60.09254252,,,,,,,,,,,,,,,,,,,,,right,1,1.1613,27,FALSE,TRUE,6,2,26,0,1,,,,,,,
,,,,,,1,2.019508545,#f3af84,"[""0"",""0.25""]",down_orange.png,down,,,,,,,,left,left_blue.png,down_orange.png,down,right,up,5d60b5beea1c1c0001c98bf6,2021-09-11_17h43.09.326,arrow_simon_vert,2021.1.2,Win32,60.09254252,,,,,,,,,,,,,,,,,,,,,up,0,1.5099,28,FALSE,FALSE,6,3,27,3,1,,,,,,,
,,,,,,0,1.744821811,#a3d0fb,"[""-0.25"",""0""]",right_blue.png,right,,,,,,,,right,right_blue.png,up_orange.png,up,left,down,5d60b5beea1c1c0001c98bf6,2021-09-11_17h43.09.326,arrow_simon_vert,2021.1.2,Win32,60.09254252,,,,,,,,,,,,,,,,,,,,,right,1,1.5069,29,FALSE,FALSE,7,0,28,0,1,,,,,,,
,,,,,,0,2.286520345,#f3af84,"[""0"",""-0.25""]",down_orange.png,down,,,,,,,,left,left_blue.png,down_orange.png,down,left,down,5d60b5beea1c1c0001c98bf6,2021-09-11_17h43.09.326,arrow_simon_vert,2021.1.2,Win32,60.09254252,,,,,,,,,,,,,,,,,,,,,down,1,1.9205,30,TRUE,FALSE,7,1,29,2,1,,,,,,,
,,,,,,0,1.972745897,#a3d0fb,"[""-0.25"",""0""]",left_blue.png,left,,,,,,,,left,left_blue.png,down_orange.png,down,left,down,5d60b5beea1c1c0001c98bf6,2021-09-11_17h43.09.326,arrow_simon_vert,2021.1.2,Win32,60.09254252,,,,,,,,,,,,,,,,,,,,,left,1,1.6936,31,TRUE,FALSE,7,2,30,2,1,,,,,,,
,,,,,,0,2.230543845,#f3af84,"[""0"",""0.25""]",up_orange.png,up,,,,,,,,right,right_blue.png,up_orange.png,up,right,up,5d60b5beea1c1c0001c98bf6,2021-09-11_17h43.09.326,arrow_simon_vert,2021.1.2,Win32,60.09254252,,,,,,,,,,,,,,,,,,,,,right,0,1.3622,32,FALSE,TRUE,7,3,31,1,1,,,,,,,
,,,,,,0,1.658453048,#a3d0fb,"[""0.25"",""0""]",left_blue.png,left,,,,,,,,left,left_blue.png,down_orange.png,down,right,up,5d60b5beea1c1c0001c98bf6,2021-09-11_17h43.09.326,arrow_simon_vert,2021.1.2,Win32,60.09254252,,,,,,,,,,,,,,,,,,,,,left,1,1.3668,33,FALSE,TRUE,8,0,32,3,1,,,,,,,
,,,,,,0,2.349893578,#f3af84,"[""0"",""-0.25""]",down_orange.png,down,,,,,,,,left,left_blue.png,down_orange.png,down,left,down,5d60b5beea1c1c0001c98bf6,2021-09-11_17h43.09.326,arrow_simon_vert,2021.1.2,Win32,60.09254252,,,,,,,,,,,,,,,,,,,,,down,1,2.2876,34,TRUE,FALSE,8,1,33,2,1,,,,,,,
,,,,,,0,2.119979434,#a3d0fb,"[""0.25"",""0""]",left_blue.png,left,,,,,,,,left,left_blue.png,down_orange.png,down,right,up,5d60b5beea1c1c0001c98bf6,2021-09-11_17h43.09.326,arrow_simon_vert,2021.1.2,Win32,60.09254252,,,,,,,,,,,,,,,,,,,,,left,1,1.7672,35,TRUE,FALSE,8,2,34,3,1,,,,,,,
,,,,,,0,1.740662931,#f3af84,"[""0"",""-0.25""]",up_orange.png,up,,,,,,,,right,right_blue.png,up_orange.png,up,left,down,5d60b5beea1c1c0001c98bf6,2021-09-11_17h43.09.326,arrow_simon_vert,2021.1.2,Win32,60.09254252,,,,,,,,,,,,,,,,,,,,,up,1,1.4195,36,FALSE,FALSE,8,3,35,0,1,,,,,,,
,,,,,,0,1.536732484,#a3d0fb,"[""0.25"",""0""]",right_blue.png,right,,,,,,,,right,right_blue.png,up_orange.png,up,right,up,5d60b5beea1c1c0001c98bf6,2021-09-11_17h43.09.326,arrow_simon_vert,2021.1.2,Win32,60.09254252,,,,,,,,,,,,,,,,,,,,,right,1,1.9309,37,TRUE,FALSE,9,0,36,1,1,,,,,,,
,,,,,,0,2.469446928,#f3af84,"[""0"",""-0.25""]",up_orange.png,up,,,,,,,,right,right_blue.png,up_orange.png,up,left,down,5d60b5beea1c1c0001c98bf6,2021-09-11_17h43.09.326,arrow_simon_vert,2021.1.2,Win32,60.09254252,,,,,,,,,,,,,,,,,,,,,up,1,1.904,38,TRUE,FALSE,9,1,37,0,1,,,,,,,
,,,,,,0,1.76796068,#a3d0fb,"[""0.25"",""0""]",left_blue.png,left,,,,,,,,left,left_blue.png,down_orange.png,down,right,up,5d60b5beea1c1c0001c98bf6,2021-09-11_17h43.09.326,arrow_simon_vert,2021.1.2,Win32,60.09254252,,,,,,,,,,,,,,,,,,,,,left,1,1.7139,39,TRUE,FALSE,9,2,38,3,1,,,,,,,
,,,,,,0,2.094551269,#f3af84,"[""0"",""-0.25""]",down_orange.png,down,,,,,,,,left,left_blue.png,down_orange.png,down,left,down,5d60b5beea1c1c0001c98bf6,2021-09-11_17h43.09.326,arrow_simon_vert,2021.1.2,Win32,60.09254252,,,,,,,,,,,,,,,,,,,,,down,1,2.0719,40,TRUE,FALSE,9,3,39,2,1,,,,,,,
,,,,,,0,1.876711961,#a3d0fb,"[""-0.25"",""0""]",left_blue.png,left,,,,,,,,left,left_blue.png,down_orange.png,down,left,down,5d60b5beea1c1c0001c98bf6,2021-09-11_17h43.09.326,arrow_simon_vert,2021.1.2,Win32,60.09254252,,,,,,,,,,,,,,,,,,,,,left,1,1.4368,41,FALSE,FALSE,10,0,40,2,1,,,,,,,
,,,,,,0,1.563145706,#f3af84,"[""0"",""-0.25""]",up_orange.png,up,,,,,,,,right,right_blue.png,up_orange.png,up,left,down,5d60b5beea1c1c0001c98bf6,2021-09-11_17h43.09.326,arrow_simon_vert,2021.1.2,Win32,60.09254252,,,,,,,,,,,,,,,,,,,,,up,1,1.309,42,FALSE,TRUE,10,1,41,0,1,,,,,,,
,,,,,,0,1.595101004,#a3d0fb,"[""-0.25"",""0""]",right_blue.png,right,,,,,,,,right,right_blue.png,up_orange.png,up,left,down,5d60b5beea1c1c0001c98bf6,2021-09-11_17h43.09.326,arrow_simon_vert,2021.1.2,Win32,60.09254252,,,,,,,,,,,,,,,,,,,,,right,1,1.2115,43,FALSE,TRUE,10,2,42,0,1,,,,,,,
,,,,,,0,2.030632201,#f3af84,"[""0"",""-0.25""]",up_orange.png,up,,,,,,,,right,right_blue.png,up_orange.png,up,left,down,5d60b5beea1c1c0001c98bf6,2021-09-11_17h43.09.326,arrow_simon_vert,2021.1.2,Win32,60.09254252,,,,,,,,,,,,,,,,,,,,,up,1,1.7562,44,TRUE,FALSE,10,3,43,0,1,,,,,,,
,,,,,,0,1.768159838,#a3d0fb,"[""0.25"",""0""]",right_blue.png,right,,,,,,,,right,right_blue.png,up_orange.png,up,right,up,5d60b5beea1c1c0001c98bf6,2021-09-11_17h43.09.326,arrow_simon_vert,2021.1.2,Win32,60.09254252,,,,,,,,,,,,,,,,,,,,,right,1,1.3209,45,FALSE,TRUE,11,0,44,1,1,,,,,,,
,,,,,,0,1.741604877,#f3af84,"[""0"",""0.25""]",down_orange.png,down,,,,,,,,left,left_blue.png,down_orange.png,down,right,up,5d60b5beea1c1c0001c98bf6,2021-09-11_17h43.09.326,arrow_simon_vert,2021.1.2,Win32,60.09254252,,,,,,,,,,,,,,,,,,,,,down,1,1.9802,46,TRUE,FALSE,11,1,45,3,1,,,,,,,
,,,,,,0,2.461699369,#a3d0fb,"[""0.25"",""0""]",right_blue.png,right,,,,,,,,right,right_blue.png,up_orange.png,up,right,up,5d60b5beea1c1c0001c98bf6,2021-09-11_17h43.09.326,arrow_simon_vert,2021.1.2,Win32,60.09254252,,,,,,,,,,,,,,,,,,,,,right,1,2.004,47,TRUE,FALSE,11,2,46,1,1,,,,,,,
,,,,,,0,2.15703982,#f3af84,"[""0"",""-0.25""]",down_orange.png,down,,,,,,,,left,left_blue.png,down_orange.png,down,left,down,5d60b5beea1c1c0001c98bf6,2021-09-11_17h43.09.326,arrow_simon_vert,2021.1.2,Win32,60.09254252,,,,,,,,,,,,,,,,,,,,,down,1,1.7982,48,TRUE,FALSE,11,3,47,2,1,,,,,,,
,,,,,,0,2.320687707,#a3d0fb,"[""-0.25"",""0""]",left_blue.png,left,,,,,,,,left,left_blue.png,down_orange.png,down,left,down,5d60b5beea1c1c0001c98bf6,2021-09-11_17h43.09.326,arrow_simon_vert,2021.1.2,Win32,60.09254252,,,,,,,,,,,,,,,,,,,,,left,1,1.9599,49,TRUE,FALSE,12,0,48,2,1,,,,,,,
,,,,,,0,2.17514249,#f3af84,"[""0"",""-0.25""]",down_orange.png,down,,,,,,,,left,left_blue.png,down_orange.png,down,left,down,5d60b5beea1c1c0001c98bf6,2021-09-11_17h43.09.326,arrow_simon_vert,2021.1.2,Win32,60.09254252,,,,,,,,,,,,,,,,,,,,,down,1,1.7939,50,TRUE,FALSE,12,1,49,2,1,,,,,,,
,,,,,,0,1.998433683,#a3d0fb,"[""-0.25"",""0""]",left_blue.png,left,,,,,,,,left,left_blue.png,down_orange.png,down,left,down,5d60b5beea1c1c0001c98bf6,2021-09-11_17h43.09.326,arrow_simon_vert,2021.1.2,Win32,60.09254252,,,,,,,,,,,,,,,,,,,,,down,0,1.6529,51,TRUE,FALSE,12,2,50,2,1,,,,,,,
,,,,,,0,1.575464239,#f3af84,"[""0"",""-0.25""]",down_orange.png,down,,,,,,,,left,left_blue.png,down_orange.png,down,left,down,5d60b5beea1c1c0001c98bf6,2021-09-11_17h43.09.326,arrow_simon_vert,2021.1.2,Win32,60.09254252,,,,,,,,,,,,,,,,,,,,,down,1,1.6535,52,TRUE,FALSE,12,3,51,2,1,,,,,,,
,,,,,,0,2.020180216,#a3d0fb,"[""-0.25"",""0""]",right_blue.png,right,,,,,,,,right,right_blue.png,up_orange.png,up,left,down,5d60b5beea1c1c0001c98bf6,2021-09-11_17h43.09.326,arrow_simon_vert,2021.1.2,Win32,60.09254252,,,,,,,,,,,,,,,,,,,,,right,1,1.6534,53,TRUE,FALSE,13,0,52,0,1,,,,,,,
,,,,,,0,1.5654275,#f3af84,"[""0"",""0.25""]",up_orange.png,up,,,,,,,,right,right_blue.png,up_orange.png,up,right,up,5d60b5beea1c1c0001c98bf6,2021-09-11_17h43.09.326,arrow_simon_vert,2021.1.2,Win32,60.09254252,,,,,,,,,,,,,,,,,,,,,up,1,1.0731,54,FALSE,TRUE,13,1,53,1,1,,,,,,,
,,,,,,0,1.606334085,#a3d0fb,"[""0.25"",""0""]",left_blue.png,left,,,,,,,,left,left_blue.png,down_orange.png,down,right,up,5d60b5beea1c1c0001c98bf6,2021-09-11_17h43.09.326,arrow_simon_vert,2021.1.2,Win32,60.09254252,,,,,,,,,,,,,,,,,,,,,left,1,1.9613,55,TRUE,FALSE,13,2,54,3,1,,,,,,,
,,,,,,0,2.375945259,#f3af84,"[""0"",""0.25""]",down_orange.png,down,,,,,,,,left,left_blue.png,down_orange.png,down,right,up,5d60b5beea1c1c0001c98bf6,2021-09-11_17h43.09.326,arrow_simon_vert,2021.1.2,Win32,60.09254252,,,,,,,,,,,,,,,,,,,,,down,1,2.1877,56,TRUE,FALSE,13,3,55,3,1,,,,,,,
,,,,,,0,1.70816902,#a3d0fb,"[""-0.25"",""0""]",left_blue.png,left,,,,,,,,left,left_blue.png,down_orange.png,down,left,down,5d60b5beea1c1c0001c98bf6,2021-09-11_17h43.09.326,arrow_simon_vert,2021.1.2,Win32,60.09254252,,,,,,,,,,,,,,,,,,,,,left,1,1.2674,57,FALSE,TRUE,14,0,56,2,1,,,,,,,
,,,,,,0,1.649669255,#f3af84,"[""0"",""0.25""]",up_orange.png,up,,,,,,,,right,right_blue.png,up_orange.png,up,right,up,5d60b5beea1c1c0001c98bf6,2021-09-11_17h43.09.326,arrow_simon_vert,2021.1.2,Win32,60.09254252,,,,,,,,,,,,,,,,,,,,,up,1,1.4369,58,FALSE,FALSE,14,1,57,1,1,,,,,,,
,,,,,,0,1.653203312,#a3d0fb,"[""-0.25"",""0""]",right_blue.png,right,,,,,,,,right,right_blue.png,up_orange.png,up,left,down,5d60b5beea1c1c0001c98bf6,2021-09-11_17h43.09.326,arrow_simon_vert,2021.1.2,Win32,60.09254252,,,,,,,,,,,,,,,,,,,,,right,1,1.8759,59,TRUE,FALSE,14,2,58,0,1,,,,,,,
,,,,,,1,1.953447416,#f3af84,"[""0"",""0.25""]",down_orange.png,down,,,,,,,,left,left_blue.png,down_orange.png,down,right,up,5d60b5beea1c1c0001c98bf6,2021-09-11_17h43.09.326,arrow_simon_vert,2021.1.2,Win32,60.09254252,,,,,,,,,,,,,,,,,,,,,up,0,1.5221,60,FALSE,FALSE,14,3,59,3,1,,,,,,,
,,,,,,,,,,,,,,,,,,,,,,,,,5d60b5beea1c1c0001c98bf6,2021-09-11_17h43.09.326,arrow_simon_vert,2021.1.2,Win32,60.09254252,,,,,,,,,,,,,,,,,,,,,,,,,,,,,,,,space,23.3224,1,0,1,0,1
,,,,,,1,2.130559076,#a3d0fb,"[""0.25"",""0""]",left_blue.png,left,,,,,,,,left,left_blue.png,down_orange.png,down,right,up,5d60b5beea1c1c0001c98bf6,2021-09-11_17h43.09.326,arrow_simon_vert,2021.1.2,Win32,60.09254252,,,,,,,,,,,,,,,,,,,,,left,1,1.7145,1,TRUE,FALSE,0,0,0,3,1,,,,,,,
,,,,,,1,2.490216612,#f3af84,"[""0"",""0.25""]",up_orange.png,up,,,,,,,,right,right_blue.png,up_orange.png,up,right,up,5d60b5beea1c1c0001c98bf6,2021-09-11_17h43.09.326,arrow_simon_vert,2021.1.2,Win32,60.09254252,,,,,,,,,,,,,,,,,,,,,up,1,1.9997,2,TRUE,FALSE,0,1,1,1,1,,,,,,,
,,,,,,0,1.910264858,#a3d0fb,"[""0.25"",""0""]",left_blue.png,left,,,,,,,,left,left_blue.png,down_orange.png,down,right,up,5d60b5beea1c1c0001c98bf6,2021-09-11_17h43.09.326,arrow_simon_vert,2021.1.2,Win32,60.09254252,,,,,,,,,,,,,,,,,,,,,left,1,1.4976,3,FALSE,FALSE,0,2,2,3,1,,,,,,,
,,,,,,0,2.259656744,#f3af84,"[""0"",""0.25""]",up_orange.png,up,,,,,,,,right,right_blue.png,up_orange.png,up,right,up,5d60b5beea1c1c0001c98bf6,2021-09-11_17h43.09.326,arrow_simon_vert,2021.1.2,Win32,60.09254252,,,,,,,,,,,,,,,,,,,,,up,1,1.8151,4,TRUE,FALSE,0,3,3,1,1,,,,,,,
,,,,,,0,2.463625885,#a3d0fb,"[""0.25"",""0""]",right_blue.png,right,,,,,,,,right,right_blue.png,up_orange.png,up,right,up,5d60b5beea1c1c0001c98bf6,2021-09-11_17h43.09.326,arrow_simon_vert,2021.1.2,Win32,60.09254252,,,,,,,,,,,,,,,,,,,,,right,1,2.0729,5,TRUE,FALSE,1,0,4,1,1,,,,,,,
,,,,,,0,2.005270717,#f3af84,"[""0"",""-0.25""]",up_orange.png,up,,,,,,,,right,right_blue.png,up_orange.png,up,left,down,5d60b5beea1c1c0001c98bf6,2021-09-11_17h43.09.326,arrow_simon_vert,2021.1.2,Win32,60.09254252,,,,,,,,,,,,,,,,,,,,,up,1,1.5696,6,FALSE,FALSE,1,1,5,0,1,,,,,,,
,,,,,,0,2.30758941,#a3d0fb,"[""0.25"",""0""]",right_blue.png,right,,,,,,,,right,right_blue.png,up_orange.png,up,right,up,5d60b5beea1c1c0001c98bf6,2021-09-11_17h43.09.326,arrow_simon_vert,2021.1.2,Win32,60.09254252,,,,,,,,,,,,,,,,,,,,,right,1,1.7538,7,TRUE,FALSE,1,2,6,1,1,,,,,,,
,,,,,,0,2.482818039,#f3af84,"[""0"",""0.25""]",up_orange.png,up,,,,,,,,right,right_blue.png,up_orange.png,up,right,up,5d60b5beea1c1c0001c98bf6,2021-09-11_17h43.09.326,arrow_simon_vert,2021.1.2,Win32,60.09254252,,,,,,,,,,,,,,,,,,,,,up,1,1.9243,8,TRUE,FALSE,1,3,7,1,1,,,,,,,
,,,,,,0,2.446463577,#a3d0fb,"[""-0.25"",""0""]",right_blue.png,right,,,,,,,,right,right_blue.png,up_orange.png,up,left,down,5d60b5beea1c1c0001c98bf6,2021-09-11_17h43.09.326,arrow_simon_vert,2021.1.2,Win32,60.09254252,,,,,,,,,,,,,,,,,,,,,right,1,1.938,9,TRUE,FALSE,2,0,8,0,1,,,,,,,
,,,,,,0,2.160906742,#f3af84,"[""0"",""0.25""]",down_orange.png,down,,,,,,,,left,left_blue.png,down_orange.png,down,right,up,5d60b5beea1c1c0001c98bf6,2021-09-11_17h43.09.326,arrow_simon_vert,2021.1.2,Win32,60.09254252,,,,,,,,,,,,,,,,,,,,,down,1,1.947,10,TRUE,FALSE,2,1,9,3,1,,,,,,,
,,,,,,0,1.558987072,#a3d0fb,"[""0.25"",""0""]",left_blue.png,left,,,,,,,,left,left_blue.png,down_orange.png,down,right,up,5d60b5beea1c1c0001c98bf6,2021-09-11_17h43.09.326,arrow_simon_vert,2021.1.2,Win32,60.09254252,,,,,,,,,,,,,,,,,,,,,left,1,1.9204,11,TRUE,FALSE,2,2,10,3,1,,,,,,,
,,,,,,1,2.165751575,#f3af84,"[""0"",""-0.25""]",up_orange.png,up,,,,,,,,right,right_blue.png,up_orange.png,up,left,down,5d60b5beea1c1c0001c98bf6,2021-09-11_17h43.09.326,arrow_simon_vert,2021.1.2,Win32,60.09254252,,,,,,,,,,,,,,,,,,,,,down,0,1.4752,12,FALSE,FALSE,2,3,11,0,1,,,,,,,
,,,,,,1,2.151505265,#a3d0fb,"[""0.25"",""0""]",right_blue.png,right,,,,,,,,right,right_blue.png,up_orange.png,up,right,up,5d60b5beea1c1c0001c98bf6,2021-09-11_17h43.09.326,arrow_simon_vert,2021.1.2,Win32,60.09254252,,,,,,,,,,,,,,,,,,,,,right,1,1.8187,13,TRUE,FALSE,3,0,12,1,1,,,,,,,
,,,,,,1,2.232739086,#f3af84,"[""0"",""0.25""]",up_orange.png,up,,,,,,,,right,right_blue.png,up_orange.png,up,right,up,5d60b5beea1c1c0001c98bf6,2021-09-11_17h43.09.326,arrow_simon_vert,2021.1.2,Win32,60.09254252,,,,,,,,,,,,,,,,,,,,,up,1,1.6736,14,TRUE,FALSE,3,1,13,1,1,,,,,,,
,,,,,,1,2.215687435,#a3d0fb,"[""-0.25"",""0""]",left_blue.png,left,,,,,,,,left,left_blue.png,down_orange.png,down,left,down,5d60b5beea1c1c0001c98bf6,2021-09-11_17h43.09.326,arrow_simon_vert,2021.1.2,Win32,60.09254252,,,,,,,,,,,,,,,,,,,,,left,1,1.6809,15,TRUE,FALSE,3,2,14,2,1,,,,,,,
,,,,,,1,2.16917129,#f3af84,"[""0"",""0.25""]",down_orange.png,down,,,,,,,,left,left_blue.png,down_orange.png,down,right,up,5d60b5beea1c1c0001c98bf6,2021-09-11_17h43.09.326,arrow_simon_vert,2021.1.2,Win32,60.09254252,,,,,,,,,,,,,,,,,,,,,down,1,1.8955,16,TRUE,FALSE,3,3,15,3,1,,,,,,,
,,,,,,1,2.274241448,#a3d0fb,"[""-0.25"",""0""]",left_blue.png,left,,,,,,,,left,left_blue.png,down_orange.png,down,left,down,5d60b5beea1c1c0001c98bf6,2021-09-11_17h43.09.326,arrow_simon_vert,2021.1.2,Win32,60.09254252,,,,,,,,,,,,,,,,,,,,,left,1,1.9474,17,TRUE,FALSE,4,0,16,2,1,,,,,,,
,,,,,,1,1.667104752,#f3af84,"[""0"",""0.25""]",up_orange.png,up,,,,,,,,right,right_blue.png,up_orange.png,up,right,up,5d60b5beea1c1c0001c98bf6,2021-09-11_17h43.09.326,arrow_simon_vert,2021.1.2,Win32,60.09254252,,,,,,,,,,,,,,,,,,,,,up,1,1.2634,18,FALSE,TRUE,4,1,17,1,1,,,,,,,
,,,,,,1,1.987075484,#a3d0fb,"[""-0.25"",""0""]",right_blue.png,right,,,,,,,,right,right_blue.png,up_orange.png,up,left,down,5d60b5beea1c1c0001c98bf6,2021-09-11_17h43.09.326,arrow_simon_vert,2021.1.2,Win32,60.09254252,,,,,,,,,,,,,,,,,,,,,right,1,1.6141,19,TRUE,FALSE,4,2,18,0,1,,,,,,,
,,,,,,1,2.437896492,#f3af84,"[""0"",""0.25""]",down_orange.png,down,,,,,,,,left,left_blue.png,down_orange.png,down,right,up,5d60b5beea1c1c0001c98bf6,2021-09-11_17h43.09.326,arrow_simon_vert,2021.1.2,Win32,60.09254252,,,,,,,,,,,,,,,,,,,,,down,1,2.1989,20,TRUE,FALSE,4,3,19,3,1,,,,,,,
,,,,,,1,1.637380959,#a3d0fb,"[""-0.25"",""0""]",left_blue.png,left,,,,,,,,left,left_blue.png,down_orange.png,down,left,down,5d60b5beea1c1c0001c98bf6,2021-09-11_17h43.09.326,arrow_simon_vert,2021.1.2,Win32,60.09254252,,,,,,,,,,,,,,,,,,,,,left,1,1.2026,21,FALSE,TRUE,5,0,20,2,1,,,,,,,
,,,,,,0,1.75838977,#f3af84,"[""0"",""0.25""]",down_orange.png,down,,,,,,,,left,left_blue.png,down_orange.png,down,right,up,5d60b5beea1c1c0001c98bf6,2021-09-11_17h43.09.326,arrow_simon_vert,2021.1.2,Win32,60.09254252,,,,,,,,,,,,,,,,,,,,,down,1,1.5542,22,FALSE,FALSE,5,1,21,3,1,,,,,,,
,,,,,,0,1.508589672,#a3d0fb,"[""0.25"",""0""]",left_blue.png,left,,,,,,,,left,left_blue.png,down_orange.png,down,right,up,5d60b5beea1c1c0001c98bf6,2021-09-11_17h43.09.326,arrow_simon_vert,2021.1.2,Win32,60.09254252,,,,,,,,,,,,,,,,,,,,,left,1,1.2136,23,FALSE,TRUE,5,2,22,3,1,,,,,,,
,,,,,,0,2.119181967,#f3af84,"[""0"",""-0.25""]",down_orange.png,down,,,,,,,,left,left_blue.png,down_orange.png,down,left,down,5d60b5beea1c1c0001c98bf6,2021-09-11_17h43.09.326,arrow_simon_vert,2021.1.2,Win32,60.09254252,,,,,,,,,,,,,,,,,,,,,down,1,1.888,24,TRUE,FALSE,5,3,23,2,1,,,,,,,
,,,,,,0,2.207882241,#a3d0fb,"[""-0.25"",""0""]",left_blue.png,left,,,,,,,,left,left_blue.png,down_orange.png,down,left,down,5d60b5beea1c1c0001c98bf6,2021-09-11_17h43.09.326,arrow_simon_vert,2021.1.2,Win32,60.09254252,,,,,,,,,,,,,,,,,,,,,left,1,1.8932,25,TRUE,FALSE,6,0,24,2,1,,,,,,,
,,,,,,0,1.54979936,#f3af84,"[""0"",""0.25""]",up_orange.png,up,,,,,,,,right,right_blue.png,up_orange.png,up,right,up,5d60b5beea1c1c0001c98bf6,2021-09-11_17h43.09.326,arrow_simon_vert,2021.1.2,Win32,60.09254252,,,,,,,,,,,,,,,,,,,,,up,1,1.8201,26,TRUE,FALSE,6,1,25,1,1,,,,,,,
,,,,,,0,1.734105607,#a3d0fb,"[""-0.25"",""0""]",left_blue.png,left,,,,,,,,left,left_blue.png,down_orange.png,down,left,down,5d60b5beea1c1c0001c98bf6,2021-09-11_17h43.09.326,arrow_simon_vert,2021.1.2,Win32,60.09254252,,,,,,,,,,,,,,,,,,,,,left,1,1.3956,27,FALSE,TRUE,6,2,26,2,1,,,,,,,
,,,,,,0,1.869991699,#f3af84,"[""0"",""-0.25""]",down_orange.png,down,,,,,,,,left,left_blue.png,down_orange.png,down,left,down,5d60b5beea1c1c0001c98bf6,2021-09-11_17h43.09.326,arrow_simon_vert,2021.1.2,Win32,60.09254252,,,,,,,,,,,,,,,,,,,,,down,1,1.4532,28,FALSE,FALSE,6,3,27,2,1,,,,,,,
,,,,,,0,2.206207627,#a3d0fb,"[""-0.25"",""0""]",right_blue.png,right,,,,,,,,right,right_blue.png,up_orange.png,up,left,down,5d60b5beea1c1c0001c98bf6,2021-09-11_17h43.09.326,arrow_simon_vert,2021.1.2,Win32,60.09254252,,,,,,,,,,,,,,,,,,,,,right,1,1.8046,29,TRUE,FALSE,7,0,28,0,1,,,,,,,
,,,,,,0,2.403888854,#f3af84,"[""0"",""0.25""]",down_orange.png,down,,,,,,,,left,left_blue.png,down_orange.png,down,right,up,5d60b5beea1c1c0001c98bf6,2021-09-11_17h43.09.326,arrow_simon_vert,2021.1.2,Win32,60.09254252,,,,,,,,,,,,,,,,,,,,,down,1,2.1586,30,TRUE,FALSE,7,1,29,3,1,,,,,,,
,,,,,,0,2.494853574,#a3d0fb,"[""0.25"",""0""]",left_blue.png,left,,,,,,,,left,left_blue.png,down_orange.png,down,right,up,5d60b5beea1c1c0001c98bf6,2021-09-11_17h43.09.326,arrow_simon_vert,2021.1.2,Win32,60.09254252,,,,,,,,,,,,,,,,,,,,,left,1,2.1594,31,TRUE,FALSE,7,2,30,3,1,,,,,,,
,,,,,,0,1.872466107,#f3af84,"[""0"",""-0.25""]",up_orange.png,up,,,,,,,,right,right_blue.png,up_orange.png,up,left,down,5d60b5beea1c1c0001c98bf6,2021-09-11_17h43.09.326,arrow_simon_vert,2021.1.2,Win32,60.09254252,,,,,,,,,,,,,,,,,,,,,up,1,1.5451,32,FALSE,FALSE,7,3,31,0,1,,,,,,,
,,,,,,0,1.891382304,#a3d0fb,"[""0.25"",""0""]",left_blue.png,left,,,,,,,,left,left_blue.png,down_orange.png,down,right,up,5d60b5beea1c1c0001c98bf6,2021-09-11_17h43.09.326,arrow_simon_vert,2021.1.2,Win32,60.09254252,,,,,,,,,,,,,,,,,,,,,left,1,1.5739,33,FALSE,FALSE,8,0,32,3,1,,,,,,,
,,,,,,0,1.850733427,#f3af84,"[""0"",""0.25""]",down_orange.png,down,,,,,,,,left,left_blue.png,down_orange.png,down,right,up,5d60b5beea1c1c0001c98bf6,2021-09-11_17h43.09.326,arrow_simon_vert,2021.1.2,Win32,60.09254252,,,,,,,,,,,,,,,,,,,,,down,1,1.7202,34,TRUE,FALSE,8,1,33,3,1,,,,,,,
,,,,,,0,1.634142439,#a3d0fb,"[""-0.25"",""0""]",right_blue.png,right,,,,,,,,right,right_blue.png,up_orange.png,up,left,down,5d60b5beea1c1c0001c98bf6,2021-09-11_17h43.09.326,arrow_simon_vert,2021.1.2,Win32,60.09254252,,,,,,,,,,,,,,,,,,,,,right,1,1.237,35,FALSE,TRUE,8,2,34,0,1,,,,,,,
,,,,,,0,2.197514727,#f3af84,"[""0"",""-0.25""]",up_orange.png,up,,,,,,,,right,right_blue.png,up_orange.png,up,left,down,5d60b5beea1c1c0001c98bf6,2021-09-11_17h43.09.326,arrow_simon_vert,2021.1.2,Win32,60.09254252,,,,,,,,,,,,,,,,,,,,,up,1,1.8614,36,TRUE,FALSE,8,3,35,0,1,,,,,,,
,,,,,,0,2.402162789,#a3d0fb,"[""-0.25"",""0""]",left_blue.png,left,,,,,,,,left,left_blue.png,down_orange.png,down,left,down,5d60b5beea1c1c0001c98bf6,2021-09-11_17h43.09.326,arrow_simon_vert,2021.1.2,Win32,60.09254252,,,,,,,,,,,,,,,,,,,,,left,1,2.1714,37,TRUE,FALSE,9,0,36,2,1,,,,,,,
,,,,,,0,2.200508076,#f3af84,"[""0"",""-0.25""]",down_orange.png,down,,,,,,,,left,left_blue.png,down_orange.png,down,left,down,5d60b5beea1c1c0001c98bf6,2021-09-11_17h43.09.326,arrow_simon_vert,2021.1.2,Win32,60.09254252,,,,,,,,,,,,,,,,,,,,,down,1,1.9341,38,TRUE,FALSE,9,1,37,2,1,,,,,,,
,,,,,,0,1.80978189,#a3d0fb,"[""0.25"",""0""]",right_blue.png,right,,,,,,,,right,right_blue.png,up_orange.png,up,right,up,5d60b5beea1c1c0001c98bf6,2021-09-11_17h43.09.326,arrow_simon_vert,2021.1.2,Win32,60.09254252,,,,,,,,,,,,,,,,,,,,,right,1,1.286,39,FALSE,TRUE,9,2,38,1,1,,,,,,,
,,,,,,0,2.138502895,#f3af84,"[""0"",""-0.25""]",down_orange.png,down,,,,,,,,left,left_blue.png,down_orange.png,down,left,down,5d60b5beea1c1c0001c98bf6,2021-09-11_17h43.09.326,arrow_simon_vert,2021.1.2,Win32,60.09254252,,,,,,,,,,,,,,,,,,,,,down,1,1.8035,40,TRUE,FALSE,9,3,39,2,1,,,,,,,
,,,,,,0,2.451706604,#a3d0fb,"[""-0.25"",""0""]",left_blue.png,left,,,,,,,,left,left_blue.png,down_orange.png,down,left,down,5d60b5beea1c1c0001c98bf6,2021-09-11_17h43.09.326,arrow_simon_vert,2021.1.2,Win32,60.09254252,,,,,,,,,,,,,,,,,,,,,left,1,2.0576,41,TRUE,FALSE,10,0,40,2,1,,,,,,,
,,,,,,0,1.52139511,#f3af84,"[""0"",""-0.25""]",up_orange.png,up,,,,,,,,right,right_blue.png,up_orange.png,up,left,down,5d60b5beea1c1c0001c98bf6,2021-09-11_17h43.09.326,arrow_simon_vert,2021.1.2,Win32,60.09254252,,,,,,,,,,,,,,,,,,,,,down,0,1.0809,42,FALSE,TRUE,10,1,41,0,1,,,,,,,
,,,,,,0,1.641987872,#a3d0fb,"[""0.25"",""0""]",right_blue.png,right,,,,,,,,right,right_blue.png,up_orange.png,up,right,up,5d60b5beea1c1c0001c98bf6,2021-09-11_17h43.09.326,arrow_simon_vert,2021.1.2,Win32,60.09254252,,,,,,,,,,,,,,,,,,,,,right,1,1.1596,43,FALSE,TRUE,10,2,42,1,1,,,,,,,
,,,,,,0,2.203144692,#f3af84,"[""0"",""0.25""]",down_orange.png,down,,,,,,,,left,left_blue.png,down_orange.png,down,right,up,5d60b5beea1c1c0001c98bf6,2021-09-11_17h43.09.326,arrow_simon_vert,2021.1.2,Win32,60.09254252,,,,,,,,,,,,,,,,,,,,,up,0,1.7958,44,TRUE,FALSE,10,3,43,3,1,,,,,,,
,,,,,,0,2.039357391,#a3d0fb,"[""0.25"",""0""]",right_blue.png,right,,,,,,,,right,right_blue.png,up_orange.png,up,right,up,5d60b5beea1c1c0001c98bf6,2021-09-11_17h43.09.326,arrow_simon_vert,2021.1.2,Win32,60.09254252,,,,,,,,,,,,,,,,,,,,,right,1,1.7366,45,TRUE,FALSE,11,0,44,1,1,,,,,,,
,,,,,,0,2.484819213,#f3af84,"[""0"",""-0.25""]",down_orange.png,down,,,,,,,,left,left_blue.png,down_orange.png,down,left,down,5d60b5beea1c1c0001c98bf6,2021-09-11_17h43.09.326,arrow_simon_vert,2021.1.2,Win32,60.09254252,,,,,,,,,,,,,,,,,,,,,down,1,2.1618,46,TRUE,FALSE,11,1,45,2,1,,,,,,,
,,,,,,0,1.516574608,#a3d0fb,"[""0.25"",""0""]",right_blue.png,right,,,,,,,,right,right_blue.png,up_orange.png,up,right,up,5d60b5beea1c1c0001c98bf6,2021-09-11_17h43.09.326,arrow_simon_vert,2021.1.2,Win32,60.09254252,,,,,,,,,,,,,,,,,,,,,right,1,1.4366,47,FALSE,FALSE,11,2,46,1,1,,,,,,,
,,,,,,0,1.773309848,#f3af84,"[""0"",""0.25""]",down_orange.png,down,,,,,,,,left,left_blue.png,down_orange.png,down,right,up,5d60b5beea1c1c0001c98bf6,2021-09-11_17h43.09.326,arrow_simon_vert,2021.1.2,Win32,60.09254252,,,,,,,,,,,,,,,,,,,,,down,1,1.581,48,FALSE,FALSE,11,3,47,3,1,,,,,,,
,,,,,,0,2.220748385,#a3d0fb,"[""-0.25"",""0""]",right_blue.png,right,,,,,,,,right,right_blue.png,up_orange.png,up,left,down,5d60b5beea1c1c0001c98bf6,2021-09-11_17h43.09.326,arrow_simon_vert,2021.1.2,Win32,60.09254252,,,,,,,,,,,,,,,,,,,,,right,1,1.8311,49,TRUE,FALSE,12,0,48,0,1,,,,,,,
,,,,,,0,1.917477544,#f3af84,"[""0"",""-0.25""]",up_orange.png,up,,,,,,,,right,right_blue.png,up_orange.png,up,left,down,5d60b5beea1c1c0001c98bf6,2021-09-11_17h43.09.326,arrow_simon_vert,2021.1.2,Win32,60.09254252,,,,,,,,,,,,,,,,,,,,,up,1,1.6873,50,TRUE,FALSE,12,1,49,0,1,,,,,,,
,,,,,,0,1.868603885,#a3d0fb,"[""-0.25"",""0""]",right_blue.png,right,,,,,,,,right,right_blue.png,up_orange.png,up,left,down,5d60b5beea1c1c0001c98bf6,2021-09-11_17h43.09.326,arrow_simon_vert,2021.1.2,Win32,60.09254252,,,,,,,,,,,,,,,,,,,,,right,1,1.4458,51,FALSE,FALSE,12,2,50,0,1,,,,,,,
,,,,,,0,1.953208872,#f3af84,"[""0"",""0.25""]",up_orange.png,up,,,,,,,,right,right_blue.png,up_orange.png,up,right,up,5d60b5beea1c1c0001c98bf6,2021-09-11_17h43.09.326,arrow_simon_vert,2021.1.2,Win32,60.09254252,,,,,,,,,,,,,,,,,,,,,up,1,1.6776,52,TRUE,FALSE,12,3,51,1,1,,,,,,,
,,,,,,0,1.569773709,#a3d0fb,"[""0.25"",""0""]",right_blue.png,right,,,,,,,,right,right_blue.png,up_orange.png,up,right,up,5d60b5beea1c1c0001c98bf6,2021-09-11_17h43.09.326,arrow_simon_vert,2021.1.2,Win32,60.09254252,,,,,,,,,,,,,,,,,,,,,right,1,1.1193,53,FALSE,TRUE,13,0,52,1,1,,,,,,,
,,,,,,0,1.638484839,#f3af84,"[""0"",""-0.25""]",down_orange.png,down,,,,,,,,left,left_blue.png,down_orange.png,down,left,down,5d60b5beea1c1c0001c98bf6,2021-09-11_17h43.09.326,arrow_simon_vert,2021.1.2,Win32,60.09254252,,,,,,,,,,,,,,,,,,,,,down,1,1.578,54,FALSE,FALSE,13,1,53,2,1,,,,,,,
,,,,,,0,1.835744007,#a3d0fb,"[""0.25"",""0""]",left_blue.png,left,,,,,,,,left,left_blue.png,down_orange.png,down,right,up,5d60b5beea1c1c0001c98bf6,2021-09-11_17h43.09.326,arrow_simon_vert,2021.1.2,Win32,60.09254252,,,,,,,,,,,,,,,,,,,,,left,1,1.6536,55,TRUE,FALSE,13,2,54,3,1,,,,,,,
,,,,,,0,2.243553896,#f3af84,"[""0"",""-0.25""]",up_orange.png,up,,,,,,,,right,right_blue.png,up_orange.png,up,left,down,5d60b5beea1c1c0001c98bf6,2021-09-11_17h43.09.326,arrow_simon_vert,2021.1.2,Win32,60.09254252,,,,,,,,,,,,,,,,,,,,,up,1,1.9393,56,TRUE,FALSE,13,3,55,0,1,,,,,,,
,,,,,,0,1.990038754,#a3d0fb,"[""-0.25"",""0""]",left_blue.png,left,,,,,,,,left,left_blue.png,down_orange.png,down,left,down,5d60b5beea1c1c0001c98bf6,2021-09-11_17h43.09.326,arrow_simon_vert,2021.1.2,Win32,60.09254252,,,,,,,,,,,,,,,,,,,,,left,1,1.6713,57,TRUE,FALSE,14,0,56,2,1,,,,,,,
,,,,,,0,1.790616005,#f3af84,"[""0"",""-0.25""]",up_orange.png,up,,,,,,,,right,right_blue.png,up_orange.png,up,left,down,5d60b5beea1c1c0001c98bf6,2021-09-11_17h43.09.326,arrow_simon_vert,2021.1.2,Win32,60.09254252,,,,,,,,,,,,,,,,,,,,,up,1,1.4533,58,FALSE,FALSE,14,1,57,0,1,,,,,,,
,,,,,,0,2.305058449,#a3d0fb,"[""-0.25"",""0""]",left_blue.png,left,,,,,,,,left,left_blue.png,down_orange.png,down,left,down,5d60b5beea1c1c0001c98bf6,2021-09-11_17h43.09.326,arrow_simon_vert,2021.1.2,Win32,60.09254252,,,,,,,,,,,,,,,,,,,,,left,1,1.9488,59,TRUE,FALSE,14,2,58,2,1,,,,,,,
,,,,,,0,1.826929736,#f3af84,"[""0"",""-0.25""]",up_orange.png,up,,,,,,,,right,right_blue.png,up_orange.png,up,left,down,5d60b5beea1c1c0001c98bf6,2021-09-11_17h43.09.326,arrow_simon_vert,2021.1.2,Win32,60.09254252,,,,,,,,,,,,,,,,,,,,,up,1,1.5606,60,FALSE,FALSE,14,3,59,0,1,,,,,,,
,,,,,,,,,,,,,,,,,,,,,,,,,5d60b5beea1c1c0001c98bf6,2021-09-11_17h43.09.326,arrow_simon_vert,2021.1.2,Win32,60.09254252,,,,,,,,,,,,,,,,,,,,,,,,,,,,,,,,space,30.6443,2,0,2,0,1
,,,,,,0,1.617781411,#a3d0fb,"[""0.25"",""0""]",left_blue.png,left,,,,,,,,left,left_blue.png,down_orange.png,down,right,up,5d60b5beea1c1c0001c98bf6,2021-09-11_17h43.09.326,arrow_simon_vert,2021.1.2,Win32,60.09254252,,,,,,,,,,,,,,,,,,,,,left,1,1.3269,1,FALSE,TRUE,0,0,0,3,1,,,,,,,
,,,,,,0,1.896086582,#f3af84,"[""0"",""0.25""]",up_orange.png,up,,,,,,,,right,right_blue.png,up_orange.png,up,right,up,5d60b5beea1c1c0001c98bf6,2021-09-11_17h43.09.326,arrow_simon_vert,2021.1.2,Win32,60.09254252,,,,,,,,,,,,,,,,,,,,,up,1,1.492,2,FALSE,FALSE,0,1,1,1,1,,,,,,,
,,,,,,0,1.564861765,#a3d0fb,"[""-0.25"",""0""]",right_blue.png,right,,,,,,,,right,right_blue.png,up_orange.png,up,left,down,5d60b5beea1c1c0001c98bf6,2021-09-11_17h43.09.326,arrow_simon_vert,2021.1.2,Win32,60.09254252,,,,,,,,,,,,,,,,,,,,,right,1,1.1702,3,FALSE,TRUE,0,2,2,0,1,,,,,,,
,,,,,,0,2.182760521,#f3af84,"[""0"",""0.25""]",up_orange.png,up,,,,,,,,right,right_blue.png,up_orange.png,up,right,up,5d60b5beea1c1c0001c98bf6,2021-09-11_17h43.09.326,arrow_simon_vert,2021.1.2,Win32,60.09254252,,,,,,,,,,,,,,,,,,,,,up,1,1.6057,4,TRUE,FALSE,0,3,3,1,1,,,,,,,
,,,,,,0,2.414833165,#a3d0fb,"[""-0.25"",""0""]",left_blue.png,left,,,,,,,,left,left_blue.png,down_orange.png,down,left,down,5d60b5beea1c1c0001c98bf6,2021-09-11_17h43.09.326,arrow_simon_vert,2021.1.2,Win32,60.09254252,,,,,,,,,,,,,,,,,,,,,down,0,1.3255,5,FALSE,TRUE,1,0,4,2,1,,,,,,,
,,,,,,0,1.976938611,#f3af84,"[""0"",""-0.25""]",down_orange.png,down,,,,,,,,left,left_blue.png,down_orange.png,down,left,down,5d60b5beea1c1c0001c98bf6,2021-09-11_17h43.09.326,arrow_simon_vert,2021.1.2,Win32,60.09254252,,,,,,,,,,,,,,,,,,,,,down,1,1.7139,6,TRUE,FALSE,1,1,5,2,1,,,,,,,
,,,,,,0,2.04510249,#a3d0fb,"[""-0.25"",""0""]",right_blue.png,right,,,,,,,,right,right_blue.png,up_orange.png,up,left,down,5d60b5beea1c1c0001c98bf6,2021-09-11_17h43.09.326,arrow_simon_vert,2021.1.2,Win32,60.09254252,,,,,,,,,,,,,,,,,,,,,right,1,1.6077,7,TRUE,FALSE,1,2,6,0,1,,,,,,,
,,,,,,0,2.210917622,#f3af84,"[""0"",""-0.25""]",down_orange.png,down,,,,,,,,left,left_blue.png,down_orange.png,down,left,down,5d60b5beea1c1c0001c98bf6,2021-09-11_17h43.09.326,arrow_simon_vert,2021.1.2,Win32,60.09254252,,,,,,,,,,,,,,,,,,,,,down,1,1.9869,8,TRUE,FALSE,1,3,7,2,1,,,,,,,
,,,,,,0,2.078655611,#a3d0fb,"[""-0.25"",""0""]",left_blue.png,left,,,,,,,,left,left_blue.png,down_orange.png,down,left,down,5d60b5beea1c1c0001c98bf6,2021-09-11_17h43.09.326,arrow_simon_vert,2021.1.2,Win32,60.09254252,,,,,,,,,,,,,,,,,,,,,left,1,1.7032,9,TRUE,FALSE,2,0,8,2,1,,,,,,,
,,,,,,0,1.581022549,#f3af84,"[""0"",""0.25""]",up_orange.png,up,,,,,,,,right,right_blue.png,up_orange.png,up,right,up,5d60b5beea1c1c0001c98bf6,2021-09-11_17h43.09.326,arrow_simon_vert,2021.1.2,Win32,60.09254252,,,,,,,,,,,,,,,,,,,,,up,1,1.2811,10,FALSE,TRUE,2,1,9,1,1,,,,,,,
,,,,,,0,2.40951876,#a3d0fb,"[""-0.25"",""0""]",right_blue.png,right,,,,,,,,right,right_blue.png,up_orange.png,up,left,down,5d60b5beea1c1c0001c98bf6,2021-09-11_17h43.09.326,arrow_simon_vert,2021.1.2,Win32,60.09254252,,,,,,,,,,,,,,,,,,,,,right,1,2.0712,11,TRUE,FALSE,2,2,10,0,1,,,,,,,
,,,,,,0,1.520983542,#f3af84,"[""0"",""-0.25""]",up_orange.png,up,,,,,,,,right,right_blue.png,up_orange.png,up,left,down,5d60b5beea1c1c0001c98bf6,2021-09-11_17h43.09.326,arrow_simon_vert,2021.1.2,Win32,60.09254252,,,,,,,,,,,,,,,,,,,,,up,1,1.1523,12,FALSE,TRUE,2,3,11,0,1,,,,,,,
,,,,,,0,2.422987228,#a3d0fb,"[""-0.25"",""0""]",right_blue.png,right,,,,,,,,right,right_blue.png,up_orange.png,up,left,down,5d60b5beea1c1c0001c98bf6,2021-09-11_17h43.09.326,arrow_simon_vert,2021.1.2,Win32,60.09254252,,,,,,,,,,,,,,,,,,,,,right,1,2.0422,13,TRUE,FALSE,3,0,12,0,1,,,,,,,
,,,,,,0,1.532339399,#f3af84,"[""0"",""0.25""]",down_orange.png,down,,,,,,,,left,left_blue.png,down_orange.png,down,right,up,5d60b5beea1c1c0001c98bf6,2021-09-11_17h43.09.326,arrow_simon_vert,2021.1.2,Win32,60.09254252,,,,,,,,,,,,,,,,,,,,,down,1,1.2731,14,FALSE,TRUE,3,1,13,3,1,,,,,,,
,,,,,,0,1.949317557,#a3d0fb,"[""0.25"",""0""]",right_blue.png,right,,,,,,,,right,right_blue.png,up_orange.png,up,right,up,5d60b5beea1c1c0001c98bf6,2021-09-11_17h43.09.326,arrow_simon_vert,2021.1.2,Win32,60.09254252,,,,,,,,,,,,,,,,,,,,,right,1,1.3437,15,FALSE,TRUE,3,2,14,1,1,,,,,,,
,,,,,,0,2.438808664,#f3af84,"[""0"",""0.25""]",down_orange.png,down,,,,,,,,left,left_blue.png,down_orange.png,down,right,up,5d60b5beea1c1c0001c98bf6,2021-09-11_17h43.09.326,arrow_simon_vert,2021.1.2,Win32,60.09254252,,,,,,,,,,,,,,,,,,,,,down,1,2.1967,16,TRUE,FALSE,3,3,15,3,1,,,,,,,
