instruct_resp_simon.keys,instruct_resp_simon.corr,instruct_resp_simon.rt,trial_resp_simon.keys,trial_resp_simon.corr,trial_resp_simon.rt,kerr,target_onset,target_color,target_pos,target_file,target_resp,trials_train_simon.thisRepN,trials_train_simon.thisTrialN,trials_train_simon.thisN,trials_train_simon.thisIndex,trials_train_simon.ran,odd_target_pos,even_target_pos,odd_target_resp,odd_target_file,even_target_file,even_target_resp,odd_target_side,even_target_side,participant,date,expName,psychopyVersion,OS,frameRate,train_block_note_resp.keys,train_block_note_resp.rt,blocks_train.thisRepN,blocks_train.thisTrialN,blocks_train.thisN,blocks_train.thisIndex,blocks_train.ran,instruct_resp_timing.keys,instruct_resp_timing.corr,instruct_resp_timing.rt,trial_resp_timing.keys,trial_resp_timing.rt,trials_train_timing.thisRepN,trials_train_timing.thisTrialN,trials_train_timing.thisN,trials_train_timing.thisIndex,trials_train_timing.ran,instruct_resp.keys,instruct_resp.corr,instruct_resp.rt,trial_resp.keys,trial_resp.corr,trial_resp.rt,trial_num,too_slow,too_soon,trials.thisRepN,trials.thisTrialN,trials.thisN,trials.thisIndex,trials.ran,block_note_resp.keys,block_note_resp.rt,blocks.thisRepN,blocks.thisTrialN,blocks.thisN,blocks.thisIndex,blocks.ran
space,0,61.704,left,1,1.0102,0,0.474758045,#a3d0fb,"[""-0.25"",""0""]",left_blue.png,left,0,0,0,2,1,,,left,left_blue.png,down_orange.png,down,left,down,5e16c978783225c8108ef055,2021-09-11_14h42.45.782,arrow_simon_vert,2021.1.2,Win32,59.85156811,,,,,,,,,,,,,,,,,,,,,,,,,,,,,,,,,,,,,,
,,,down,1,1.0561,0,0.356440599,#f3af84,"[""0"",""-0.25""]",down_orange.png,down,0,1,1,2,1,,,left,left_blue.png,down_orange.png,down,left,down,5e16c978783225c8108ef055,2021-09-11_14h42.45.782,arrow_simon_vert,2021.1.2,Win32,59.85156811,,,,,,,,,,,,,,,,,,,,,,,,,,,,,,,,,,,,,,
,,,left,1,0.9085,0,0.423502624,#a3d0fb,"[""-0.25"",""0""]",left_blue.png,left,0,2,2,2,1,,,left,left_blue.png,down_orange.png,down,left,down,5e16c978783225c8108ef055,2021-09-11_14h42.45.782,arrow_simon_vert,2021.1.2,Win32,59.85156811,,,,,,,,,,,,,,,,,,,,,,,,,,,,,,,,,,,,,,
,,,down,1,1.3919,0,0.710513571,#f3af84,"[""0"",""-0.25""]",down_orange.png,down,0,3,3,2,1,,,left,left_blue.png,down_orange.png,down,left,down,5e16c978783225c8108ef055,2021-09-11_14h42.45.782,arrow_simon_vert,2021.1.2,Win32,59.85156811,,,,,,,,,,,,,,,,,,,,,,,,,,,,,,,,,,,,,,
,,,right,0,0.9576,1,0.223999719,#a3d0fb,"[""0.25"",""0""]",left_blue.png,left,1,0,4,3,1,,,left,left_blue.png,down_orange.png,down,right,up,5e16c978783225c8108ef055,2021-09-11_14h42.45.782,arrow_simon_vert,2021.1.2,Win32,59.85156811,,,,,,,,,,,,,,,,,,,,,,,,,,,,,,,,,,,,,,
,,,down,1,1.2772,0,0.613880552,#f3af84,"[""0"",""-0.25""]",down_orange.png,down,1,1,5,2,1,,,left,left_blue.png,down_orange.png,down,left,down,5e16c978783225c8108ef055,2021-09-11_14h42.45.782,arrow_simon_vert,2021.1.2,Win32,59.85156811,,,,,,,,,,,,,,,,,,,,,,,,,,,,,,,,,,,,,,
,,,right,1,0.8088,0,0.076746411,#a3d0fb,"[""0.25"",""0""]",right_blue.png,right,1,2,6,1,1,,,right,right_blue.png,up_orange.png,up,right,up,5e16c978783225c8108ef055,2021-09-11_14h42.45.782,arrow_simon_vert,2021.1.2,Win32,59.85156811,,,,,,,,,,,,,,,,,,,,,,,,,,,,,,,,,,,,,,
,,,up,1,0.8586,0,0.23585354,#f3af84,"[""0"",""0.25""]",up_orange.png,up,1,3,7,1,1,,,right,right_blue.png,up_orange.png,up,right,up,5e16c978783225c8108ef055,2021-09-11_14h42.45.782,arrow_simon_vert,2021.1.2,Win32,59.85156811,,,,,,,,,,,,,,,,,,,,,,,,,,,,,,,,,,,,,,
,,,right,1,1.6913,0,0.920808315,#a3d0fb,"[""-0.25"",""0""]",right_blue.png,right,2,0,8,0,1,,,right,right_blue.png,up_orange.png,up,left,down,5e16c978783225c8108ef055,2021-09-11_14h42.45.782,arrow_simon_vert,2021.1.2,Win32,59.85156811,,,,,,,,,,,,,,,,,,,,,,,,,,,,,,,,,,,,,,
,,,up,1,1.5411,0,0.965822703,#f3af84,"[""0"",""0.25""]",up_orange.png,up,2,1,9,1,1,,,right,right_blue.png,up_orange.png,up,right,up,5e16c978783225c8108ef055,2021-09-11_14h42.45.782,arrow_simon_vert,2021.1.2,Win32,59.85156811,,,,,,,,,,,,,,,,,,,,,,,,,,,,,,,,,,,,,,
,,,right,1,0.8739,0,0.356298876,#a3d0fb,"[""0.25"",""0""]",right_blue.png,right,2,2,10,1,1,,,right,right_blue.png,up_orange.png,up,right,up,5e16c978783225c8108ef055,2021-09-11_14h42.45.782,arrow_simon_vert,2021.1.2,Win32,59.85156811,,,,,,,,,,,,,,,,,,,,,,,,,,,,,,,,,,,,,,
,,,down,1,1.7085,0,0.965733597,#f3af84,"[""0"",""0.25""]",down_orange.png,down,2,3,11,3,1,,,left,left_blue.png,down_orange.png,down,right,up,5e16c978783225c8108ef055,2021-09-11_14h42.45.782,arrow_simon_vert,2021.1.2,Win32,59.85156811,,,,,,,,,,,,,,,,,,,,,,,,,,,,,,,,,,,,,,
,,,right,1,0.7239,0,0.088564277,#a3d0fb,"[""0.25"",""0""]",right_blue.png,right,3,0,12,1,1,,,right,right_blue.png,up_orange.png,up,right,up,5e16c978783225c8108ef055,2021-09-11_14h42.45.782,arrow_simon_vert,2021.1.2,Win32,59.85156811,,,,,,,,,,,,,,,,,,,,,,,,,,,,,,,,,,,,,,
,,,up,1,1.1906,0,0.618223986,#f3af84,"[""0"",""0.25""]",up_orange.png,up,3,1,13,1,1,,,right,right_blue.png,up_orange.png,up,right,up,5e16c978783225c8108ef055,2021-09-11_14h42.45.782,arrow_simon_vert,2021.1.2,Win32,59.85156811,,,,,,,,,,,,,,,,,,,,,,,,,,,,,,,,,,,,,,
,,,left,1,1.2101,0,0.732336991,#a3d0fb,"[""-0.25"",""0""]",left_blue.png,left,3,2,14,2,1,,,left,left_blue.png,down_orange.png,down,left,down,5e16c978783225c8108ef055,2021-09-11_14h42.45.782,arrow_simon_vert,2021.1.2,Win32,59.85156811,,,,,,,,,,,,,,,,,,,,,,,,,,,,,,,,,,,,,,
,,,down,1,1.1914,0,0.518881351,#f3af84,"[""0"",""0.25""]",down_orange.png,down,3,3,15,3,1,,,left,left_blue.png,down_orange.png,down,right,up,5e16c978783225c8108ef055,2021-09-11_14h42.45.782,arrow_simon_vert,2021.1.2,Win32,59.85156811,,,,,,,,,,,,,,,,,,,,,,,,,,,,,,,,,,,,,,
,,,left,1,1.2585,0,0.792004812,#a3d0fb,"[""-0.25"",""0""]",left_blue.png,left,4,0,16,2,1,,,left,left_blue.png,down_orange.png,down,left,down,5e16c978783225c8108ef055,2021-09-11_14h42.45.782,arrow_simon_vert,2021.1.2,Win32,59.85156811,,,,,,,,,,,,,,,,,,,,,,,,,,,,,,,,,,,,,,
,,,down,1,1.1583,0,0.554957849,#f3af84,"[""0"",""0.25""]",down_orange.png,down,4,1,17,3,1,,,left,left_blue.png,down_orange.png,down,right,up,5e16c978783225c8108ef055,2021-09-11_14h42.45.782,arrow_simon_vert,2021.1.2,Win32,59.85156811,,,,,,,,,,,,,,,,,,,,,,,,,,,,,,,,,,,,,,
,,,right,1,0.8593,0,0.308983043,#a3d0fb,"[""-0.25"",""0""]",right_blue.png,right,4,2,18,0,1,,,right,right_blue.png,up_orange.png,up,left,down,5e16c978783225c8108ef055,2021-09-11_14h42.45.782,arrow_simon_vert,2021.1.2,Win32,59.85156811,,,,,,,,,,,,,,,,,,,,,,,,,,,,,,,,,,,,,,
,,,up,1,1.4935,0,0.90670216,#f3af84,"[""0"",""-0.25""]",up_orange.png,up,4,3,19,0,1,,,right,right_blue.png,up_orange.png,up,left,down,5e16c978783225c8108ef055,2021-09-11_14h42.45.782,arrow_simon_vert,2021.1.2,Win32,59.85156811,,,,,,,,,,,,,,,,,,,,,,,,,,,,,,,,,,,,,,
,,,left,1,1.3943,0,0.913507292,#a3d0fb,"[""-0.25"",""0""]",left_blue.png,left,5,0,20,2,1,,,left,left_blue.png,down_orange.png,down,left,down,5e16c978783225c8108ef055,2021-09-11_14h42.45.782,arrow_simon_vert,2021.1.2,Win32,59.85156811,,,,,,,,,,,,,,,,,,,,,,,,,,,,,,,,,,,,,,
,,,up,1,0.6584,0,0.039444977,#f3af84,"[""0"",""-0.25""]",up_orange.png,up,5,1,21,0,1,,,right,right_blue.png,up_orange.png,up,left,down,5e16c978783225c8108ef055,2021-09-11_14h42.45.782,arrow_simon_vert,2021.1.2,Win32,59.85156811,,,,,,,,,,,,,,,,,,,,,,,,,,,,,,,,,,,,,,
,,,left,1,1.2581,0,0.809560765,#a3d0fb,"[""-0.25"",""0""]",left_blue.png,left,5,2,22,2,1,,,left,left_blue.png,down_orange.png,down,left,down,5e16c978783225c8108ef055,2021-09-11_14h42.45.782,arrow_simon_vert,2021.1.2,Win32,59.85156811,,,,,,,,,,,,,,,,,,,,,,,,,,,,,,,,,,,,,,
,,,down,1,1.0602,0,0.431670159,#f3af84,"[""0"",""0.25""]",down_orange.png,down,5,3,23,3,1,,,left,left_blue.png,down_orange.png,down,right,up,5e16c978783225c8108ef055,2021-09-11_14h42.45.782,arrow_simon_vert,2021.1.2,Win32,59.85156811,,,,,,,,,,,,,,,,,,,,,,,,,,,,,,,,,,,,,,
,,,left,1,1.1251,0,0.615630854,#a3d0fb,"[""0.25"",""0""]",left_blue.png,left,6,0,24,3,1,,,left,left_blue.png,down_orange.png,down,right,up,5e16c978783225c8108ef055,2021-09-11_14h42.45.782,arrow_simon_vert,2021.1.2,Win32,59.85156811,,,,,,,,,,,,,,,,,,,,,,,,,,,,,,,,,,,,,,
,,,up,1,1.3584,0,0.777274624,#f3af84,"[""0"",""-0.25""]",up_orange.png,up,6,1,25,0,1,,,right,right_blue.png,up_orange.png,up,left,down,5e16c978783225c8108ef055,2021-09-11_14h42.45.782,arrow_simon_vert,2021.1.2,Win32,59.85156811,,,,,,,,,,,,,,,,,,,,,,,,,,,,,,,,,,,,,,
,,,right,1,0.7584,0,0.277805686,#a3d0fb,"[""0.25"",""0""]",right_blue.png,right,6,2,26,1,1,,,right,right_blue.png,up_orange.png,up,right,up,5e16c978783225c8108ef055,2021-09-11_14h42.45.782,arrow_simon_vert,2021.1.2,Win32,59.85156811,,,,,,,,,,,,,,,,,,,,,,,,,,,,,,,,,,,,,,
,,,down,1,1.2062,0,0.553983583,#f3af84,"[""0"",""0.25""]",down_orange.png,down,6,3,27,3,1,,,left,left_blue.png,down_orange.png,down,right,up,5e16c978783225c8108ef055,2021-09-11_14h42.45.782,arrow_simon_vert,2021.1.2,Win32,59.85156811,,,,,,,,,,,,,,,,,,,,,,,,,,,,,,,,,,,,,,
,,,right,1,1.4551,0,0.928116606,#a3d0fb,"[""-0.25"",""0""]",right_blue.png,right,7,0,28,0,1,,,right,right_blue.png,up_orange.png,up,left,down,5e16c978783225c8108ef055,2021-09-11_14h42.45.782,arrow_simon_vert,2021.1.2,Win32,59.85156811,,,,,,,,,,,,,,,,,,,,,,,,,,,,,,,,,,,,,,
,,,up,1,1.1283,0,0.60564385,#f3af84,"[""0"",""-0.25""]",up_orange.png,up,7,1,29,0,1,,,right,right_blue.png,up_orange.png,up,left,down,5e16c978783225c8108ef055,2021-09-11_14h42.45.782,arrow_simon_vert,2021.1.2,Win32,59.85156811,,,,,,,,,,,,,,,,,,,,,,,,,,,,,,,,,,,,,,
,,,left,1,1.1252,0,0.67122602,#a3d0fb,"[""-0.25"",""0""]",left_blue.png,left,7,2,30,2,1,,,left,left_blue.png,down_orange.png,down,left,down,5e16c978783225c8108ef055,2021-09-11_14h42.45.782,arrow_simon_vert,2021.1.2,Win32,59.85156811,,,,,,,,,,,,,,,,,,,,,,,,,,,,,,,,,,,,,,
,,,down,1,1.4744,0,0.881080196,#f3af84,"[""0"",""-0.25""]",down_orange.png,down,7,3,31,2,1,,,left,left_blue.png,down_orange.png,down,left,down,5e16c978783225c8108ef055,2021-09-11_14h42.45.782,arrow_simon_vert,2021.1.2,Win32,59.85156811,,,,,,,,,,,,,,,,,,,,,,,,,,,,,,,,,,,,,,
,,,right,1,0.7578,0,0.246159596,#a3d0fb,"[""0.25"",""0""]",right_blue.png,right,8,0,32,1,1,,,right,right_blue.png,up_orange.png,up,right,up,5e16c978783225c8108ef055,2021-09-11_14h42.45.782,arrow_simon_vert,2021.1.2,Win32,59.85156811,,,,,,,,,,,,,,,,,,,,,,,,,,,,,,,,,,,,,,
,,,up,1,1.4245,0,0.87595438,#f3af84,"[""0"",""-0.25""]",up_orange.png,up,8,1,33,0,1,,,right,right_blue.png,up_orange.png,up,left,down,5e16c978783225c8108ef055,2021-09-11_14h42.45.782,arrow_simon_vert,2021.1.2,Win32,59.85156811,,,,,,,,,,,,,,,,,,,,,,,,,,,,,,,,,,,,,,
,,,right,1,1.2105,0,0.790969837,#a3d0fb,"[""0.25"",""0""]",right_blue.png,right,8,2,34,1,1,,,right,right_blue.png,up_orange.png,up,right,up,5e16c978783225c8108ef055,2021-09-11_14h42.45.782,arrow_simon_vert,2021.1.2,Win32,59.85156811,,,,,,,,,,,,,,,,,,,,,,,,,,,,,,,,,,,,,,
,,,down,1,1.458,0,0.78497887,#f3af84,"[""0"",""0.25""]",down_orange.png,down,8,3,35,3,1,,,left,left_blue.png,down_orange.png,down,right,up,5e16c978783225c8108ef055,2021-09-11_14h42.45.782,arrow_simon_vert,2021.1.2,Win32,59.85156811,,,,,,,,,,,,,,,,,,,,,,,,,,,,,,,,,,,,,,
,,,left,1,1.3079,0,0.808604128,#a3d0fb,"[""0.25"",""0""]",left_blue.png,left,9,0,36,3,1,,,left,left_blue.png,down_orange.png,down,right,up,5e16c978783225c8108ef055,2021-09-11_14h42.45.782,arrow_simon_vert,2021.1.2,Win32,59.85156811,,,,,,,,,,,,,,,,,,,,,,,,,,,,,,,,,,,,,,
,,,up,1,0.6445,0,0.143280604,#f3af84,"[""0"",""0.25""]",up_orange.png,up,9,1,37,1,1,,,right,right_blue.png,up_orange.png,up,right,up,5e16c978783225c8108ef055,2021-09-11_14h42.45.782,arrow_simon_vert,2021.1.2,Win32,59.85156811,,,,,,,,,,,,,,,,,,,,,,,,,,,,,,,,,,,,,,
,,,right,1,0.6055,0,1.19579E-05,#a3d0fb,"[""-0.25"",""0""]",right_blue.png,right,9,2,38,0,1,,,right,right_blue.png,up_orange.png,up,left,down,5e16c978783225c8108ef055,2021-09-11_14h42.45.782,arrow_simon_vert,2021.1.2,Win32,59.85156811,,,,,,,,,,,,,,,,,,,,,,,,,,,,,,,,,,,,,,
,,,up,1,1.2276,0,0.675934629,#f3af84,"[""0"",""-0.25""]",up_orange.png,up,9,3,39,0,1,,,right,right_blue.png,up_orange.png,up,left,down,5e16c978783225c8108ef055,2021-09-11_14h42.45.782,arrow_simon_vert,2021.1.2,Win32,59.85156811,,,,,,,,,,,,,,,,,,,,,,,,,,,,,,,,,,,,,,
,,,right,1,0.7074,0,0.181314992,#a3d0fb,"[""-0.25"",""0""]",right_blue.png,right,10,0,40,0,1,,,right,right_blue.png,up_orange.png,up,left,down,5e16c978783225c8108ef055,2021-09-11_14h42.45.782,arrow_simon_vert,2021.1.2,Win32,59.85156811,,,,,,,,,,,,,,,,,,,,,,,,,,,,,,,,,,,,,,
,,,down,1,1.1246,0,0.52594677,#f3af84,"[""0"",""0.25""]",down_orange.png,down,10,1,41,3,1,,,left,left_blue.png,down_orange.png,down,right,up,5e16c978783225c8108ef055,2021-09-11_14h42.45.782,arrow_simon_vert,2021.1.2,Win32,59.85156811,,,,,,,,,,,,,,,,,,,,,,,,,,,,,,,,,,,,,,
,,,right,1,0.8255,0,0.312343738,#a3d0fb,"[""-0.25"",""0""]",right_blue.png,right,10,2,42,0,1,,,right,right_blue.png,up_orange.png,up,left,down,5e16c978783225c8108ef055,2021-09-11_14h42.45.782,arrow_simon_vert,2021.1.2,Win32,59.85156811,,,,,,,,,,,,,,,,,,,,,,,,,,,,,,,,,,,,,,
,,,down,1,1.3085,0,0.66185826,#f3af84,"[""0"",""0.25""]",down_orange.png,down,10,3,43,3,1,,,left,left_blue.png,down_orange.png,down,right,up,5e16c978783225c8108ef055,2021-09-11_14h42.45.782,arrow_simon_vert,2021.1.2,Win32,59.85156811,,,,,,,,,,,,,,,,,,,,,,,,,,,,,,,,,,,,,,
,,,left,1,0.6075,0,0.080790767,#a3d0fb,"[""0.25"",""0""]",left_blue.png,left,11,0,44,3,1,,,left,left_blue.png,down_orange.png,down,right,up,5e16c978783225c8108ef055,2021-09-11_14h42.45.782,arrow_simon_vert,2021.1.2,Win32,59.85156811,,,,,,,,,,,,,,,,,,,,,,,,,,,,,,,,,,,,,,
,,,down,1,0.6925,0,0.076570097,#f3af84,"[""0"",""0.25""]",down_orange.png,down,11,1,45,3,1,,,left,left_blue.png,down_orange.png,down,right,up,5e16c978783225c8108ef055,2021-09-11_14h42.45.782,arrow_simon_vert,2021.1.2,Win32,59.85156811,,,,,,,,,,,,,,,,,,,,,,,,,,,,,,,,,,,,,,
,,,left,1,1.0919,0,0.63841262,#a3d0fb,"[""-0.25"",""0""]",left_blue.png,left,11,2,46,2,1,,,left,left_blue.png,down_orange.png,down,left,down,5e16c978783225c8108ef055,2021-09-11_14h42.45.782,arrow_simon_vert,2021.1.2,Win32,59.85156811,,,,,,,,,,,,,,,,,,,,,,,,,,,,,,,,,,,,,,
,,,down,1,1.0419,0,0.478893236,#f3af84,"[""0"",""0.25""]",down_orange.png,down,11,3,47,3,1,,,left,left_blue.png,down_orange.png,down,right,up,5e16c978783225c8108ef055,2021-09-11_14h42.45.782,arrow_simon_vert,2021.1.2,Win32,59.85156811,,,,,,,,,,,,,,,,,,,,,,,,,,,,,,,,,,,,,,
,,,left,1,0.8405,0,0.389596598,#a3d0fb,"[""-0.25"",""0""]",left_blue.png,left,12,0,48,2,1,,,left,left_blue.png,down_orange.png,down,left,down,5e16c978783225c8108ef055,2021-09-11_14h42.45.782,arrow_simon_vert,2021.1.2,Win32,59.85156811,,,,,,,,,,,,,,,,,,,,,,,,,,,,,,,,,,,,,,
,,,up,1,0.724,0,0.214880938,#f3af84,"[""0"",""0.25""]",up_orange.png,up,12,1,49,1,1,,,right,right_blue.png,up_orange.png,up,right,up,5e16c978783225c8108ef055,2021-09-11_14h42.45.782,arrow_simon_vert,2021.1.2,Win32,59.85156811,,,,,,,,,,,,,,,,,,,,,,,,,,,,,,,,,,,,,,
,,,left,1,0.5755,0,0.078859661,#a3d0fb,"[""-0.25"",""0""]",left_blue.png,left,12,2,50,2,1,,,left,left_blue.png,down_orange.png,down,left,down,5e16c978783225c8108ef055,2021-09-11_14h42.45.782,arrow_simon_vert,2021.1.2,Win32,59.85156811,,,,,,,,,,,,,,,,,,,,,,,,,,,,,,,,,,,,,,
,,,up,1,0.6914,0,0.207178924,#f3af84,"[""0"",""0.25""]",up_orange.png,up,12,3,51,1,1,,,right,right_blue.png,up_orange.png,up,right,up,5e16c978783225c8108ef055,2021-09-11_14h42.45.782,arrow_simon_vert,2021.1.2,Win32,59.85156811,,,,,,,,,,,,,,,,,,,,,,,,,,,,,,,,,,,,,,
,,,right,1,0.6748,0,0.253697673,#a3d0fb,"[""0.25"",""0""]",right_blue.png,right,13,0,52,1,1,,,right,right_blue.png,up_orange.png,up,right,up,5e16c978783225c8108ef055,2021-09-11_14h42.45.782,arrow_simon_vert,2021.1.2,Win32,59.85156811,,,,,,,,,,,,,,,,,,,,,,,,,,,,,,,,,,,,,,
,,,up,1,1.1908,0,0.723626694,#f3af84,"[""0"",""0.25""]",up_orange.png,up,13,1,53,1,1,,,right,right_blue.png,up_orange.png,up,right,up,5e16c978783225c8108ef055,2021-09-11_14h42.45.782,arrow_simon_vert,2021.1.2,Win32,59.85156811,,,,,,,,,,,,,,,,,,,,,,,,,,,,,,,,,,,,,,
,,,right,1,1.5089,0,0.97612934,#a3d0fb,"[""-0.25"",""0""]",right_blue.png,right,13,2,54,0,1,,,right,right_blue.png,up_orange.png,up,left,down,5e16c978783225c8108ef055,2021-09-11_14h42.45.782,arrow_simon_vert,2021.1.2,Win32,59.85156811,,,,,,,,,,,,,,,,,,,,,,,,,,,,,,,,,,,,,,
,,,up,1,0.9086,0,0.477615794,#f3af84,"[""0"",""0.25""]",up_orange.png,up,13,3,55,1,1,,,right,right_blue.png,up_orange.png,up,right,up,5e16c978783225c8108ef055,2021-09-11_14h42.45.782,arrow_simon_vert,2021.1.2,Win32,59.85156811,,,,,,,,,,,,,,,,,,,,,,,,,,,,,,,,,,,,,,
,,,left,1,0.5582,0,0.05174372,#a3d0fb,"[""-0.25"",""0""]",left_blue.png,left,14,0,56,2,1,,,left,left_blue.png,down_orange.png,down,left,down,5e16c978783225c8108ef055,2021-09-11_14h42.45.782,arrow_simon_vert,2021.1.2,Win32,59.85156811,,,,,,,,,,,,,,,,,,,,,,,,,,,,,,,,,,,,,,
,,,up,1,1.346,0,0.824209215,#f3af84,"[""0"",""-0.25""]",up_orange.png,up,14,1,57,0,1,,,right,right_blue.png,up_orange.png,up,left,down,5e16c978783225c8108ef055,2021-09-11_14h42.45.782,arrow_simon_vert,2021.1.2,Win32,59.85156811,,,,,,,,,,,,,,,,,,,,,,,,,,,,,,,,,,,,,,
,,,left,1,0.9927,0,0.429239786,#a3d0fb,"[""0.25"",""0""]",left_blue.png,left,14,2,58,3,1,,,left,left_blue.png,down_orange.png,down,right,up,5e16c978783225c8108ef055,2021-09-11_14h42.45.782,arrow_simon_vert,2021.1.2,Win32,59.85156811,,,,,,,,,,,,,,,,,,,,,,,,,,,,,,,,,,,,,,
,,,up,1,1.1587,0,0.543547956,#f3af84,"[""0"",""-0.25""]",up_orange.png,up,14,3,59,0,1,,,right,right_blue.png,up_orange.png,up,left,down,5e16c978783225c8108ef055,2021-09-11_14h42.45.782,arrow_simon_vert,2021.1.2,Win32,59.85156811,,,,,,,,,,,,,,,,,,,,,,,,,,,,,,,,,,,,,,
,,,,,,,,,,,,,,,,,,,,,,,,,5e16c978783225c8108ef055,2021-09-11_14h42.45.782,arrow_simon_vert,2021.1.2,Win32,59.85156811,space,19.0044,0,0,0,0,1,,,,,,,,,,,,,,,,,,,,,,,,,,,,,,,
,,,left,1,1.2296,0,0.761001981,#a3d0fb,"[""-0.25"",""0""]",left_blue.png,left,0,0,0,2,1,,,left,left_blue.png,down_orange.png,down,left,down,5e16c978783225c8108ef055,2021-09-11_14h42.45.782,arrow_simon_vert,2021.1.2,Win32,59.85156811,,,,,,,,,,,,,,,,,,,,,,,,,,,,,,,,,,,,,,
,,,up,1,0.9085,0,0.503893838,#f3af84,"[""0"",""0.25""]",up_orange.png,up,0,1,1,1,1,,,right,right_blue.png,up_orange.png,up,right,up,5e16c978783225c8108ef055,2021-09-11_14h42.45.782,arrow_simon_vert,2021.1.2,Win32,59.85156811,,,,,,,,,,,,,,,,,,,,,,,,,,,,,,,,,,,,,,
,,,right,1,1.1938,0,0.748409672,#a3d0fb,"[""0.25"",""0""]",right_blue.png,right,0,2,2,1,1,,,right,right_blue.png,up_orange.png,up,right,up,5e16c978783225c8108ef055,2021-09-11_14h42.45.782,arrow_simon_vert,2021.1.2,Win32,59.85156811,,,,,,,,,,,,,,,,,,,,,,,,,,,,,,,,,,,,,,
,,,up,1,0.7266,0,0.238293493,#f3af84,"[""0"",""0.25""]",up_orange.png,up,0,3,3,1,1,,,right,right_blue.png,up_orange.png,up,right,up,5e16c978783225c8108ef055,2021-09-11_14h42.45.782,arrow_simon_vert,2021.1.2,Win32,59.85156811,,,,,,,,,,,,,,,,,,,,,,,,,,,,,,,,,,,,,,
,,,left,1,0.5088,0,0.037760909,#a3d0fb,"[""0.25"",""0""]",left_blue.png,left,1,0,4,3,1,,,left,left_blue.png,down_orange.png,down,right,up,5e16c978783225c8108ef055,2021-09-11_14h42.45.782,arrow_simon_vert,2021.1.2,Win32,59.85156811,,,,,,,,,,,,,,,,,,,,,,,,,,,,,,,,,,,,,,
,,,up,1,0.8744,0,0.43080393,#f3af84,"[""0"",""0.25""]",up_orange.png,up,1,1,5,1,1,,,right,right_blue.png,up_orange.png,up,right,up,5e16c978783225c8108ef055,2021-09-11_14h42.45.782,arrow_simon_vert,2021.1.2,Win32,59.85156811,,,,,,,,,,,,,,,,,,,,,,,,,,,,,,,,,,,,,,
,,,left,1,0.8078,0,0.30339715,#a3d0fb,"[""0.25"",""0""]",left_blue.png,left,1,2,6,3,1,,,left,left_blue.png,down_orange.png,down,right,up,5e16c978783225c8108ef055,2021-09-11_14h42.45.782,arrow_simon_vert,2021.1.2,Win32,59.85156811,,,,,,,,,,,,,,,,,,,,,,,,,,,,,,,,,,,,,,
,,,up,1,0.7579,0,0.213873459,#f3af84,"[""0"",""-0.25""]",up_orange.png,up,1,3,7,0,1,,,right,right_blue.png,up_orange.png,up,left,down,5e16c978783225c8108ef055,2021-09-11_14h42.45.782,arrow_simon_vert,2021.1.2,Win32,59.85156811,,,,,,,,,,,,,,,,,,,,,,,,,,,,,,,,,,,,,,
,,,right,1,1.491,0,0.967602764,#a3d0fb,"[""-0.25"",""0""]",right_blue.png,right,2,0,8,0,1,,,right,right_blue.png,up_orange.png,up,left,down,5e16c978783225c8108ef055,2021-09-11_14h42.45.782,arrow_simon_vert,2021.1.2,Win32,59.85156811,,,,,,,,,,,,,,,,,,,,,,,,,,,,,,,,,,,,,,
,,,up,1,0.8459,0,0.430776936,#f3af84,"[""0"",""0.25""]",up_orange.png,up,2,1,9,1,1,,,right,right_blue.png,up_orange.png,up,right,up,5e16c978783225c8108ef055,2021-09-11_14h42.45.782,arrow_simon_vert,2021.1.2,Win32,59.85156811,,,,,,,,,,,,,,,,,,,,,,,,,,,,,,,,,,,,,,
,,,right,1,1.0916,0,0.453442326,#a3d0fb,"[""-0.25"",""0""]",right_blue.png,right,2,2,10,0,1,,,right,right_blue.png,up_orange.png,up,left,down,5e16c978783225c8108ef055,2021-09-11_14h42.45.782,arrow_simon_vert,2021.1.2,Win32,59.85156811,,,,,,,,,,,,,,,,,,,,,,,,,,,,,,,,,,,,,,
,,,up,1,0.4925,0,0.003567157,#f3af84,"[""0"",""0.25""]",up_orange.png,up,2,3,11,1,1,,,right,right_blue.png,up_orange.png,up,right,up,5e16c978783225c8108ef055,2021-09-11_14h42.45.782,arrow_simon_vert,2021.1.2,Win32,59.85156811,,,,,,,,,,,,,,,,,,,,,,,,,,,,,,,,,,,,,,
,,,left,1,1.2418,0,0.791508812,#a3d0fb,"[""0.25"",""0""]",left_blue.png,left,3,0,12,3,1,,,left,left_blue.png,down_orange.png,down,right,up,5e16c978783225c8108ef055,2021-09-11_14h42.45.782,arrow_simon_vert,2021.1.2,Win32,59.85156811,,,,,,,,,,,,,,,,,,,,,,,,,,,,,,,,,,,,,,
,,,down,1,1.1081,0,0.630207517,#f3af84,"[""0"",""-0.25""]",down_orange.png,down,3,1,13,2,1,,,left,left_blue.png,down_orange.png,down,left,down,5e16c978783225c8108ef055,2021-09-11_14h42.45.782,arrow_simon_vert,2021.1.2,Win32,59.85156811,,,,,,,,,,,,,,,,,,,,,,,,,,,,,,,,,,,,,,
,,,left,1,1.2751,0,0.8532805,#a3d0fb,"[""-0.25"",""0""]",left_blue.png,left,3,2,14,2,1,,,left,left_blue.png,down_orange.png,down,left,down,5e16c978783225c8108ef055,2021-09-11_14h42.45.782,arrow_simon_vert,2021.1.2,Win32,59.85156811,,,,,,,,,,,,,,,,,,,,,,,,,,,,,,,,,,,,,,
,,,down,1,0.9913,0,0.231379848,#f3af84,"[""0"",""0.25""]",down_orange.png,down,3,3,15,3,1,,,left,left_blue.png,down_orange.png,down,right,up,5e16c978783225c8108ef055,2021-09-11_14h42.45.782,arrow_simon_vert,2021.1.2,Win32,59.85156811,,,,,,,,,,,,,,,,,,,,,,,,,,,,,,,,,,,,,,
,,,left,1,0.6248,0,0.144749626,#a3d0fb,"[""-0.25"",""0""]",left_blue.png,left,4,0,16,2,1,,,left,left_blue.png,down_orange.png,down,left,down,5e16c978783225c8108ef055,2021-09-11_14h42.45.782,arrow_simon_vert,2021.1.2,Win32,59.85156811,,,,,,,,,,,,,,,,,,,,,,,,,,,,,,,,,,,,,,
,,,down,1,0.7122,0,0.018399982,#f3af84,"[""0"",""-0.25""]",down_orange.png,down,4,1,17,2,1,,,left,left_blue.png,down_orange.png,down,left,down,5e16c978783225c8108ef055,2021-09-11_14h42.45.782,arrow_simon_vert,2021.1.2,Win32,59.85156811,,,,,,,,,,,,,,,,,,,,,,,,,,,,,,,,,,,,,,
,,,left,1,1.0073,0,0.558086012,#a3d0fb,"[""-0.25"",""0""]",left_blue.png,left,4,2,18,2,1,,,left,left_blue.png,down_orange.png,down,left,down,5e16c978783225c8108ef055,2021-09-11_14h42.45.782,arrow_simon_vert,2021.1.2,Win32,59.85156811,,,,,,,,,,,,,,,,,,,,,,,,,,,,,,,,,,,,,,
,,,up,1,1.2413,0,0.75223477,#f3af84,"[""0"",""0.25""]",up_orange.png,up,4,3,19,1,1,,,right,right_blue.png,up_orange.png,up,right,up,5e16c978783225c8108ef055,2021-09-11_14h42.45.782,arrow_simon_vert,2021.1.2,Win32,59.85156811,,,,,,,,,,,,,,,,,,,,,,,,,,,,,,,,,,,,,,
,,,left,1,1.4585,0,0.846429724,#a3d0fb,"[""0.25"",""0""]",left_blue.png,left,5,0,20,3,1,,,left,left_blue.png,down_orange.png,down,right,up,5e16c978783225c8108ef055,2021-09-11_14h42.45.782,arrow_simon_vert,2021.1.2,Win32,59.85156811,,,,,,,,,,,,,,,,,,,,,,,,,,,,,,,,,,,,,,
,,,down,1,0.9576,0,0.309751806,#f3af84,"[""0"",""0.25""]",down_orange.png,down,5,1,21,3,1,,,left,left_blue.png,down_orange.png,down,right,up,5e16c978783225c8108ef055,2021-09-11_14h42.45.782,arrow_simon_vert,2021.1.2,Win32,59.85156811,,,,,,,,,,,,,,,,,,,,,,,,,,,,,,,,,,,,,,
,,,right,1,1.1258,0,0.613955446,#a3d0fb,"[""-0.25"",""0""]",right_blue.png,right,5,2,22,0,1,,,right,right_blue.png,up_orange.png,up,left,down,5e16c978783225c8108ef055,2021-09-11_14h42.45.782,arrow_simon_vert,2021.1.2,Win32,59.85156811,,,,,,,,,,,,,,,,,,,,,,,,,,,,,,,,,,,,,,
,,,down,1,0.991,0,0.442854327,#f3af84,"[""0"",""-0.25""]",down_orange.png,down,5,3,23,2,1,,,left,left_blue.png,down_orange.png,down,left,down,5e16c978783225c8108ef055,2021-09-11_14h42.45.782,arrow_simon_vert,2021.1.2,Win32,59.85156811,,,,,,,,,,,,,,,,,,,,,,,,,,,,,,,,,,,,,,
,,,right,1,0.6928,0,0.144445182,#a3d0fb,"[""-0.25"",""0""]",right_blue.png,right,6,0,24,0,1,,,right,right_blue.png,up_orange.png,up,left,down,5e16c978783225c8108ef055,2021-09-11_14h42.45.782,arrow_simon_vert,2021.1.2,Win32,59.85156811,,,,,,,,,,,,,,,,,,,,,,,,,,,,,,,,,,,,,,
,,,down,1,1.0418,0,0.364420635,#f3af84,"[""0"",""0.25""]",down_orange.png,down,6,1,25,3,1,,,left,left_blue.png,down_orange.png,down,right,up,5e16c978783225c8108ef055,2021-09-11_14h42.45.782,arrow_simon_vert,2021.1.2,Win32,59.85156811,,,,,,,,,,,,,,,,,,,,,,,,,,,,,,,,,,,,,,
,,,right,1,1.1086,0,0.567769064,#a3d0fb,"[""0.25"",""0""]",right_blue.png,right,6,2,26,1,1,,,right,right_blue.png,up_orange.png,up,right,up,5e16c978783225c8108ef055,2021-09-11_14h42.45.782,arrow_simon_vert,2021.1.2,Win32,59.85156811,,,,,,,,,,,,,,,,,,,,,,,,,,,,,,,,,,,,,,
,,,down,1,1.5084,0,0.962273104,#f3af84,"[""0"",""0.25""]",down_orange.png,down,6,3,27,3,1,,,left,left_blue.png,down_orange.png,down,right,up,5e16c978783225c8108ef055,2021-09-11_14h42.45.782,arrow_simon_vert,2021.1.2,Win32,59.85156811,,,,,,,,,,,,,,,,,,,,,,,,,,,,,,,,,,,,,,
,,,right,1,0.7412,0,0.210049176,#a3d0fb,"[""0.25"",""0""]",right_blue.png,right,7,0,28,1,1,,,right,right_blue.png,up_orange.png,up,right,up,5e16c978783225c8108ef055,2021-09-11_14h42.45.782,arrow_simon_vert,2021.1.2,Win32,59.85156811,,,,,,,,,,,,,,,,,,,,,,,,,,,,,,,,,,,,,,
,,,down,1,0.7405,0,0.153209071,#f3af84,"[""0"",""-0.25""]",down_orange.png,down,7,1,29,2,1,,,left,left_blue.png,down_orange.png,down,left,down,5e16c978783225c8108ef055,2021-09-11_14h42.45.782,arrow_simon_vert,2021.1.2,Win32,59.85156811,,,,,,,,,,,,,,,,,,,,,,,,,,,,,,,,,,,,,,
,,,right,1,1.2737,0,0.701702076,#a3d0fb,"[""-0.25"",""0""]",right_blue.png,right,7,2,30,0,1,,,right,right_blue.png,up_orange.png,up,left,down,5e16c978783225c8108ef055,2021-09-11_14h42.45.782,arrow_simon_vert,2021.1.2,Win32,59.85156811,,,,,,,,,,,,,,,,,,,,,,,,,,,,,,,,,,,,,,
,,,up,1,0.8116,0,0.203695125,#f3af84,"[""0"",""-0.25""]",up_orange.png,up,7,3,31,0,1,,,right,right_blue.png,up_orange.png,up,left,down,5e16c978783225c8108ef055,2021-09-11_14h42.45.782,arrow_simon_vert,2021.1.2,Win32,59.85156811,,,,,,,,,,,,,,,,,,,,,,,,,,,,,,,,,,,,,,
,,,right,1,0.8751,0,0.369443104,#a3d0fb,"[""0.25"",""0""]",right_blue.png,right,8,0,32,1,1,,,right,right_blue.png,up_orange.png,up,right,up,5e16c978783225c8108ef055,2021-09-11_14h42.45.782,arrow_simon_vert,2021.1.2,Win32,59.85156811,,,,,,,,,,,,,,,,,,,,,,,,,,,,,,,,,,,,,,
,,,up,1,1.3592,0,0.770568311,#f3af84,"[""0"",""-0.25""]",up_orange.png,up,8,1,33,0,1,,,right,right_blue.png,up_orange.png,up,left,down,5e16c978783225c8108ef055,2021-09-11_14h42.45.782,arrow_simon_vert,2021.1.2,Win32,59.85156811,,,,,,,,,,,,,,,,,,,,,,,,,,,,,,,,,,,,,,
,,,right,1,1.4279,0,0.914039544,#a3d0fb,"[""0.25"",""0""]",right_blue.png,right,8,2,34,1,1,,,right,right_blue.png,up_orange.png,up,right,up,5e16c978783225c8108ef055,2021-09-11_14h42.45.782,arrow_simon_vert,2021.1.2,Win32,59.85156811,,,,,,,,,,,,,,,,,,,,,,,,,,,,,,,,,,,,,,
,,,down,1,1.4444,0,0.901446986,#f3af84,"[""0"",""-0.25""]",down_orange.png,down,8,3,35,2,1,,,left,left_blue.png,down_orange.png,down,left,down,5e16c978783225c8108ef055,2021-09-11_14h42.45.782,arrow_simon_vert,2021.1.2,Win32,59.85156811,,,,,,,,,,,,,,,,,,,,,,,,,,,,,,,,,,,,,,
,,,right,1,1.2745,0,0.770341018,#a3d0fb,"[""0.25"",""0""]",right_blue.png,right,9,0,36,1,1,,,right,right_blue.png,up_orange.png,up,right,up,5e16c978783225c8108ef055,2021-09-11_14h42.45.782,arrow_simon_vert,2021.1.2,Win32,59.85156811,,,,,,,,,,,,,,,,,,,,,,,,,,,,,,,,,,,,,,
,,,up,1,0.7758,0,0.248293393,#f3af84,"[""0"",""-0.25""]",up_orange.png,up,9,1,37,0,1,,,right,right_blue.png,up_orange.png,up,left,down,5e16c978783225c8108ef055,2021-09-11_14h42.45.782,arrow_simon_vert,2021.1.2,Win32,59.85156811,,,,,,,,,,,,,,,,,,,,,,,,,,,,,,,,,,,,,,
,,,right,1,1.3414,0,0.769662901,#a3d0fb,"[""-0.25"",""0""]",right_blue.png,right,9,2,38,0,1,,,right,right_blue.png,up_orange.png,up,left,down,5e16c978783225c8108ef055,2021-09-11_14h42.45.782,arrow_simon_vert,2021.1.2,Win32,59.85156811,,,,,,,,,,,,,,,,,,,,,,,,,,,,,,,,,,,,,,
,,,up,1,0.8418,0,0.324951213,#f3af84,"[""0"",""-0.25""]",up_orange.png,up,9,3,39,0,1,,,right,right_blue.png,up_orange.png,up,left,down,5e16c978783225c8108ef055,2021-09-11_14h42.45.782,arrow_simon_vert,2021.1.2,Win32,59.85156811,,,,,,,,,,,,,,,,,,,,,,,,,,,,,,,,,,,,,,
,,,right,1,0.5421,0,0.006975367,#a3d0fb,"[""-0.25"",""0""]",right_blue.png,right,10,0,40,0,1,,,right,right_blue.png,up_orange.png,up,left,down,5e16c978783225c8108ef055,2021-09-11_14h42.45.782,arrow_simon_vert,2021.1.2,Win32,59.85156811,,,,,,,,,,,,,,,,,,,,,,,,,,,,,,,,,,,,,,
,,,up,1,0.7445,0,0.261751315,#f3af84,"[""0"",""-0.25""]",up_orange.png,up,10,1,41,0,1,,,right,right_blue.png,up_orange.png,up,left,down,5e16c978783225c8108ef055,2021-09-11_14h42.45.782,arrow_simon_vert,2021.1.2,Win32,59.85156811,,,,,,,,,,,,,,,,,,,,,,,,,,,,,,,,,,,,,,
,,,left,1,0.8089,0,0.315448034,#a3d0fb,"[""-0.25"",""0""]",left_blue.png,left,10,2,42,2,1,,,left,left_blue.png,down_orange.png,down,left,down,5e16c978783225c8108ef055,2021-09-11_14h42.45.782,arrow_simon_vert,2021.1.2,Win32,59.85156811,,,,,,,,,,,,,,,,,,,,,,,,,,,,,,,,,,,,,,
,,,down,1,1.2758,0,0.690483657,#f3af84,"[""0"",""-0.25""]",down_orange.png,down,10,3,43,2,1,,,left,left_blue.png,down_orange.png,down,left,down,5e16c978783225c8108ef055,2021-09-11_14h42.45.782,arrow_simon_vert,2021.1.2,Win32,59.85156811,,,,,,,,,,,,,,,,,,,,,,,,,,,,,,,,,,,,,,
,,,left,1,1.3914,0,0.91500693,#a3d0fb,"[""-0.25"",""0""]",left_blue.png,left,11,0,44,2,1,,,left,left_blue.png,down_orange.png,down,left,down,5e16c978783225c8108ef055,2021-09-11_14h42.45.782,arrow_simon_vert,2021.1.2,Win32,59.85156811,,,,,,,,,,,,,,,,,,,,,,,,,,,,,,,,,,,,,,
,,,up,1,0.8268,0,0.371530874,#f3af84,"[""0"",""0.25""]",up_orange.png,up,11,1,45,1,1,,,right,right_blue.png,up_orange.png,up,right,up,5e16c978783225c8108ef055,2021-09-11_14h42.45.782,arrow_simon_vert,2021.1.2,Win32,59.85156811,,,,,,,,,,,,,,,,,,,,,,,,,,,,,,,,,,,,,,
,,,right,1,1.3741,0,0.920958624,#a3d0fb,"[""0.25"",""0""]",right_blue.png,right,11,2,46,1,1,,,right,right_blue.png,up_orange.png,up,right,up,5e16c978783225c8108ef055,2021-09-11_14h42.45.782,arrow_simon_vert,2021.1.2,Win32,59.85156811,,,,,,,,,,,,,,,,,,,,,,,,,,,,,,,,,,,,,,
,,,down,1,1.5937,0,0.967466556,#f3af84,"[""0"",""0.25""]",down_orange.png,down,11,3,47,3,1,,,left,left_blue.png,down_orange.png,down,right,up,5e16c978783225c8108ef055,2021-09-11_14h42.45.782,arrow_simon_vert,2021.1.2,Win32,59.85156811,,,,,,,,,,,,,,,,,,,,,,,,,,,,,,,,,,,,,,
,,,left,1,0.9087,0,0.373418126,#a3d0fb,"[""0.25"",""0""]",left_blue.png,left,12,0,48,3,1,,,left,left_blue.png,down_orange.png,down,right,up,5e16c978783225c8108ef055,2021-09-11_14h42.45.782,arrow_simon_vert,2021.1.2,Win32,59.85156811,,,,,,,,,,,,,,,,,,,,,,,,,,,,,,,,,,,,,,
,,,down,1,1.2248,0,0.719676644,#f3af84,"[""0"",""-0.25""]",down_orange.png,down,12,1,49,2,1,,,left,left_blue.png,down_orange.png,down,left,down,5e16c978783225c8108ef055,2021-09-11_14h42.45.782,arrow_simon_vert,2021.1.2,Win32,59.85156811,,,,,,,,,,,,,,,,,,,,,,,,,,,,,,,,,,,,,,
,,,right,1,0.6418,0,0.039087021,#a3d0fb,"[""-0.25"",""0""]",right_blue.png,right,12,2,50,0,1,,,right,right_blue.png,up_orange.png,up,left,down,5e16c978783225c8108ef055,2021-09-11_14h42.45.782,arrow_simon_vert,2021.1.2,Win32,59.85156811,,,,,,,,,,,,,,,,,,,,,,,,,,,,,,,,,,,,,,
,,,down,1,0.974,0,0.431142503,#f3af84,"[""0"",""0.25""]",down_orange.png,down,12,3,51,3,1,,,left,left_blue.png,down_orange.png,down,right,up,5e16c978783225c8108ef055,2021-09-11_14h42.45.782,arrow_simon_vert,2021.1.2,Win32,59.85156811,,,,,,,,,,,,,,,,,,,,,,,,,,,,,,,,,,,,,,
,,,left,1,1.0414,0,0.590951046,#a3d0fb,"[""-0.25"",""0""]",left_blue.png,left,13,0,52,2,1,,,left,left_blue.png,down_orange.png,down,left,down,5e16c978783225c8108ef055,2021-09-11_14h42.45.782,arrow_simon_vert,2021.1.2,Win32,59.85156811,,,,,,,,,,,,,,,,,,,,,,,,,,,,,,,,,,,,,,
,,,down,1,1.0583,0,0.407299071,#f3af84,"[""0"",""0.25""]",down_orange.png,down,13,1,53,3,1,,,left,left_blue.png,down_orange.png,down,right,up,5e16c978783225c8108ef055,2021-09-11_14h42.45.782,arrow_simon_vert,2021.1.2,Win32,59.85156811,,,,,,,,,,,,,,,,,,,,,,,,,,,,,,,,,,,,,,
,,,right,1,1.509,0,0.975211899,#a3d0fb,"[""-0.25"",""0""]",right_blue.png,right,13,2,54,0,1,,,right,right_blue.png,up_orange.png,up,left,down,5e16c978783225c8108ef055,2021-09-11_14h42.45.782,arrow_simon_vert,2021.1.2,Win32,59.85156811,,,,,,,,,,,,,,,,,,,,,,,,,,,,,,,,,,,,,,
,,,down,1,0.9745,0,0.398120057,#f3af84,"[""0"",""-0.25""]",down_orange.png,down,13,3,55,2,1,,,left,left_blue.png,down_orange.png,down,left,down,5e16c978783225c8108ef055,2021-09-11_14h42.45.782,arrow_simon_vert,2021.1.2,Win32,59.85156811,,,,,,,,,,,,,,,,,,,,,,,,,,,,,,,,,,,,,,
,,,left,1,1.1578,0,0.662282838,#a3d0fb,"[""0.25"",""0""]",left_blue.png,left,14,0,56,3,1,,,left,left_blue.png,down_orange.png,down,right,up,5e16c978783225c8108ef055,2021-09-11_14h42.45.782,arrow_simon_vert,2021.1.2,Win32,59.85156811,,,,,,,,,,,,,,,,,,,,,,,,,,,,,,,,,,,,,,
,,,down,1,0.992,0,0.277735669,#f3af84,"[""0"",""0.25""]",down_orange.png,down,14,1,57,3,1,,,left,left_blue.png,down_orange.png,down,right,up,5e16c978783225c8108ef055,2021-09-11_14h42.45.782,arrow_simon_vert,2021.1.2,Win32,59.85156811,,,,,,,,,,,,,,,,,,,,,,,,,,,,,,,,,,,,,,
,,,left,1,0.7914,0,0.313735764,#a3d0fb,"[""0.25"",""0""]",left_blue.png,left,14,2,58,3,1,,,left,left_blue.png,down_orange.png,down,right,up,5e16c978783225c8108ef055,2021-09-11_14h42.45.782,arrow_simon_vert,2021.1.2,Win32,59.85156811,,,,,,,,,,,,,,,,,,,,,,,,,,,,,,,,,,,,,,
,,,up,1,0.8413,0,0.370728666,#f3af84,"[""0"",""0.25""]",up_orange.png,up,14,3,59,1,1,,,right,right_blue.png,up_orange.png,up,right,up,5e16c978783225c8108ef055,2021-09-11_14h42.45.782,arrow_simon_vert,2021.1.2,Win32,59.85156811,,,,,,,,,,,,,,,,,,,,,,,,,,,,,,,,,,,,,,
,,,,,,,,,,,,,,,,,,,,,,,,,5e16c978783225c8108ef055,2021-09-11_14h42.45.782,arrow_simon_vert,2021.1.2,Win32,59.85156811,space,19.3378,1,0,1,0,1,,,,,,,,,,,,,,,,,,,,,,,,,,,,,,,
,,,,,,,,,,,,,,,,,,,,,,,,,5e16c978783225c8108ef055,2021-09-11_14h42.45.782,arrow_simon_vert,2021.1.2,Win32,59.85156811,,,,,,,,space,0,101.2765,left,2.9464,0,0,0,0,1,,,,,,,,,,,,,,,,,,,,,
,,,,,,,,,,,,,,,,,,,,,,,,,5e16c978783225c8108ef055,2021-09-11_14h42.45.782,arrow_simon_vert,2021.1.2,Win32,59.85156811,,,,,,,,,,,left,2.7758,1,0,1,0,1,,,,,,,,,,,,,,,,,,,,,
,,,,,,,,,,,,,,,,,,,,,,,,,5e16c978783225c8108ef055,2021-09-11_14h42.45.782,arrow_simon_vert,2021.1.2,Win32,59.85156811,,,,,,,,,,,right,2.6751,2,0,2,0,1,,,,,,,,,,,,,,,,,,,,,
,,,,,,,,,,,,,,,,,,,,,,,,,5e16c978783225c8108ef055,2021-09-11_14h42.45.782,arrow_simon_vert,2021.1.2,Win32,59.85156811,,,,,,,,,,,up,2.2378,3,0,3,0,1,,,,,,,,,,,,,,,,,,,,,
,,,,,,,,,,,,,,,,,,,,,,,,,5e16c978783225c8108ef055,2021-09-11_14h42.45.782,arrow_simon_vert,2021.1.2,Win32,59.85156811,,,,,,,,,,,up,2.6581,4,0,4,0,1,,,,,,,,,,,,,,,,,,,,,
,,,,,,,,,,,,,,,,,,,,,,,,,5e16c978783225c8108ef055,2021-09-11_14h42.45.782,arrow_simon_vert,2021.1.2,Win32,59.85156811,,,,,,,,,,,down,2.8246,5,0,5,0,1,,,,,,,,,,,,,,,,,,,,,
,,,,,,,,,,,,,,,,,,,,,,,,,5e16c978783225c8108ef055,2021-09-11_14h42.45.782,arrow_simon_vert,2021.1.2,Win32,59.85156811,,,,,,,,,,,down,3.2253,6,0,6,0,1,,,,,,,,,,,,,,,,,,,,,
,,,,,,,,,,,,,,,,,,,,,,,,,5e16c978783225c8108ef055,2021-09-11_14h42.45.782,arrow_simon_vert,2021.1.2,Win32,59.85156811,,,,,,,,,,,left,2.6583,7,0,7,0,1,,,,,,,,,,,,,,,,,,,,,
,,,,,,,,,,,,,,,,,,,,,,,,,5e16c978783225c8108ef055,2021-09-11_14h42.45.782,arrow_simon_vert,2021.1.2,Win32,59.85156811,,,,,,,,,,,right,3.0579,8,0,8,0,1,,,,,,,,,,,,,,,,,,,,,
,,,,,,,,,,,,,,,,,,,,,,,,,5e16c978783225c8108ef055,2021-09-11_14h42.45.782,arrow_simon_vert,2021.1.2,Win32,59.85156811,,,,,,,,,,,right,2.9413,9,0,9,0,1,,,,,,,,,,,,,,,,,,,,,
,,,,,,,,,,,,,,,,,,,,,,,,,5e16c978783225c8108ef055,2021-09-11_14h42.45.782,arrow_simon_vert,2021.1.2,Win32,59.85156811,,,,,,,,,,,down,3.006,10,0,10,0,1,,,,,,,,,,,,,,,,,,,,,
,,,,,,,,,,,,,,,,,,,,,,,,,5e16c978783225c8108ef055,2021-09-11_14h42.45.782,arrow_simon_vert,2021.1.2,Win32,59.85156811,,,,,,,,,,,down,2.9283,11,0,11,0,1,,,,,,,,,,,,,,,,,,,,,
,,,,,,,,,,,,,,,,,,,,,,,,,5e16c978783225c8108ef055,2021-09-11_14h42.45.782,arrow_simon_vert,2021.1.2,Win32,59.85156811,,,,,,,,,,,left,2.641,12,0,12,0,1,,,,,,,,,,,,,,,,,,,,,
,,,,,,,,,,,,,,,,,,,,,,,,,5e16c978783225c8108ef055,2021-09-11_14h42.45.782,arrow_simon_vert,2021.1.2,Win32,59.85156811,,,,,,,,,,,left,2.3061,13,0,13,0,1,,,,,,,,,,,,,,,,,,,,,
,,,,,,,,,,,,,,,,,,,,,,,,,5e16c978783225c8108ef055,2021-09-11_14h42.45.782,arrow_simon_vert,2021.1.2,Win32,59.85156811,,,,,,,,,,,left,2.4562,14,0,14,0,1,,,,,,,,,,,,,,,,,,,,,
,,,,,,,,,,,,,,,,,,,,,,,,,5e16c978783225c8108ef055,2021-09-11_14h42.45.782,arrow_simon_vert,2021.1.2,Win32,59.85156811,,,,,,,,,,,left,2.5746,15,0,15,0,1,,,,,,,,,,,,,,,,,,,,,
,,,,,,,,,,,,,,,,,,,,,,,,,5e16c978783225c8108ef055,2021-09-11_14h42.45.782,arrow_simon_vert,2021.1.2,Win32,59.85156811,,,,,,,,,,,right,2.8754,16,0,16,0,1,,,,,,,,,,,,,,,,,,,,,
,,,,,,,,,,,,,,,,,,,,,,,,,5e16c978783225c8108ef055,2021-09-11_14h42.45.782,arrow_simon_vert,2021.1.2,Win32,59.85156811,,,,,,,,,,,right,2.8079,17,0,17,0,1,,,,,,,,,,,,,,,,,,,,,
,,,,,,,,,,,,,,,,,,,,,,,,,5e16c978783225c8108ef055,2021-09-11_14h42.45.782,arrow_simon_vert,2021.1.2,Win32,59.85156811,,,,,,,,,,,up,2.257,18,0,18,0,1,,,,,,,,,,,,,,,,,,,,,
,,,,,,,,,,,,,,,,,,,,,,,,,5e16c978783225c8108ef055,2021-09-11_14h42.45.782,arrow_simon_vert,2021.1.2,Win32,59.85156811,,,,,,,,,,,up,2.0912,19,0,19,0,1,,,,,,,,,,,,,,,,,,,,,
,,,,,,,,,,,,,,,,,,,,,,,,,5e16c978783225c8108ef055,2021-09-11_14h42.45.782,arrow_simon_vert,2021.1.2,Win32,59.85156811,,,,,,,,,,,left,2.6554,20,0,20,0,1,,,,,,,,,,,,,,,,,,,,,
,,,,,,,,,,,,,,,,,,,,,,,,,5e16c978783225c8108ef055,2021-09-11_14h42.45.782,arrow_simon_vert,2021.1.2,Win32,59.85156811,,,,,,,,,,,right,2.9749,21,0,21,0,1,,,,,,,,,,,,,,,,,,,,,
,,,,,,,,,,,,,,,,,,,,,,,,,5e16c978783225c8108ef055,2021-09-11_14h42.45.782,arrow_simon_vert,2021.1.2,Win32,59.85156811,,,,,,,,,,,left,2.0748,22,0,22,0,1,,,,,,,,,,,,,,,,,,,,,
,,,,,,,,,,,,,,,,,,,,,,,,,5e16c978783225c8108ef055,2021-09-11_14h42.45.782,arrow_simon_vert,2021.1.2,Win32,59.85156811,,,,,,,,,,,left,2.6927,23,0,23,0,1,,,,,,,,,,,,,,,,,,,,,
,,,,,,,,,,,,,,,,,,,,,,,,,5e16c978783225c8108ef055,2021-09-11_14h42.45.782,arrow_simon_vert,2021.1.2,Win32,59.85156811,,,,,,,,,,,left,3.0084,24,0,24,0,1,,,,,,,,,,,,,,,,,,,,,
,,,,,,,,,,,,,,,,,,,,,,,,,5e16c978783225c8108ef055,2021-09-11_14h42.45.782,arrow_simon_vert,2021.1.2,Win32,59.85156811,,,,,,,,,,,down,2.791,25,0,25,0,1,,,,,,,,,,,,,,,,,,,,,
,,,,,,,,,,,,,,,,,,,,,,,,,5e16c978783225c8108ef055,2021-09-11_14h42.45.782,arrow_simon_vert,2021.1.2,Win32,59.85156811,,,,,,,,,,,right,2.9907,26,0,26,0,1,,,,,,,,,,,,,,,,,,,,,
,,,,,,,,,,,,,,,,,,,,,,,,,5e16c978783225c8108ef055,2021-09-11_14h42.45.782,arrow_simon_vert,2021.1.2,Win32,59.85156811,,,,,,,,,,,up,2.6583,27,0,27,0,1,,,,,,,,,,,,,,,,,,,,,
,,,,,,,,,,,,,,,,,,,,,,,,,5e16c978783225c8108ef055,2021-09-11_14h42.45.782,arrow_simon_vert,2021.1.2,Win32,59.85156811,,,,,,,,,,,left,2.7764,28,0,28,0,1,,,,,,,,,,,,,,,,,,,,,
,,,,,,,,,,,,,,,,,,,,,,,,,5e16c978783225c8108ef055,2021-09-11_14h42.45.782,arrow_simon_vert,2021.1.2,Win32,59.85156811,,,,,,,,,,,left,2.2753,29,0,29,0,1,,,,,,,,,,,,,,,,,,,,,
,,,,,,,,,,,,,,,,,,,,,,,,,5e16c978783225c8108ef055,2021-09-11_14h42.45.782,arrow_simon_vert,2021.1.2,Win32,59.85156811,,,,,,,,,,,left,2.4934,30,0,30,0,1,,,,,,,,,,,,,,,,,,,,,
,,,,,,,,,,,,,,,,,,,,,,,,,5e16c978783225c8108ef055,2021-09-11_14h42.45.782,arrow_simon_vert,2021.1.2,Win32,59.85156811,,,,,,,,,,,left,2.7433,31,0,31,0,1,,,,,,,,,,,,,,,,,,,,,
,,,,,,,,,,,,,,,,,,,,,,,,,5e16c978783225c8108ef055,2021-09-11_14h42.45.782,arrow_simon_vert,2021.1.2,Win32,59.85156811,,,,,,,,,,,left,2.5411,32,0,32,0,1,,,,,,,,,,,,,,,,,,,,,
,,,,,,,,,,,,,,,,,,,,,,,,,5e16c978783225c8108ef055,2021-09-11_14h42.45.782,arrow_simon_vert,2021.1.2,Win32,59.85156811,,,,,,,,,,,left,2.6924,33,0,33,0,1,,,,,,,,,,,,,,,,,,,,,
,,,,,,,,,,,,,,,,,,,,,,,,,5e16c978783225c8108ef055,2021-09-11_14h42.45.782,arrow_simon_vert,2021.1.2,Win32,59.85156811,,,,,,,,,,,left,2.5244,34,0,34,0,1,,,,,,,,,,,,,,,,,,,,,
,,,,,,,,,,,,,,,,,,,,,,,,,5e16c978783225c8108ef055,2021-09-11_14h42.45.782,arrow_simon_vert,2021.1.2,Win32,59.85156811,,,,,,,,,,,left,2.741,35,0,35,0,1,,,,,,,,,,,,,,,,,,,,,
,,,,,,,,,,,,,,,,,,,,,,,,,5e16c978783225c8108ef055,2021-09-11_14h42.45.782,arrow_simon_vert,2021.1.2,Win32,59.85156811,,,,,,,,,,,right,2.8429,36,0,36,0,1,,,,,,,,,,,,,,,,,,,,,
,,,,,,,,,,,,,,,,,,,,,,,,,5e16c978783225c8108ef055,2021-09-11_14h42.45.782,arrow_simon_vert,2021.1.2,Win32,59.85156811,,,,,,,,,,,right,2.7244,37,0,37,0,1,,,,,,,,,,,,,,,,,,,,,
,,,,,,,,,,,,,,,,,,,,,,,,,5e16c978783225c8108ef055,2021-09-11_14h42.45.782,arrow_simon_vert,2021.1.2,Win32,59.85156811,,,,,,,,,,,left,2.1223,38,0,38,0,1,,,,,,,,,,,,,,,,,,,,,
,,,,,,,,,,,,,,,,,,,,,,,,,5e16c978783225c8108ef055,2021-09-11_14h42.45.782,arrow_simon_vert,2021.1.2,Win32,59.85156811,,,,,,,,,,,left,2.7113,39,0,39,0,1,,,,,,,,,,,,,,,,,,,,,
,,,,,,,,,,,,,,,,,,,,,,,,,5e16c978783225c8108ef055,2021-09-11_14h42.45.782,arrow_simon_vert,2021.1.2,Win32,59.85156811,,,,,,,,,,,left,2.2723,40,0,40,0,1,,,,,,,,,,,,,,,,,,,,,
,,,,,,,,,,,,,,,,,,,,,,,,,5e16c978783225c8108ef055,2021-09-11_14h42.45.782,arrow_simon_vert,2021.1.2,Win32,59.85156811,,,,,,,,,,,left,2.423,41,0,41,0,1,,,,,,,,,,,,,,,,,,,,,
,,,,,,,,,,,,,,,,,,,,,,,,,5e16c978783225c8108ef055,2021-09-11_14h42.45.782,arrow_simon_vert,2021.1.2,Win32,59.85156811,,,,,,,,,,,left,2.289,42,0,42,0,1,,,,,,,,,,,,,,,,,,,,,
,,,,,,,,,,,,,,,,,,,,,,,,,5e16c978783225c8108ef055,2021-09-11_14h42.45.782,arrow_simon_vert,2021.1.2,Win32,59.85156811,,,,,,,,,,,left,2.5251,43,0,43,0,1,,,,,,,,,,,,,,,,,,,,,
,,,,,,,,,,,,,,,,,,,,,,,,,5e16c978783225c8108ef055,2021-09-11_14h42.45.782,arrow_simon_vert,2021.1.2,Win32,59.85156811,,,,,,,,,,,left,2.3208,44,0,44,0,1,,,,,,,,,,,,,,,,,,,,,
,,,,,,,,,,,,,,,,,,,,,,,,,5e16c978783225c8108ef055,2021-09-11_14h42.45.782,arrow_simon_vert,2021.1.2,Win32,59.85156811,,,,,,,,,,,left,2.5397,45,0,45,0,1,,,,,,,,,,,,,,,,,,,,,
,,,,,,,,,,,,,,,,,,,,,,,,,5e16c978783225c8108ef055,2021-09-11_14h42.45.782,arrow_simon_vert,2021.1.2,Win32,59.85156811,,,,,,,,,,,left,2.305,46,0,46,0,1,,,,,,,,,,,,,,,,,,,,,
,,,,,,,,,,,,,,,,,,,,,,,,,5e16c978783225c8108ef055,2021-09-11_14h42.45.782,arrow_simon_vert,2021.1.2,Win32,59.85156811,,,,,,,,,,,left,2.725,47,0,47,0,1,,,,,,,,,,,,,,,,,,,,,
,,,,,,,,,,,,,,,,,,,,,,,,,5e16c978783225c8108ef055,2021-09-11_14h42.45.782,arrow_simon_vert,2021.1.2,Win32,59.85156811,,,,,,,,,,,right,2.3556,48,0,48,0,1,,,,,,,,,,,,,,,,,,,,,
,,,,,,,,,,,,,,,,,,,,,,,,,5e16c978783225c8108ef055,2021-09-11_14h42.45.782,arrow_simon_vert,2021.1.2,Win32,59.85156811,,,,,,,,,,,right,2.5631,49,0,49,0,1,,,,,,,,,,,,,,,,,,,,,
,,,,,,,,,,,,,,,,,,,,,,,,,5e16c978783225c8108ef055,2021-09-11_14h42.45.782,arrow_simon_vert,2021.1.2,Win32,59.85156811,,,,,,,,,,,up,2.8247,50,0,50,0,1,,,,,,,,,,,,,,,,,,,,,
,,,,,,,,,,,,,,,,,,,,,,,,,5e16c978783225c8108ef055,2021-09-11_14h42.45.782,arrow_simon_vert,2021.1.2,Win32,59.85156811,,,,,,,,,,,down,2.8113,51,0,51,0,1,,,,,,,,,,,,,,,,,,,,,
,,,,,,,,,,,,,,,,,,,,,,,,,5e16c978783225c8108ef055,2021-09-11_14h42.45.782,arrow_simon_vert,2021.1.2,Win32,59.85156811,,,,,,,,,,,left,2.6575,52,0,52,0,1,,,,,,,,,,,,,,,,,,,,,
,,,,,,,,,,,,,,,,,,,,,,,,,5e16c978783225c8108ef055,2021-09-11_14h42.45.782,arrow_simon_vert,2021.1.2,Win32,59.85156811,,,,,,,,,,,up,2.9265,53,0,53,0,1,,,,,,,,,,,,,,,,,,,,,
,,,,,,,,,,,,,,,,,,,,,,,,,5e16c978783225c8108ef055,2021-09-11_14h42.45.782,arrow_simon_vert,2021.1.2,Win32,59.85156811,,,,,,,,,,,right,2.591,54,0,54,0,1,,,,,,,,,,,,,,,,,,,,,
,,,,,,,,,,,,,,,,,,,,,,,,,5e16c978783225c8108ef055,2021-09-11_14h42.45.782,arrow_simon_vert,2021.1.2,Win32,59.85156811,,,,,,,,,,,down,2.6565,55,0,55,0,1,,,,,,,,,,,,,,,,,,,,,
,,,,,,,,,,,,,,,,,,,,,,,,,5e16c978783225c8108ef055,2021-09-11_14h42.45.782,arrow_simon_vert,2021.1.2,Win32,59.85156811,,,,,,,,,,,left,2.7437,56,0,56,0,1,,,,,,,,,,,,,,,,,,,,,
,,,,,,,,,,,,,,,,,,,,,,,,,5e16c978783225c8108ef055,2021-09-11_14h42.45.782,arrow_simon_vert,2021.1.2,Win32,59.85156811,,,,,,,,,,,up,2.4546,57,0,57,0,1,,,,,,,,,,,,,,,,,,,,,
,,,,,,,,,,,,,,,,,,,,,,,,,5e16c978783225c8108ef055,2021-09-11_14h42.45.782,arrow_simon_vert,2021.1.2,Win32,59.85156811,,,,,,,,,,,right,2.4754,58,0,58,0,1,,,,,,,,,,,,,,,,,,,,,
,,,,,,,,,,,,,,,,,,,,,,,,,5e16c978783225c8108ef055,2021-09-11_14h42.45.782,arrow_simon_vert,2021.1.2,Win32,59.85156811,,,,,,,,,,,down,2.489,59,0,59,0,1,,,,,,,,,,,,,,,,,,,,,
,,,,,,0,1.802955939,#a3d0fb,"[""-0.25"",""0""]",left_blue.png,left,,,,,,,,left,left_blue.png,down_orange.png,down,left,down,5e16c978783225c8108ef055,2021-09-11_14h42.45.782,arrow_simon_vert,2021.1.2,Win32,59.85156811,,,,,,,,,,,,,,,,,,space,0,43.0952,left,1,1.3168,1,FALSE,TRUE,0,0,0,2,1,,,,,,,
,,,,,,0,2.328305355,#f3af84,"[""0"",""-0.25""]",up_orange.png,up,,,,,,,,right,right_blue.png,up_orange.png,up,left,down,5e16c978783225c8108ef055,2021-09-11_14h42.45.782,arrow_simon_vert,2021.1.2,Win32,59.85156811,,,,,,,,,,,,,,,,,,,,,right,0,1.6426,2,TRUE,FALSE,0,1,1,0,1,,,,,,,
,,,,,,0,1.831782675,#a3d0fb,"[""0.25"",""0""]",right_blue.png,right,,,,,,,,right,right_blue.png,up_orange.png,up,right,up,5e16c978783225c8108ef055,2021-09-11_14h42.45.782,arrow_simon_vert,2021.1.2,Win32,59.85156811,,,,,,,,,,,,,,,,,,,,,right,1,1.3455,3,FALSE,TRUE,0,2,2,1,1,,,,,,,
,,,,,,0,1.799932427,#f3af84,"[""0"",""0.25""]",down_orange.png,down,,,,,,,,left,left_blue.png,down_orange.png,down,right,up,5e16c978783225c8108ef055,2021-09-11_14h42.45.782,arrow_simon_vert,2021.1.2,Win32,59.85156811,,,,,,,,,,,,,,,,,,,,,down,1,1.4252,4,FALSE,FALSE,0,3,3,3,1,,,,,,,
,,,,,,0,1.648607589,#a3d0fb,"[""0.25"",""0""]",left_blue.png,left,,,,,,,,left,left_blue.png,down_orange.png,down,right,up,5e16c978783225c8108ef055,2021-09-11_14h42.45.782,arrow_simon_vert,2021.1.2,Win32,59.85156811,,,,,,,,,,,,,,,,,,,,,left,1,1.212,5,FALSE,TRUE,1,0,4,3,1,,,,,,,
,,,,,,0,2.499823756,#f3af84,"[""0"",""0.25""]",up_orange.png,up,,,,,,,,right,right_blue.png,up_orange.png,up,right,up,5e16c978783225c8108ef055,2021-09-11_14h42.45.782,arrow_simon_vert,2021.1.2,Win32,59.85156811,,,,,,,,,,,,,,,,,,,,,up,1,1.9924,6,TRUE,FALSE,1,1,5,1,1,,,,,,,
,,,,,,0,2.423307297,#a3d0fb,"[""0.25"",""0""]",right_blue.png,right,,,,,,,,right,right_blue.png,up_orange.png,up,right,up,5e16c978783225c8108ef055,2021-09-11_14h42.45.782,arrow_simon_vert,2021.1.2,Win32,59.85156811,,,,,,,,,,,,,,,,,,,,,right,1,1.8772,7,TRUE,FALSE,1,2,6,1,1,,,,,,,
,,,,,,0,1.519709185,#f3af84,"[""0"",""0.25""]",up_orange.png,up,,,,,,,,right,right_blue.png,up_orange.png,up,right,up,5e16c978783225c8108ef055,2021-09-11_14h42.45.782,arrow_simon_vert,2021.1.2,Win32,59.85156811,,,,,,,,,,,,,,,,,,,,,up,1,1.0597,8,FALSE,TRUE,1,3,7,1,1,,,,,,,
,,,,,,0,1.782788293,#a3d0fb,"[""-0.25"",""0""]",right_blue.png,right,,,,,,,,right,right_blue.png,up_orange.png,up,left,down,5e16c978783225c8108ef055,2021-09-11_14h42.45.782,arrow_simon_vert,2021.1.2,Win32,59.85156811,,,,,,,,,,,,,,,,,,,,,right,1,1.6255,9,TRUE,FALSE,2,0,8,0,1,,,,,,,
,,,,,,0,1.906963533,#f3af84,"[""0"",""0.25""]",down_orange.png,down,,,,,,,,left,left_blue.png,down_orange.png,down,right,up,5e16c978783225c8108ef055,2021-09-11_14h42.45.782,arrow_simon_vert,2021.1.2,Win32,59.85156811,,,,,,,,,,,,,,,,,,,,,down,1,1.5766,10,FALSE,FALSE,2,1,9,3,1,,,,,,,
,,,,,,0,2.339039045,#a3d0fb,"[""-0.25"",""0""]",right_blue.png,right,,,,,,,,right,right_blue.png,up_orange.png,up,left,down,5e16c978783225c8108ef055,2021-09-11_14h42.45.782,arrow_simon_vert,2021.1.2,Win32,59.85156811,,,,,,,,,,,,,,,,,,,,,right,1,2.1114,11,TRUE,FALSE,2,2,10,0,1,,,,,,,
,,,,,,0,1.650771813,#f3af84,"[""0"",""0.25""]",down_orange.png,down,,,,,,,,left,left_blue.png,down_orange.png,down,right,up,5e16c978783225c8108ef055,2021-09-11_14h42.45.782,arrow_simon_vert,2021.1.2,Win32,59.85156811,,,,,,,,,,,,,,,,,,,,,down,1,1.8101,12,TRUE,FALSE,2,3,11,3,1,,,,,,,
,,,,,,0,2.07362187,#a3d0fb,"[""-0.25"",""0""]",right_blue.png,right,,,,,,,,right,right_blue.png,up_orange.png,up,left,down,5e16c978783225c8108ef055,2021-09-11_14h42.45.782,arrow_simon_vert,2021.1.2,Win32,59.85156811,,,,,,,,,,,,,,,,,,,,,right,1,1.9301,13,TRUE,FALSE,3,0,12,0,1,,,,,,,
,,,,,,0,1.591876592,#f3af84,"[""0"",""-0.25""]",down_orange.png,down,,,,,,,,left,left_blue.png,down_orange.png,down,left,down,5e16c978783225c8108ef055,2021-09-11_14h42.45.782,arrow_simon_vert,2021.1.2,Win32,59.85156811,,,,,,,,,,,,,,,,,,,,,down,1,1.8098,14,TRUE,FALSE,3,1,13,2,1,,,,,,,
,,,,,,0,2.376543048,#a3d0fb,"[""0.25"",""0""]",left_blue.png,left,,,,,,,,left,left_blue.png,down_orange.png,down,right,up,5e16c978783225c8108ef055,2021-09-11_14h42.45.782,arrow_simon_vert,2021.1.2,Win32,59.85156811,,,,,,,,,,,,,,,,,,,,,left,1,1.9431,15,TRUE,FALSE,3,2,14,3,1,,,,,,,
,,,,,,0,2.411676132,#f3af84,"[""0"",""-0.25""]",down_orange.png,down,,,,,,,,left,left_blue.png,down_orange.png,down,left,down,5e16c978783225c8108ef055,2021-09-11_14h42.45.782,arrow_simon_vert,2021.1.2,Win32,59.85156811,,,,,,,,,,,,,,,,,,,,,down,1,2.0431,16,TRUE,FALSE,3,3,15,2,1,,,,,,,
,,,,,,0,2.46830395,#a3d0fb,"[""0.25"",""0""]",left_blue.png,left,,,,,,,,left,left_blue.png,down_orange.png,down,right,up,5e16c978783225c8108ef055,2021-09-11_14h42.45.782,arrow_simon_vert,2021.1.2,Win32,59.85156811,,,,,,,,,,,,,,,,,,,,,left,1,2.1099,17,TRUE,FALSE,4,0,16,3,1,,,,,,,
,,,,,,0,1.822204716,#f3af84,"[""0"",""-0.25""]",down_orange.png,down,,,,,,,,left,left_blue.png,down_orange.png,down,left,down,5e16c978783225c8108ef055,2021-09-11_14h42.45.782,arrow_simon_vert,2021.1.2,Win32,59.85156811,,,,,,,,,,,,,,,,,,,,,down,1,1.5263,18,FALSE,FALSE,4,1,17,2,1,,,,,,,
,,,,,,0,1.981427797,#a3d0fb,"[""-0.25"",""0""]",right_blue.png,right,,,,,,,,right,right_blue.png,up_orange.png,up,left,down,5e16c978783225c8108ef055,2021-09-11_14h42.45.782,arrow_simon_vert,2021.1.2,Win32,59.85156811,,,,,,,,,,,,,,,,,,,,,right,1,1.764,19,TRUE,FALSE,4,2,18,0,1,,,,,,,
,,,,,,0,2.369198417,#f3af84,"[""0"",""0.25""]",down_orange.png,down,,,,,,,,left,left_blue.png,down_orange.png,down,right,up,5e16c978783225c8108ef055,2021-09-11_14h42.45.782,arrow_simon_vert,2021.1.2,Win32,59.85156811,,,,,,,,,,,,,,,,,,,,,down,1,2.0086,20,TRUE,FALSE,4,3,19,3,1,,,,,,,
,,,,,,0,2.29250483,#a3d0fb,"[""0.25"",""0""]",right_blue.png,right,,,,,,,,right,right_blue.png,up_orange.png,up,right,up,5e16c978783225c8108ef055,2021-09-11_14h42.45.782,arrow_simon_vert,2021.1.2,Win32,59.85156811,,,,,,,,,,,,,,,,,,,,,right,1,1.6426,21,TRUE,FALSE,5,0,20,1,1,,,,,,,
,,,,,,0,2.051460605,#f3af84,"[""0"",""-0.25""]",down_orange.png,down,,,,,,,,left,left_blue.png,down_orange.png,down,left,down,5e16c978783225c8108ef055,2021-09-11_14h42.45.782,arrow_simon_vert,2021.1.2,Win32,59.85156811,,,,,,,,,,,,,,,,,,,,,down,1,1.7421,22,TRUE,FALSE,5,1,21,2,1,,,,,,,
,,,,,,0,1.620503669,#a3d0fb,"[""0.25"",""0""]",left_blue.png,left,,,,,,,,left,left_blue.png,down_orange.png,down,right,up,5e16c978783225c8108ef055,2021-09-11_14h42.45.782,arrow_simon_vert,2021.1.2,Win32,59.85156811,,,,,,,,,,,,,,,,,,,,,left,1,1.6601,23,TRUE,FALSE,5,2,22,3,1,,,,,,,
,,,,,,0,1.885910546,#f3af84,"[""0"",""0.25""]",up_orange.png,up,,,,,,,,right,right_blue.png,up_orange.png,up,right,up,5e16c978783225c8108ef055,2021-09-11_14h42.45.782,arrow_simon_vert,2021.1.2,Win32,59.85156811,,,,,,,,,,,,,,,,,,,,,up,1,1.8426,24,TRUE,FALSE,5,3,23,1,1,,,,,,,
,,,,,,0,2.062524571,#a3d0fb,"[""0.25"",""0""]",left_blue.png,left,,,,,,,,left,left_blue.png,down_orange.png,down,right,up,5e16c978783225c8108ef055,2021-09-11_14h42.45.782,arrow_simon_vert,2021.1.2,Win32,59.85156811,,,,,,,,,,,,,,,,,,,,,left,1,1.8765,25,TRUE,FALSE,6,0,24,3,1,,,,,,,
,,,,,,0,1.606519476,#f3af84,"[""0"",""0.25""]",down_orange.png,down,,,,,,,,left,left_blue.png,down_orange.png,down,right,up,5e16c978783225c8108ef055,2021-09-11_14h42.45.782,arrow_simon_vert,2021.1.2,Win32,59.85156811,,,,,,,,,,,,,,,,,,,,,down,1,1.4087,26,FALSE,FALSE,6,1,25,3,1,,,,,,,
,,,,,,0,2.280277903,#a3d0fb,"[""0.25"",""0""]",right_blue.png,right,,,,,,,,right,right_blue.png,up_orange.png,up,right,up,5e16c978783225c8108ef055,2021-09-11_14h42.45.782,arrow_simon_vert,2021.1.2,Win32,59.85156811,,,,,,,,,,,,,,,,,,,,,right,1,1.7419,27,TRUE,FALSE,6,2,26,1,1,,,,,,,
,,,,,,0,1.786470103,#f3af84,"[""0"",""-0.25""]",down_orange.png,down,,,,,,,,left,left_blue.png,down_orange.png,down,left,down,5e16c978783225c8108ef055,2021-09-11_14h42.45.782,arrow_simon_vert,2021.1.2,Win32,59.85156811,,,,,,,,,,,,,,,,,,,,,down,1,1.2922,28,FALSE,TRUE,6,3,27,2,1,,,,,,,
,,,,,,0,1.82672434,#a3d0fb,"[""-0.25"",""0""]",right_blue.png,right,,,,,,,,right,right_blue.png,up_orange.png,up,left,down,5e16c978783225c8108ef055,2021-09-11_14h42.45.782,arrow_simon_vert,2021.1.2,Win32,59.85156811,,,,,,,,,,,,,,,,,,,,,right,1,1.7436,29,TRUE,FALSE,7,0,28,0,1,,,,,,,
,,,,,,0,1.914434106,#f3af84,"[""0"",""0.25""]",up_orange.png,up,,,,,,,,right,right_blue.png,up_orange.png,up,right,up,5e16c978783225c8108ef055,2021-09-11_14h42.45.782,arrow_simon_vert,2021.1.2,Win32,59.85156811,,,,,,,,,,,,,,,,,,,,,up,1,1.7599,30,TRUE,FALSE,7,1,29,1,1,,,,,,,
,,,,,,0,1.94871048,#a3d0fb,"[""-0.25"",""0""]",right_blue.png,right,,,,,,,,right,right_blue.png,up_orange.png,up,left,down,5e16c978783225c8108ef055,2021-09-11_14h42.45.782,arrow_simon_vert,2021.1.2,Win32,59.85156811,,,,,,,,,,,,,,,,,,,,,right,1,1.6429,31,TRUE,FALSE,7,2,30,0,1,,,,,,,
,,,,,,0,1.769900523,#f3af84,"[""0"",""-0.25""]",down_orange.png,down,,,,,,,,left,left_blue.png,down_orange.png,down,left,down,5e16c978783225c8108ef055,2021-09-11_14h42.45.782,arrow_simon_vert,2021.1.2,Win32,59.85156811,,,,,,,,,,,,,,,,,,,,,down,1,1.6759,32,TRUE,FALSE,7,3,31,2,1,,,,,,,
,,,,,,0,2.431334207,#a3d0fb,"[""0.25"",""0""]",right_blue.png,right,,,,,,,,right,right_blue.png,up_orange.png,up,right,up,5e16c978783225c8108ef055,2021-09-11_14h42.45.782,arrow_simon_vert,2021.1.2,Win32,59.85156811,,,,,,,,,,,,,,,,,,,,,right,1,2.0257,33,TRUE,FALSE,8,0,32,1,1,,,,,,,
,,,,,,0,2.308893937,#f3af84,"[""0"",""-0.25""]",up_orange.png,up,,,,,,,,right,right_blue.png,up_orange.png,up,left,down,5e16c978783225c8108ef055,2021-09-11_14h42.45.782,arrow_simon_vert,2021.1.2,Win32,59.85156811,,,,,,,,,,,,,,,,,,,,,up,1,1.8762,34,TRUE,FALSE,8,1,33,0,1,,,,,,,
,,,,,,0,2.149778143,#a3d0fb,"[""0.25"",""0""]",right_blue.png,right,,,,,,,,right,right_blue.png,up_orange.png,up,right,up,5e16c978783225c8108ef055,2021-09-11_14h42.45.782,arrow_simon_vert,2021.1.2,Win32,59.85156811,,,,,,,,,,,,,,,,,,,,,right,1,1.7927,35,TRUE,FALSE,8,2,34,1,1,,,,,,,
,,,,,,0,1.852306801,#f3af84,"[""0"",""0.25""]",up_orange.png,up,,,,,,,,right,right_blue.png,up_orange.png,up,right,up,5e16c978783225c8108ef055,2021-09-11_14h42.45.782,arrow_simon_vert,2021.1.2,Win32,59.85156811,,,,,,,,,,,,,,,,,,,,,up,1,1.4593,36,FALSE,FALSE,8,3,35,1,1,,,,,,,
,,,,,,0,2.346279263,#a3d0fb,"[""0.25"",""0""]",left_blue.png,left,,,,,,,,left,left_blue.png,down_orange.png,down,right,up,5e16c978783225c8108ef055,2021-09-11_14h42.45.782,arrow_simon_vert,2021.1.2,Win32,59.85156811,,,,,,,,,,,,,,,,,,,,,left,1,1.9122,37,TRUE,FALSE,9,0,36,3,1,,,,,,,
,,,,,,0,1.917562703,#f3af84,"[""0"",""-0.25""]",down_orange.png,down,,,,,,,,left,left_blue.png,down_orange.png,down,left,down,5e16c978783225c8108ef055,2021-09-11_14h42.45.782,arrow_simon_vert,2021.1.2,Win32,59.85156811,,,,,,,,,,,,,,,,,,,,,up,0,1.8263,38,TRUE,FALSE,9,1,37,2,1,,,,,,,
,,,,,,0,2.44955568,#a3d0fb,"[""-0.25"",""0""]",left_blue.png,left,,,,,,,,left,left_blue.png,down_orange.png,down,left,down,5e16c978783225c8108ef055,2021-09-11_14h42.45.782,arrow_simon_vert,2021.1.2,Win32,59.85156811,,,,,,,,,,,,,,,,,,,,,left,1,1.8609,39,TRUE,FALSE,9,2,38,2,1,,,,,,,
,,,,,,0,1.805921746,#f3af84,"[""0"",""-0.25""]",down_orange.png,down,,,,,,,,left,left_blue.png,down_orange.png,down,left,down,5e16c978783225c8108ef055,2021-09-11_14h42.45.782,arrow_simon_vert,2021.1.2,Win32,59.85156811,,,,,,,,,,,,,,,,,,,,,down,1,1.6601,40,TRUE,FALSE,9,3,39,2,1,,,,,,,
,,,,,,0,1.630268452,#a3d0fb,"[""-0.25"",""0""]",right_blue.png,right,,,,,,,,right,right_blue.png,up_orange.png,up,left,down,5e16c978783225c8108ef055,2021-09-11_14h42.45.782,arrow_simon_vert,2021.1.2,Win32,59.85156811,,,,,,,,,,,,,,,,,,,,,left,0,1.6097,41,TRUE,FALSE,10,0,40,0,1,,,,,,,
,,,,,,0,2.043382108,#f3af84,"[""0"",""-0.25""]",down_orange.png,down,,,,,,,,left,left_blue.png,down_orange.png,down,left,down,5e16c978783225c8108ef055,2021-09-11_14h42.45.782,arrow_simon_vert,2021.1.2,Win32,59.85156811,,,,,,,,,,,,,,,,,,,,,down,1,1.7774,42,TRUE,FALSE,10,1,41,2,1,,,,,,,
,,,,,,0,2.349378906,#a3d0fb,"[""-0.25"",""0""]",left_blue.png,left,,,,,,,,left,left_blue.png,down_orange.png,down,left,down,5e16c978783225c8108ef055,2021-09-11_14h42.45.782,arrow_simon_vert,2021.1.2,Win32,59.85156811,,,,,,,,,,,,,,,,,,,,,left,1,1.9631,43,TRUE,FALSE,10,2,42,2,1,,,,,,,
,,,,,,0,2.454575726,#f3af84,"[""0"",""0.25""]",up_orange.png,up,,,,,,,,right,right_blue.png,up_orange.png,up,right,up,5e16c978783225c8108ef055,2021-09-11_14h42.45.782,arrow_simon_vert,2021.1.2,Win32,59.85156811,,,,,,,,,,,,,,,,,,,,,up,1,2.0593,44,TRUE,FALSE,10,3,43,1,1,,,,,,,
,,,,,,0,1.929077827,#a3d0fb,"[""-0.25"",""0""]",left_blue.png,left,,,,,,,,left,left_blue.png,down_orange.png,down,left,down,5e16c978783225c8108ef055,2021-09-11_14h42.45.782,arrow_simon_vert,2021.1.2,Win32,59.85156811,,,,,,,,,,,,,,,,,,,,,left,1,1.5578,45,FALSE,FALSE,11,0,44,2,1,,,,,,,
,,,,,,0,2.085507235,#f3af84,"[""0"",""-0.25""]",up_orange.png,up,,,,,,,,right,right_blue.png,up_orange.png,up,left,down,5e16c978783225c8108ef055,2021-09-11_14h42.45.782,arrow_simon_vert,2021.1.2,Win32,59.85156811,,,,,,,,,,,,,,,,,,,,,up,1,1.8935,46,TRUE,FALSE,11,1,45,0,1,,,,,,,
,,,,,,0,2.482462732,#a3d0fb,"[""0.25"",""0""]",right_blue.png,right,,,,,,,,right,right_blue.png,up_orange.png,up,right,up,5e16c978783225c8108ef055,2021-09-11_14h42.45.782,arrow_simon_vert,2021.1.2,Win32,59.85156811,,,,,,,,,,,,,,,,,,,,,right,1,1.959,47,TRUE,FALSE,11,2,46,1,1,,,,,,,
,,,,,,0,2.475293759,#f3af84,"[""0"",""0.25""]",down_orange.png,down,,,,,,,,left,left_blue.png,down_orange.png,down,right,up,5e16c978783225c8108ef055,2021-09-11_14h42.45.782,arrow_simon_vert,2021.1.2,Win32,59.85156811,,,,,,,,,,,,,,,,,,,,,down,1,2.0106,48,TRUE,FALSE,11,3,47,3,1,,,,,,,
,,,,,,0,1.991307081,#a3d0fb,"[""-0.25"",""0""]",right_blue.png,right,,,,,,,,right,right_blue.png,up_orange.png,up,left,down,5e16c978783225c8108ef055,2021-09-11_14h42.45.782,arrow_simon_vert,2021.1.2,Win32,59.85156811,,,,,,,,,,,,,,,,,,,,,right,1,1.6767,49,TRUE,FALSE,12,0,48,0,1,,,,,,,
,,,,,,0,2.303476857,#f3af84,"[""0"",""-0.25""]",down_orange.png,down,,,,,,,,left,left_blue.png,down_orange.png,down,left,down,5e16c978783225c8108ef055,2021-09-11_14h42.45.782,arrow_simon_vert,2021.1.2,Win32,59.85156811,,,,,,,,,,,,,,,,,,,,,down,1,1.8263,50,TRUE,FALSE,12,1,49,2,1,,,,,,,
,,,,,,0,1.967543713,#a3d0fb,"[""0.25"",""0""]",left_blue.png,left,,,,,,,,left,left_blue.png,down_orange.png,down,right,up,5e16c978783225c8108ef055,2021-09-11_14h42.45.782,arrow_simon_vert,2021.1.2,Win32,59.85156811,,,,,,,,,,,,,,,,,,,,,left,1,1.5431,51,FALSE,FALSE,12,2,50,3,1,,,,,,,
,,,,,,0,2.112893184,#f3af84,"[""0"",""0.25""]",down_orange.png,down,,,,,,,,left,left_blue.png,down_orange.png,down,right,up,5e16c978783225c8108ef055,2021-09-11_14h42.45.782,arrow_simon_vert,2021.1.2,Win32,59.85156811,,,,,,,,,,,,,,,,,,,,,down,1,1.7599,52,TRUE,FALSE,12,3,51,3,1,,,,,,,
,,,,,,0,2.440196951,#a3d0fb,"[""-0.25"",""0""]",right_blue.png,right,,,,,,,,right,right_blue.png,up_orange.png,up,left,down,5e16c978783225c8108ef055,2021-09-11_14h42.45.782,arrow_simon_vert,2021.1.2,Win32,59.85156811,,,,,,,,,,,,,,,,,,,,,right,1,1.8751,53,TRUE,FALSE,13,0,52,0,1,,,,,,,
,,,,,,0,2.211527536,#f3af84,"[""0"",""-0.25""]",up_orange.png,up,,,,,,,,right,right_blue.png,up_orange.png,up,left,down,5e16c978783225c8108ef055,2021-09-11_14h42.45.782,arrow_simon_vert,2021.1.2,Win32,59.85156811,,,,,,,,,,,,,,,,,,,,,up,1,1.8596,54,TRUE,FALSE,13,1,53,0,1,,,,,,,
,,,,,,0,2.004542426,#a3d0fb,"[""-0.25"",""0""]",left_blue.png,left,,,,,,,,left,left_blue.png,down_orange.png,down,left,down,5e16c978783225c8108ef055,2021-09-11_14h42.45.782,arrow_simon_vert,2021.1.2,Win32,59.85156811,,,,,,,,,,,,,,,,,,,,,left,1,1.7938,55,TRUE,FALSE,13,2,54,2,1,,,,,,,
,,,,,,0,1.913972067,#f3af84,"[""0"",""0.25""]",up_orange.png,up,,,,,,,,right,right_blue.png,up_orange.png,up,right,up,5e16c978783225c8108ef055,2021-09-11_14h42.45.782,arrow_simon_vert,2021.1.2,Win32,59.85156811,,,,,,,,,,,,,,,,,,,,,up,1,1.6106,56,TRUE,FALSE,13,3,55,1,1,,,,,,,
,,,,,,0,1.531389184,#a3d0fb,"[""0.25"",""0""]",right_blue.png,right,,,,,,,,right,right_blue.png,up_orange.png,up,right,up,5e16c978783225c8108ef055,2021-09-11_14h42.45.782,arrow_simon_vert,2021.1.2,Win32,59.85156811,,,,,,,,,,,,,,,,,,,,,right,1,1.5094,57,FALSE,FALSE,14,0,56,1,1,,,,,,,
,,,,,,0,2.014560506,#f3af84,"[""0"",""0.25""]",down_orange.png,down,,,,,,,,left,left_blue.png,down_orange.png,down,right,up,5e16c978783225c8108ef055,2021-09-11_14h42.45.782,arrow_simon_vert,2021.1.2,Win32,59.85156811,,,,,,,,,,,,,,,,,,,,,down,1,1.6597,58,TRUE,FALSE,14,1,57,3,1,,,,,,,
,,,,,,0,2.054214029,#a3d0fb,"[""-0.25"",""0""]",right_blue.png,right,,,,,,,,right,right_blue.png,up_orange.png,up,left,down,5e16c978783225c8108ef055,2021-09-11_14h42.45.782,arrow_simon_vert,2021.1.2,Win32,59.85156811,,,,,,,,,,,,,,,,,,,,,right,1,1.6789,59,TRUE,FALSE,14,2,58,0,1,,,,,,,
,,,,,,0,2.105746889,#f3af84,"[""0"",""-0.25""]",up_orange.png,up,,,,,,,,right,right_blue.png,up_orange.png,up,left,down,5e16c978783225c8108ef055,2021-09-11_14h42.45.782,arrow_simon_vert,2021.1.2,Win32,59.85156811,,,,,,,,,,,,,,,,,,,,,up,1,1.6599,60,TRUE,FALSE,14,3,59,0,1,,,,,,,
,,,,,,,,,,,,,,,,,,,,,,,,,5e16c978783225c8108ef055,2021-09-11_14h42.45.782,arrow_simon_vert,2021.1.2,Win32,59.85156811,,,,,,,,,,,,,,,,,,,,,,,,,,,,,,,,space,27.7811,0,0,0,0,1
,,,,,,0,1.920466565,#a3d0fb,"[""-0.25"",""0""]",right_blue.png,right,,,,,,,,right,right_blue.png,up_orange.png,up,left,down,5e16c978783225c8108ef055,2021-09-11_14h42.45.782,arrow_simon_vert,2021.1.2,Win32,59.85156811,,,,,,,,,,,,,,,,,,,,,right,1,1.6096,1,TRUE,FALSE,0,0,0,0,1,,,,,,,
,,,,,,0,1.662257502,#f3af84,"[""0"",""-0.25""]",down_orange.png,down,,,,,,,,left,left_blue.png,down_orange.png,down,left,down,5e16c978783225c8108ef055,2021-09-11_14h42.45.782,arrow_simon_vert,2021.1.2,Win32,59.85156811,,,,,,,,,,,,,,,,,,,,,down,1,1.4581,2,FALSE,FALSE,0,1,1,2,1,,,,,,,
,,,,,,0,1.683228561,#a3d0fb,"[""0.25"",""0""]",left_blue.png,left,,,,,,,,left,left_blue.png,down_orange.png,down,right,up,5e16c978783225c8108ef055,2021-09-11_14h42.45.782,arrow_simon_vert,2021.1.2,Win32,59.85156811,,,,,,,,,,,,,,,,,,,,,left,1,1.5964,3,FALSE,FALSE,0,2,2,3,1,,,,,,,
,,,,,,0,1.712494422,#f3af84,"[""0"",""-0.25""]",up_orange.png,up,,,,,,,,right,right_blue.png,up_orange.png,up,left,down,5e16c978783225c8108ef055,2021-09-11_14h42.45.782,arrow_simon_vert,2021.1.2,Win32,59.85156811,,,,,,,,,,,,,,,,,,,,,up,1,1.3592,4,FALSE,TRUE,0,3,3,0,1,,,,,,,
,,,,,,0,1.990108081,#a3d0fb,"[""0.25"",""0""]",right_blue.png,right,,,,,,,,right,right_blue.png,up_orange.png,up,right,up,5e16c978783225c8108ef055,2021-09-11_14h42.45.782,arrow_simon_vert,2021.1.2,Win32,59.85156811,,,,,,,,,,,,,,,,,,,,,right,1,1.5605,5,FALSE,FALSE,1,0,4,1,1,,,,,,,
,,,,,,0,2.08911639,#f3af84,"[""0"",""-0.25""]",down_orange.png,down,,,,,,,,left,left_blue.png,down_orange.png,down,left,down,5e16c978783225c8108ef055,2021-09-11_14h42.45.782,arrow_simon_vert,2021.1.2,Win32,59.85156811,,,,,,,,,,,,,,,,,,,,,down,1,1.6768,6,TRUE,FALSE,1,1,5,2,1,,,,,,,
,,,,,,0,2.180101827,#a3d0fb,"[""-0.25"",""0""]",left_blue.png,left,,,,,,,,left,left_blue.png,down_orange.png,down,left,down,5e16c978783225c8108ef055,2021-09-11_14h42.45.782,arrow_simon_vert,2021.1.2,Win32,59.85156811,,,,,,,,,,,,,,,,,,,,,left,1,1.7138,7,TRUE,FALSE,1,2,6,2,1,,,,,,,
,,,,,,0,1.904185584,#f3af84,"[""0"",""0.25""]",down_orange.png,down,,,,,,,,left,left_blue.png,down_orange.png,down,right,up,5e16c978783225c8108ef055,2021-09-11_14h42.45.782,arrow_simon_vert,2021.1.2,Win32,59.85156811,,,,,,,,,,,,,,,,,,,,,down,1,1.9433,8,TRUE,FALSE,1,3,7,3,1,,,,,,,
,,,,,,0,1.679162331,#a3d0fb,"[""-0.25"",""0""]",right_blue.png,right,,,,,,,,right,right_blue.png,up_orange.png,up,left,down,5e16c978783225c8108ef055,2021-09-11_14h42.45.782,arrow_simon_vert,2021.1.2,Win32,59.85156811,,,,,,,,,,,,,,,,,,,,,right,1,1.3125,9,FALSE,TRUE,2,0,8,0,1,,,,,,,
,,,,,,0,2.354325368,#f3af84,"[""0"",""-0.25""]",up_orange.png,up,,,,,,,,right,right_blue.png,up_orange.png,up,left,down,5e16c978783225c8108ef055,2021-09-11_14h42.45.782,arrow_simon_vert,2021.1.2,Win32,59.85156811,,,,,,,,,,,,,,,,,,,,,up,1,1.8429,10,TRUE,FALSE,2,1,9,0,1,,,,,,,
,,,,,,0,1.795174618,#a3d0fb,"[""-0.25"",""0""]",right_blue.png,right,,,,,,,,right,right_blue.png,up_orange.png,up,left,down,5e16c978783225c8108ef055,2021-09-11_14h42.45.782,arrow_simon_vert,2021.1.2,Win32,59.85156811,,,,,,,,,,,,,,,,,,,,,right,1,1.5457,11,FALSE,FALSE,2,2,10,0,1,,,,,,,
,,,,,,0,2.283036973,#f3af84,"[""0"",""0.25""]",down_orange.png,down,,,,,,,,left,left_blue.png,down_orange.png,down,right,up,5e16c978783225c8108ef055,2021-09-11_14h42.45.782,arrow_simon_vert,2021.1.2,Win32,59.85156811,,,,,,,,,,,,,,,,,,,,,down,1,1.7429,12,TRUE,FALSE,2,3,11,3,1,,,,,,,
,,,,,,0,2.145010873,#a3d0fb,"[""0.25"",""0""]",right_blue.png,right,,,,,,,,right,right_blue.png,up_orange.png,up,right,up,5e16c978783225c8108ef055,2021-09-11_14h42.45.782,arrow_simon_vert,2021.1.2,Win32,59.85156811,,,,,,,,,,,,,,,,,,,,,right,1,1.8424,13,TRUE,FALSE,3,0,12,1,1,,,,,,,
,,,,,,0,2.212926456,#f3af84,"[""0"",""0.25""]",down_orange.png,down,,,,,,,,left,left_blue.png,down_orange.png,down,right,up,5e16c978783225c8108ef055,2021-09-11_14h42.45.782,arrow_simon_vert,2021.1.2,Win32,59.85156811,,,,,,,,,,,,,,,,,,,,,down,1,1.7417,14,TRUE,FALSE,3,1,13,3,1,,,,,,,
,,,,,,0,2.024573746,#a3d0fb,"[""-0.25"",""0""]",right_blue.png,right,,,,,,,,right,right_blue.png,up_orange.png,up,left,down,5e16c978783225c8108ef055,2021-09-11_14h42.45.782,arrow_simon_vert,2021.1.2,Win32,59.85156811,,,,,,,,,,,,,,,,,,,,,right,1,1.7948,15,TRUE,FALSE,3,2,14,0,1,,,,,,,
,,,,,,0,1.634049722,#f3af84,"[""0"",""-0.25""]",down_orange.png,down,,,,,,,,left,left_blue.png,down_orange.png,down,left,down,5e16c978783225c8108ef055,2021-09-11_14h42.45.782,arrow_simon_vert,2021.1.2,Win32,59.85156811,,,,,,,,,,,,,,,,,,,,,down,1,1.3256,16,FALSE,TRUE,3,3,15,2,1,,,,,,,
,,,,,,0,2.005453187,#a3d0fb,"[""-0.25"",""0""]",left_blue.png,left,,,,,,,,left,left_blue.png,down_orange.png,down,left,down,5e16c978783225c8108ef055,2021-09-11_14h42.45.782,arrow_simon_vert,2021.1.2,Win32,59.85156811,,,,,,,,,,,,,,,,,,,,,left,1,1.5615,17,FALSE,FALSE,4,0,16,2,1,,,,,,,
,,,,,,0,2.411796668,#f3af84,"[""0"",""0.25""]",up_orange.png,up,,,,,,,,right,right_blue.png,up_orange.png,up,right,up,5e16c978783225c8108ef055,2021-09-11_14h42.45.782,arrow_simon_vert,2021.1.2,Win32,59.85156811,,,,,,,,,,,,,,,,,,,,,up,1,1.893,18,TRUE,FALSE,4,1,17,1,1,,,,,,,
,,,,,,0,1.966666625,#a3d0fb,"[""0.25"",""0""]",left_blue.png,left,,,,,,,,left,left_blue.png,down_orange.png,down,right,up,5e16c978783225c8108ef055,2021-09-11_14h42.45.782,arrow_simon_vert,2021.1.2,Win32,59.85156811,,,,,,,,,,,,,,,,,,,,,left,1,1.5934,19,FALSE,FALSE,4,2,18,3,1,,,,,,,
,,,,,,0,1.565393529,#f3af84,"[""0"",""-0.25""]",down_orange.png,down,,,,,,,,left,left_blue.png,down_orange.png,down,left,down,5e16c978783225c8108ef055,2021-09-11_14h42.45.782,arrow_simon_vert,2021.1.2,Win32,59.85156811,,,,,,,,,,,,,,,,,,,,,down,1,1.4791,20,FALSE,FALSE,4,3,19,2,1,,,,,,,
,,,,,,0,2.483813275,#a3d0fb,"[""0.25"",""0""]",right_blue.png,right,,,,,,,,right,right_blue.png,up_orange.png,up,right,up,5e16c978783225c8108ef055,2021-09-11_14h42.45.782,arrow_simon_vert,2021.1.2,Win32,59.85156811,,,,,,,,,,,,,,,,,,,,,right,1,1.9435,21,TRUE,FALSE,5,0,20,1,1,,,,,,,
,,,,,,0,2.347622153,#f3af84,"[""0"",""0.25""]",up_orange.png,up,,,,,,,,right,right_blue.png,up_orange.png,up,right,up,5e16c978783225c8108ef055,2021-09-11_14h42.45.782,arrow_simon_vert,2021.1.2,Win32,59.85156811,,,,,,,,,,,,,,,,,,,,,up,1,1.7925,22,TRUE,FALSE,5,1,21,1,1,,,,,,,
,,,,,,0,1.701790099,#a3d0fb,"[""0.25"",""0""]",left_blue.png,left,,,,,,,,left,left_blue.png,down_orange.png,down,right,up,5e16c978783225c8108ef055,2021-09-11_14h42.45.782,arrow_simon_vert,2021.1.2,Win32,59.85156811,,,,,,,,,,,,,,,,,,,,,left,1,1.4082,23,FALSE,FALSE,5,2,22,3,1,,,,,,,
,,,,,,0,2.217000332,#f3af84,"[""0"",""0.25""]",down_orange.png,down,,,,,,,,left,left_blue.png,down_orange.png,down,right,up,5e16c978783225c8108ef055,2021-09-11_14h42.45.782,arrow_simon_vert,2021.1.2,Win32,59.85156811,,,,,,,,,,,,,,,,,,,,,left,0,1.8931,24,TRUE,FALSE,5,3,23,3,1,,,,,,,
,,,,,,0,2.371546023,#a3d0fb,"[""0.25"",""0""]",left_blue.png,left,,,,,,,,left,left_blue.png,down_orange.png,down,right,up,5e16c978783225c8108ef055,2021-09-11_14h42.45.782,arrow_simon_vert,2021.1.2,Win32,59.85156811,,,,,,,,,,,,,,,,,,,,,left,1,1.8121,25,TRUE,FALSE,6,0,24,3,1,,,,,,,
,,,,,,0,1.972399555,#f3af84,"[""0"",""0.25""]",up_orange.png,up,,,,,,,,right,right_blue.png,up_orange.png,up,right,up,5e16c978783225c8108ef055,2021-09-11_14h42.45.782,arrow_simon_vert,2021.1.2,Win32,59.85156811,,,,,,,,,,,,,,,,,,,,,up,1,1.5604,26,FALSE,FALSE,6,1,25,1,1,,,,,,,
,,,,,,0,1.573504781,#a3d0fb,"[""0.25"",""0""]",right_blue.png,right,,,,,,,,right,right_blue.png,up_orange.png,up,right,up,5e16c978783225c8108ef055,2021-09-11_14h42.45.782,arrow_simon_vert,2021.1.2,Win32,59.85156811,,,,,,,,,,,,,,,,,,,,,right,1,1.3084,27,FALSE,TRUE,6,2,26,1,1,,,,,,,
,,,,,,0,2.402415262,#f3af84,"[""0"",""0.25""]",down_orange.png,down,,,,,,,,left,left_blue.png,down_orange.png,down,right,up,5e16c978783225c8108ef055,2021-09-11_14h42.45.782,arrow_simon_vert,2021.1.2,Win32,59.85156811,,,,,,,,,,,,,,,,,,,,,left,0,1.9264,28,TRUE,FALSE,6,3,27,3,1,,,,,,,
,,,,,,0,1.743903996,#a3d0fb,"[""0.25"",""0""]",left_blue.png,left,,,,,,,,left,left_blue.png,down_orange.png,down,right,up,5e16c978783225c8108ef055,2021-09-11_14h42.45.782,arrow_simon_vert,2021.1.2,Win32,59.85156811,,,,,,,,,,,,,,,,,,,,,left,1,1.6096,29,TRUE,FALSE,7,0,28,3,1,,,,,,,
,,,,,,0,2.212189047,#f3af84,"[""0"",""-0.25""]",down_orange.png,down,,,,,,,,left,left_blue.png,down_orange.png,down,left,down,5e16c978783225c8108ef055,2021-09-11_14h42.45.782,arrow_simon_vert,2021.1.2,Win32,59.85156811,,,,,,,,,,,,,,,,,,,,,down,1,1.776,30,TRUE,FALSE,7,1,29,2,1,,,,,,,
,,,,,,0,2.165659139,#a3d0fb,"[""0.25"",""0""]",right_blue.png,right,,,,,,,,right,right_blue.png,up_orange.png,up,right,up,5e16c978783225c8108ef055,2021-09-11_14h42.45.782,arrow_simon_vert,2021.1.2,Win32,59.85156811,,,,,,,,,,,,,,,,,,,,,right,1,1.6767,31,TRUE,FALSE,7,2,30,1,1,,,,,,,
,,,,,,0,2.025491114,#f3af84,"[""0"",""-0.25""]",up_orange.png,up,,,,,,,,right,right_blue.png,up_orange.png,up,left,down,5e16c978783225c8108ef055,2021-09-11_14h42.45.782,arrow_simon_vert,2021.1.2,Win32,59.85156811,,,,,,,,,,,,,,,,,,,,,up,1,1.693,32,TRUE,FALSE,7,3,31,0,1,,,,,,,
,,,,,,0,2.057477562,#a3d0fb,"[""0.25"",""0""]",left_blue.png,left,,,,,,,,left,left_blue.png,down_orange.png,down,right,up,5e16c978783225c8108ef055,2021-09-11_14h42.45.782,arrow_simon_vert,2021.1.2,Win32,59.85156811,,,,,,,,,,,,,,,,,,,,,left,1,1.5099,33,FALSE,FALSE,8,0,32,3,1,,,,,,,
,,,,,,0,2.080050089,#f3af84,"[""0"",""-0.25""]",up_orange.png,up,,,,,,,,right,right_blue.png,up_orange.png,up,left,down,5e16c978783225c8108ef055,2021-09-11_14h42.45.782,arrow_simon_vert,2021.1.2,Win32,59.85156811,,,,,,,,,,,,,,,,,,,,,up,1,1.8263,34,TRUE,FALSE,8,1,33,0,1,,,,,,,
,,,,,,0,2.303753865,#a3d0fb,"[""0.25"",""0""]",right_blue.png,right,,,,,,,,right,right_blue.png,up_orange.png,up,right,up,5e16c978783225c8108ef055,2021-09-11_14h42.45.782,arrow_simon_vert,2021.1.2,Win32,59.85156811,,,,,,,,,,,,,,,,,,,,,right,1,1.76,35,TRUE,FALSE,8,2,34,1,1,,,,,,,
,,,,,,0,1.786782184,#f3af84,"[""0"",""-0.25""]",down_orange.png,down,,,,,,,,left,left_blue.png,down_orange.png,down,left,down,5e16c978783225c8108ef055,2021-09-11_14h42.45.782,arrow_simon_vert,2021.1.2,Win32,59.85156811,,,,,,,,,,,,,,,,,,,,,down,1,1.3594,36,FALSE,TRUE,8,3,35,2,1,,,,,,,
,,,,,,0,2.396078309,#a3d0fb,"[""0.25"",""0""]",right_blue.png,right,,,,,,,,right,right_blue.png,up_orange.png,up,right,up,5e16c978783225c8108ef055,2021-09-11_14h42.45.782,arrow_simon_vert,2021.1.2,Win32,59.85156811,,,,,,,,,,,,,,,,,,,,,right,1,1.9927,37,TRUE,FALSE,9,0,36,1,1,,,,,,,
,,,,,,0,2.473708785,#f3af84,"[""0"",""-0.25""]",down_orange.png,down,,,,,,,,left,left_blue.png,down_orange.png,down,left,down,5e16c978783225c8108ef055,2021-09-11_14h42.45.782,arrow_simon_vert,2021.1.2,Win32,59.85156811,,,,,,,,,,,,,,,,,,,,,down,1,1.9927,38,TRUE,FALSE,9,1,37,2,1,,,,,,,
,,,,,,0,2.370242604,#a3d0fb,"[""-0.25"",""0""]",right_blue.png,right,,,,,,,,right,right_blue.png,up_orange.png,up,left,down,5e16c978783225c8108ef055,2021-09-11_14h42.45.782,arrow_simon_vert,2021.1.2,Win32,59.85156811,,,,,,,,,,,,,,,,,,,,,left,0,1.7101,39,TRUE,FALSE,9,2,38,0,1,,,,,,,
,,,,,,0,1.626965539,#f3af84,"[""0"",""-0.25""]",up_orange.png,up,,,,,,,,right,right_blue.png,up_orange.png,up,left,down,5e16c978783225c8108ef055,2021-09-11_14h42.45.782,arrow_simon_vert,2021.1.2,Win32,59.85156811,,,,,,,,,,,,,,,,,,,,,up,1,1.3258,40,FALSE,TRUE,9,3,39,0,1,,,,,,,
,,,,,,0,1.556471119,#a3d0fb,"[""-0.25"",""0""]",right_blue.png,right,,,,,,,,right,right_blue.png,up_orange.png,up,left,down,5e16c978783225c8108ef055,2021-09-11_14h42.45.782,arrow_simon_vert,2021.1.2,Win32,59.85156811,,,,,,,,,,,,,,,,,,,,,right,1,1.2914,41,FALSE,TRUE,10,0,40,0,1,,,,,,,
,,,,,,1,2.23969843,#f3af84,"[""0"",""0.25""]",up_orange.png,up,,,,,,,,right,right_blue.png,up_orange.png,up,right,up,5e16c978783225c8108ef055,2021-09-11_14h42.45.782,arrow_simon_vert,2021.1.2,Win32,59.85156811,,,,,,,,,,,,,,,,,,,,,right,0,1.5766,42,FALSE,FALSE,10,1,41,1,1,,,,,,,
,,,,,,1,2.345244396,#a3d0fb,"[""0.25"",""0""]",right_blue.png,right,,,,,,,,right,right_blue.png,up_orange.png,up,right,up,5e16c978783225c8108ef055,2021-09-11_14h42.45.782,arrow_simon_vert,2021.1.2,Win32,59.85156811,,,,,,,,,,,,,,,,,,,,,right,1,1.8089,43,TRUE,FALSE,10,2,42,1,1,,,,,,,
,,,,,,0,1.956415511,#f3af84,"[""0"",""-0.25""]",down_orange.png,down,,,,,,,,left,left_blue.png,down_orange.png,down,left,down,5e16c978783225c8108ef055,2021-09-11_14h42.45.782,arrow_simon_vert,2021.1.2,Win32,59.85156811,,,,,,,,,,,,,,,,,,,,,down,1,1.5594,44,FALSE,FALSE,10,3,43,2,1,,,,,,,
,,,,,,0,1.799193506,#a3d0fb,"[""-0.25"",""0""]",right_blue.png,right,,,,,,,,right,right_blue.png,up_orange.png,up,left,down,5e16c978783225c8108ef055,2021-09-11_14h42.45.782,arrow_simon_vert,2021.1.2,Win32,59.85156811,,,,,,,,,,,,,,,,,,,,,right,1,1.53,45,FALSE,FALSE,11,0,44,0,1,,,,,,,
,,,,,,0,2.415077759,#f3af84,"[""0"",""0.25""]",down_orange.png,down,,,,,,,,left,left_blue.png,down_orange.png,down,right,up,5e16c978783225c8108ef055,2021-09-11_14h42.45.782,arrow_simon_vert,2021.1.2,Win32,59.85156811,,,,,,,,,,,,,,,,,,,,,up,0,1.7761,46,TRUE,FALSE,11,1,45,3,1,,,,,,,
,,,,,,0,1.58548766,#a3d0fb,"[""0.25"",""0""]",left_blue.png,left,,,,,,,,left,left_blue.png,down_orange.png,down,right,up,5e16c978783225c8108ef055,2021-09-11_14h42.45.782,arrow_simon_vert,2021.1.2,Win32,59.85156811,,,,,,,,,,,,,,,,,,,,,left,1,1.4753,47,FALSE,FALSE,11,2,46,3,1,,,,,,,
,,,,,,0,1.92666589,#f3af84,"[""0"",""-0.25""]",up_orange.png,up,,,,,,,,right,right_blue.png,up_orange.png,up,left,down,5e16c978783225c8108ef055,2021-09-11_14h42.45.782,arrow_simon_vert,2021.1.2,Win32,59.85156811,,,,,,,,,,,,,,,,,,,,,up,1,1.7758,48,TRUE,FALSE,11,3,47,0,1,,,,,,,
,,,,,,0,1.849252784,#a3d0fb,"[""-0.25"",""0""]",left_blue.png,left,,,,,,,,left,left_blue.png,down_orange.png,down,left,down,5e16c978783225c8108ef055,2021-09-11_14h42.45.782,arrow_simon_vert,2021.1.2,Win32,59.85156811,,,,,,,,,,,,,,,,,,,,,left,1,1.5932,49,FALSE,FALSE,12,0,48,2,1,,,,,,,
,,,,,,0,2.279607376,#f3af84,"[""0"",""-0.25""]",down_orange.png,down,,,,,,,,left,left_blue.png,down_orange.png,down,left,down,5e16c978783225c8108ef055,2021-09-11_14h42.45.782,arrow_simon_vert,2021.1.2,Win32,59.85156811,,,,,,,,,,,,,,,,,,,,,down,1,1.9755,50,TRUE,FALSE,12,1,49,2,1,,,,,,,
,,,,,,0,1.762943494,#a3d0fb,"[""-0.25"",""0""]",left_blue.png,left,,,,,,,,left,left_blue.png,down_orange.png,down,left,down,5e16c978783225c8108ef055,2021-09-11_14h42.45.782,arrow_simon_vert,2021.1.2,Win32,59.85156811,,,,,,,,,,,,,,,,,,,,,left,1,1.4752,51,FALSE,FALSE,12,2,50,2,1,,,,,,,
,,,,,,0,1.531866153,#f3af84,"[""0"",""-0.25""]",down_orange.png,down,,,,,,,,left,left_blue.png,down_orange.png,down,left,down,5e16c978783225c8108ef055,2021-09-11_14h42.45.782,arrow_simon_vert,2021.1.2,Win32,59.85156811,,,,,,,,,,,,,,,,,,,,,down,1,1.3752,52,FALSE,TRUE,12,3,51,2,1,,,,,,,
,,,,,,0,2.129222226,#a3d0fb,"[""0.25"",""0""]",right_blue.png,right,,,,,,,,right,right_blue.png,up_orange.png,up,right,up,5e16c978783225c8108ef055,2021-09-11_14h42.45.782,arrow_simon_vert,2021.1.2,Win32,59.85156811,,,,,,,,,,,,,,,,,,,,,right,1,1.8765,53,TRUE,FALSE,13,0,52,1,1,,,,,,,
,,,,,,0,1.582806347,#f3af84,"[""0"",""0.25""]",up_orange.png,up,,,,,,,,right,right_blue.png,up_orange.png,up,right,up,5e16c978783225c8108ef055,2021-09-11_14h42.45.782,arrow_simon_vert,2021.1.2,Win32,59.85156811,,,,,,,,,,,,,,,,,,,,,up,1,1.342,54,FALSE,TRUE,13,1,53,1,1,,,,,,,
,,,,,,0,1.886146872,#a3d0fb,"[""-0.25"",""0""]",right_blue.png,right,,,,,,,,right,right_blue.png,up_orange.png,up,left,down,5e16c978783225c8108ef055,2021-09-11_14h42.45.782,arrow_simon_vert,2021.1.2,Win32,59.85156811,,,,,,,,,,,,,,,,,,,,,right,1,1.543,55,FALSE,FALSE,13,2,54,0,1,,,,,,,
,,,,,,0,2.220251179,#f3af84,"[""0"",""-0.25""]",down_orange.png,down,,,,,,,,left,left_blue.png,down_orange.png,down,left,down,5e16c978783225c8108ef055,2021-09-11_14h42.45.782,arrow_simon_vert,2021.1.2,Win32,59.85156811,,,,,,,,,,,,,,,,,,,,,down,1,1.7425,56,TRUE,FALSE,13,3,55,2,1,,,,,,,
,,,,,,0,2.1298414,#a3d0fb,"[""0.25"",""0""]",left_blue.png,left,,,,,,,,left,left_blue.png,down_orange.png,down,right,up,5e16c978783225c8108ef055,2021-09-11_14h42.45.782,arrow_simon_vert,2021.1.2,Win32,59.85156811,,,,,,,,,,,,,,,,,,,,,left,1,1.8133,57,TRUE,FALSE,14,0,56,3,1,,,,,,,
,,,,,,0,2.203829513,#f3af84,"[""0"",""-0.25""]",up_orange.png,up,,,,,,,,right,right_blue.png,up_orange.png,up,left,down,5e16c978783225c8108ef055,2021-09-11_14h42.45.782,arrow_simon_vert,2021.1.2,Win32,59.85156811,,,,,,,,,,,,,,,,,,,,,up,1,1.7439,58,TRUE,FALSE,14,1,57,0,1,,,,,,,
,,,,,,0,2.483222957,#a3d0fb,"[""0.25"",""0""]",left_blue.png,left,,,,,,,,left,left_blue.png,down_orange.png,down,right,up,5e16c978783225c8108ef055,2021-09-11_14h42.45.782,arrow_simon_vert,2021.1.2,Win32,59.85156811,,,,,,,,,,,,,,,,,,,,,right,0,1.8758,59,TRUE,FALSE,14,2,58,3,1,,,,,,,
,,,,,,0,2.411044571,#f3af84,"[""0"",""0.25""]",up_orange.png,up,,,,,,,,right,right_blue.png,up_orange.png,up,right,up,5e16c978783225c8108ef055,2021-09-11_14h42.45.782,arrow_simon_vert,2021.1.2,Win32,59.85156811,,,,,,,,,,,,,,,,,,,,,up,1,2.0258,60,TRUE,FALSE,14,3,59,1,1,,,,,,,
,,,,,,,,,,,,,,,,,,,,,,,,,5e16c978783225c8108ef055,2021-09-11_14h42.45.782,arrow_simon_vert,2021.1.2,Win32,59.85156811,,,,,,,,,,,,,,,,,,,,,,,,,,,,,,,,space,2.3206,1,0,1,0,1
,,,,,,0,2.417039224,#a3d0fb,"[""-0.25"",""0""]",right_blue.png,right,,,,,,,,right,right_blue.png,up_orange.png,up,left,down,5e16c978783225c8108ef055,2021-09-11_14h42.45.782,arrow_simon_vert,2021.1.2,Win32,59.85156811,,,,,,,,,,,,,,,,,,,,,right,1,1.9264,1,TRUE,FALSE,0,0,0,0,1,,,,,,,
,,,,,,0,2.133067519,#f3af84,"[""0"",""0.25""]",up_orange.png,up,,,,,,,,right,right_blue.png,up_orange.png,up,right,up,5e16c978783225c8108ef055,2021-09-11_14h42.45.782,arrow_simon_vert,2021.1.2,Win32,59.85156811,,,,,,,,,,,,,,,,,,,,,up,1,1.6421,2,TRUE,FALSE,0,1,1,1,1,,,,,,,
,,,,,,0,2.180228999,#a3d0fb,"[""0.25"",""0""]",left_blue.png,left,,,,,,,,left,left_blue.png,down_orange.png,down,right,up,5e16c978783225c8108ef055,2021-09-11_14h42.45.782,arrow_simon_vert,2021.1.2,Win32,59.85156811,,,,,,,,,,,,,,,,,,,,,left,1,1.6597,3,TRUE,FALSE,0,2,2,3,1,,,,,,,
,,,,,,0,2.366532312,#f3af84,"[""0"",""-0.25""]",up_orange.png,up,,,,,,,,right,right_blue.png,up_orange.png,up,left,down,5e16c978783225c8108ef055,2021-09-11_14h42.45.782,arrow_simon_vert,2021.1.2,Win32,59.85156811,,,,,,,,,,,,,,,,,,,,,up,1,1.8274,4,TRUE,FALSE,0,3,3,0,1,,,,,,,
,,,,,,0,1.660226171,#a3d0fb,"[""-0.25"",""0""]",left_blue.png,left,,,,,,,,left,left_blue.png,down_orange.png,down,left,down,5e16c978783225c8108ef055,2021-09-11_14h42.45.782,arrow_simon_vert,2021.1.2,Win32,59.85156811,,,,,,,,,,,,,,,,,,,,,left,1,1.3586,5,FALSE,TRUE,1,0,4,2,1,,,,,,,
,,,,,,0,1.61239408,#f3af84,"[""0"",""0.25""]",down_orange.png,down,,,,,,,,left,left_blue.png,down_orange.png,down,right,up,5e16c978783225c8108ef055,2021-09-11_14h42.45.782,arrow_simon_vert,2021.1.2,Win32,59.85156811,,,,,,,,,,,,,,,,,,,,,down,1,1.346,6,FALSE,TRUE,1,1,5,3,1,,,,,,,
,,,,,,0,1.680761688,#a3d0fb,"[""-0.25"",""0""]",left_blue.png,left,,,,,,,,left,left_blue.png,down_orange.png,down,left,down,5e16c978783225c8108ef055,2021-09-11_14h42.45.782,arrow_simon_vert,2021.1.2,Win32,59.85156811,,,,,,,,,,,,,,,,,,,,,left,1,1.4593,7,FALSE,FALSE,1,2,6,2,1,,,,,,,
,,,,,,0,1.572884368,#f3af84,"[""0"",""0.25""]",down_orange.png,down,,,,,,,,left,left_blue.png,down_orange.png,down,right,up,5e16c978783225c8108ef055,2021-09-11_14h42.45.782,arrow_simon_vert,2021.1.2,Win32,59.85156811,,,,,,,,,,,,,,,,,,,,,down,1,1.6449,8,TRUE,FALSE,1,3,7,3,1,,,,,,,
,,,,,,0,1.89030076,#a3d0fb,"[""-0.25"",""0""]",left_blue.png,left,,,,,,,,left,left_blue.png,down_orange.png,down,left,down,5e16c978783225c8108ef055,2021-09-11_14h42.45.782,arrow_simon_vert,2021.1.2,Win32,59.85156811,,,,,,,,,,,,,,,,,,,,,left,1,1.5433,9,FALSE,FALSE,2,0,8,2,1,,,,,,,
,,,,,,0,1.861774384,#f3af84,"[""0"",""0.25""]",up_orange.png,up,,,,,,,,right,right_blue.png,up_orange.png,up,right,up,5e16c978783225c8108ef055,2021-09-11_14h42.45.782,arrow_simon_vert,2021.1.2,Win32,59.85156811,,,,,,,,,,,,,,,,,,,,,up,1,1.6932,10,TRUE,FALSE,2,1,9,1,1,,,,,,,
,,,,,,0,2.265578777,#a3d0fb,"[""-0.25"",""0""]",right_blue.png,right,,,,,,,,right,right_blue.png,up_orange.png,up,left,down,5e16c978783225c8108ef055,2021-09-11_14h42.45.782,arrow_simon_vert,2021.1.2,Win32,59.85156811,,,,,,,,,,,,,,,,,,,,,right,1,1.8599,11,TRUE,FALSE,2,2,10,0,1,,,,,,,
,,,,,,0,1.830760263,#f3af84,"[""0"",""0.25""]",down_orange.png,down,,,,,,,,left,left_blue.png,down_orange.png,down,right,up,5e16c978783225c8108ef055,2021-09-11_14h42.45.782,arrow_simon_vert,2021.1.2,Win32,59.85156811,,,,,,,,,,,,,,,,,,,,,down,1,1.6926,12,TRUE,FALSE,2,3,11,3,1,,,,,,,
,,,,,,0,1.826771424,#a3d0fb,"[""0.25"",""0""]",right_blue.png,right,,,,,,,,right,right_blue.png,up_orange.png,up,right,up,5e16c978783225c8108ef055,2021-09-11_14h42.45.782,arrow_simon_vert,2021.1.2,Win32,59.85156811,,,,,,,,,,,,,,,,,,,,,right,1,1.5927,13,FALSE,FALSE,3,0,12,1,1,,,,,,,
,,,,,,0,1.588982972,#f3af84,"[""0"",""0.25""]",down_orange.png,down,,,,,,,,left,left_blue.png,down_orange.png,down,right,up,5e16c978783225c8108ef055,2021-09-11_14h42.45.782,arrow_simon_vert,2021.1.2,Win32,59.85156811,,,,,,,,,,,,,,,,,,,,,down,1,1.5106,14,FALSE,FALSE,3,1,13,3,1,,,,,,,
,,,,,,0,1.658424659,#a3d0fb,"[""0.25"",""0""]",left_blue.png,left,,,,,,,,left,left_blue.png,down_orange.png,down,right,up,5e16c978783225c8108ef055,2021-09-11_14h42.45.782,arrow_simon_vert,2021.1.2,Win32,59.85156811,,,,,,,,,,,,,,,,,,,,,left,1,1.3928,15,FALSE,TRUE,3,2,14,3,1,,,,,,,
,,,,,,0,2.131784911,#f3af84,"[""0"",""0.25""]",up_orange.png,up,,,,,,,,right,right_blue.png,up_orange.png,up,right,up,5e16c978783225c8108ef055,2021-09-11_14h42.45.782,arrow_simon_vert,2021.1.2,Win32,59.85156811,,,,,,,,,,,,,,,,,,,,,up,1,1.8631,16,TRUE,FALSE,3,3,15,1,1,,,,,,,
,,,,,,0,1.608803477,#a3d0fb,"[""-0.25"",""0""]",right_blue.png,right,,,,,,,,right,right_blue.png,up_orange.png,up,left,down,5e16c978783225c8108ef055,2021-09-11_14h42.45.782,arrow_simon_vert,2021.1.2,Win32,59.85156811,,,,,,,,,,,,,,,,,,,,,right,1,1.4938,17,FALSE,FALSE,4,0,16,0,1,,,,,,,
,,,,,,0,2.27677307,#f3af84,"[""0"",""-0.25""]",up_orange.png,up,,,,,,,,right,right_blue.png,up_orange.png,up,left,down,5e16c978783225c8108ef055,2021-09-11_14h42.45.782,arrow_simon_vert,2021.1.2,Win32,59.85156811,,,,,,,,,,,,,,,,,,,,,up,1,2.0432,18,TRUE,FALSE,4,1,17,0,1,,,,,,,
,,,,,,0,2.000575283,#a3d0fb,"[""0.25"",""0""]",left_blue.png,left,,,,,,,,left,left_blue.png,down_orange.png,down,right,up,5e16c978783225c8108ef055,2021-09-11_14h42.45.782,arrow_simon_vert,2021.1.2,Win32,59.85156811,,,,,,,,,,,,,,,,,,,,,left,1,1.7429,19,TRUE,FALSE,4,2,18,3,1,,,,,,,
,,,,,,0,2.086913741,#f3af84,"[""0"",""-0.25""]",up_orange.png,up,,,,,,,,right,right_blue.png,up_orange.png,up,left,down,5e16c978783225c8108ef055,2021-09-11_14h42.45.782,arrow_simon_vert,2021.1.2,Win32,59.85156811,,,,,,,,,,,,,,,,,,,,,up,1,1.5775,20,FALSE,FALSE,4,3,19,0,1,,,,,,,
,,,,,,0,2.089501375,#a3d0fb,"[""-0.25"",""0""]",right_blue.png,right,,,,,,,,right,right_blue.png,up_orange.png,up,left,down,5e16c978783225c8108ef055,2021-09-11_14h42.45.782,arrow_simon_vert,2021.1.2,Win32,59.85156811,,,,,,,,,,,,,,,,,,,,,right,1,1.8094,21,TRUE,FALSE,5,0,20,0,1,,,,,,,
,,,,,,0,2.002880429,#f3af84,"[""0"",""-0.25""]",down_orange.png,down,,,,,,,,left,left_blue.png,down_orange.png,down,left,down,5e16c978783225c8108ef055,2021-09-11_14h42.45.782,arrow_simon_vert,2021.1.2,Win32,59.85156811,,,,,,,,,,,,,,,,,,,,,down,1,1.6594,22,TRUE,FALSE,5,1,21,2,1,,,,,,,
,,,,,,0,1.94170525,#a3d0fb,"[""-0.25"",""0""]",left_blue.png,left,,,,,,,,left,left_blue.png,down_orange.png,down,left,down,5e16c978783225c8108ef055,2021-09-11_14h42.45.782,arrow_simon_vert,2021.1.2,Win32,59.85156811,,,,,,,,,,,,,,,,,,,,,left,1,1.426,23,FALSE,FALSE,5,2,22,2,1,,,,,,,
,,,,,,0,1.781228168,#f3af84,"[""0"",""0.25""]",up_orange.png,up,,,,,,,,right,right_blue.png,up_orange.png,up,right,up,5e16c978783225c8108ef055,2021-09-11_14h42.45.782,arrow_simon_vert,2021.1.2,Win32,59.85156811,,,,,,,,,,,,,,,,,,,,,up,1,1.4439,24,FALSE,FALSE,5,3,23,1,1,,,,,,,
,,,,,,0,2.211297461,#a3d0fb,"[""0.25"",""0""]",right_blue.png,right,,,,,,,,right,right_blue.png,up_orange.png,up,right,up,5e16c978783225c8108ef055,2021-09-11_14h42.45.782,arrow_simon_vert,2021.1.2,Win32,59.85156811,,,,,,,,,,,,,,,,,,,,,right,1,1.6265,25,TRUE,FALSE,6,0,24,1,1,,,,,,,
,,,,,,0,1.978788248,#f3af84,"[""0"",""0.25""]",down_orange.png,down,,,,,,,,left,left_blue.png,down_orange.png,down,right,up,5e16c978783225c8108ef055,2021-09-11_14h42.45.782,arrow_simon_vert,2021.1.2,Win32,59.85156811,,,,,,,,,,,,,,,,,,,,,down,1,1.6256,26,TRUE,FALSE,6,1,25,3,1,,,,,,,
,,,,,,0,1.856179194,#a3d0fb,"[""-0.25"",""0""]",left_blue.png,left,,,,,,,,left,left_blue.png,down_orange.png,down,left,down,5e16c978783225c8108ef055,2021-09-11_14h42.45.782,arrow_simon_vert,2021.1.2,Win32,59.85156811,,,,,,,,,,,,,,,,,,,,,left,1,1.3282,27,FALSE,TRUE,6,2,26,2,1,,,,,,,
,,,,,,0,1.67386547,#f3af84,"[""0"",""-0.25""]",down_orange.png,down,,,,,,,,left,left_blue.png,down_orange.png,down,left,down,5e16c978783225c8108ef055,2021-09-11_14h42.45.782,arrow_simon_vert,2021.1.2,Win32,59.85156811,,,,,,,,,,,,,,,,,,,,,down,1,1.4753,28,FALSE,FALSE,6,3,27,2,1,,,,,,,
,,,,,,0,2.232362566,#a3d0fb,"[""0.25"",""0""]",right_blue.png,right,,,,,,,,right,right_blue.png,up_orange.png,up,right,up,5e16c978783225c8108ef055,2021-09-11_14h42.45.782,arrow_simon_vert,2021.1.2,Win32,59.85156811,,,,,,,,,,,,,,,,,,,,,right,1,1.9122,29,TRUE,FALSE,7,0,28,1,1,,,,,,,
,,,,,,0,1.565396488,#f3af84,"[""0"",""-0.25""]",down_orange.png,down,,,,,,,,left,left_blue.png,down_orange.png,down,left,down,5e16c978783225c8108ef055,2021-09-11_14h42.45.782,arrow_simon_vert,2021.1.2,Win32,59.85156811,,,,,,,,,,,,,,,,,,,,,down,1,1.445,30,FALSE,FALSE,7,1,29,2,1,,,,,,,
,,,,,,0,1.656430383,#a3d0fb,"[""-0.25"",""0""]",left_blue.png,left,,,,,,,,left,left_blue.png,down_orange.png,down,left,down,5e16c978783225c8108ef055,2021-09-11_14h42.45.782,arrow_simon_vert,2021.1.2,Win32,59.85156811,,,,,,,,,,,,,,,,,,,,,left,1,1.4918,31,FALSE,FALSE,7,2,30,2,1,,,,,,,
,,,,,,0,1.535235617,#f3af84,"[""0"",""-0.25""]",down_orange.png,down,,,,,,,,left,left_blue.png,down_orange.png,down,left,down,5e16c978783225c8108ef055,2021-09-11_14h42.45.782,arrow_simon_vert,2021.1.2,Win32,59.85156811,,,,,,,,,,,,,,,,,,,,,down,1,1.2585,32,FALSE,TRUE,7,3,31,2,1,,,,,,,
,,,,,,0,2.089282703,#a3d0fb,"[""0.25"",""0""]",left_blue.png,left,,,,,,,,left,left_blue.png,down_orange.png,down,right,up,5e16c978783225c8108ef055,2021-09-11_14h42.45.782,arrow_simon_vert,2021.1.2,Win32,59.85156811,,,,,,,,,,,,,,,,,,,,,left,1,1.5757,33,FALSE,FALSE,8,0,32,3,1,,,,,,,
,,,,,,0,2.245165661,#f3af84,"[""0"",""0.25""]",up_orange.png,up,,,,,,,,right,right_blue.png,up_orange.png,up,right,up,5e16c978783225c8108ef055,2021-09-11_14h42.45.782,arrow_simon_vert,2021.1.2,Win32,59.85156811,,,,,,,,,,,,,,,,,,,,,up,1,1.6594,34,TRUE,FALSE,8,1,33,1,1,,,,,,,
,,,,,,0,1.985117692,#a3d0fb,"[""-0.25"",""0""]",left_blue.png,left,,,,,,,,left,left_blue.png,down_orange.png,down,left,down,5e16c978783225c8108ef055,2021-09-11_14h42.45.782,arrow_simon_vert,2021.1.2,Win32,59.85156811,,,,,,,,,,,,,,,,,,,,,left,1,1.4751,35,FALSE,FALSE,8,2,34,2,1,,,,,,,
,,,,,,0,1.79580508,#f3af84,"[""0"",""-0.25""]",up_orange.png,up,,,,,,,,right,right_blue.png,up_orange.png,up,left,down,5e16c978783225c8108ef055,2021-09-11_14h42.45.782,arrow_simon_vert,2021.1.2,Win32,59.85156811,,,,,,,,,,,,,,,,,,,,,up,1,1.5107,36,FALSE,FALSE,8,3,35,0,1,,,,,,,
,,,,,,0,1.845442982,#a3d0fb,"[""-0.25"",""0""]",right_blue.png,right,,,,,,,,right,right_blue.png,up_orange.png,up,left,down,5e16c978783225c8108ef055,2021-09-11_14h42.45.782,arrow_simon_vert,2021.1.2,Win32,59.85156811,,,,,,,,,,,,,,,,,,,,,right,1,1.6603,37,TRUE,FALSE,9,0,36,0,1,,,,,,,
,,,,,,0,1.665617028,#f3af84,"[""0"",""-0.25""]",up_orange.png,up,,,,,,,,right,right_blue.png,up_orange.png,up,left,down,5e16c978783225c8108ef055,2021-09-11_14h42.45.782,arrow_simon_vert,2021.1.2,Win32,59.85156811,,,,,,,,,,,,,,,,,,,,,up,1,1.5583,38,FALSE,FALSE,9,1,37,0,1,,,,,,,
,,,,,,0,2.22514142,#a3d0fb,"[""0.25"",""0""]",left_blue.png,left,,,,,,,,left,left_blue.png,down_orange.png,down,right,up,5e16c978783225c8108ef055,2021-09-11_14h42.45.782,arrow_simon_vert,2021.1.2,Win32,59.85156811,,,,,,,,,,,,,,,,,,,,,left,1,1.9583,39,TRUE,FALSE,9,2,38,3,1,,,,,,,
,,,,,,0,2.393239154,#f3af84,"[""0"",""-0.25""]",down_orange.png,down,,,,,,,,left,left_blue.png,down_orange.png,down,left,down,5e16c978783225c8108ef055,2021-09-11_14h42.45.782,arrow_simon_vert,2021.1.2,Win32,59.85156811,,,,,,,,,,,,,,,,,,,,,left,0,1.8931,40,TRUE,FALSE,9,3,39,2,1,,,,,,,
,,,,,,0,1.612900252,#a3d0fb,"[""0.25"",""0""]",right_blue.png,right,,,,,,,,right,right_blue.png,up_orange.png,up,right,up,5e16c978783225c8108ef055,2021-09-11_14h42.45.782,arrow_simon_vert,2021.1.2,Win32,59.85156811,,,,,,,,,,,,,,,,,,,,,right,1,1.2936,41,FALSE,TRUE,10,0,40,1,1,,,,,,,
,,,,,,0,1.835721877,#f3af84,"[""0"",""-0.25""]",up_orange.png,up,,,,,,,,right,right_blue.png,up_orange.png,up,left,down,5e16c978783225c8108ef055,2021-09-11_14h42.45.782,arrow_simon_vert,2021.1.2,Win32,59.85156811,,,,,,,,,,,,,,,,,,,,,up,1,1.5107,42,FALSE,FALSE,10,1,41,0,1,,,,,,,
,,,,,,0,2.355598366,#a3d0fb,"[""0.25"",""0""]",left_blue.png,left,,,,,,,,left,left_blue.png,down_orange.png,down,right,up,5e16c978783225c8108ef055,2021-09-11_14h42.45.782,arrow_simon_vert,2021.1.2,Win32,59.85156811,,,,,,,,,,,,,,,,,,,,,left,1,1.8429,43,TRUE,FALSE,10,2,42,3,1,,,,,,,
,,,,,,0,1.60582444,#f3af84,"[""0"",""-0.25""]",down_orange.png,down,,,,,,,,left,left_blue.png,down_orange.png,down,left,down,5e16c978783225c8108ef055,2021-09-11_14h42.45.782,arrow_simon_vert,2021.1.2,Win32,59.85156811,,,,,,,,,,,,,,,,,,,,,down,1,1.3249,44,FALSE,TRUE,10,3,43,2,1,,,,,,,
,,,,,,0,1.948329798,#a3d0fb,"[""0.25"",""0""]",right_blue.png,right,,,,,,,,right,right_blue.png,up_orange.png,up,right,up,5e16c978783225c8108ef055,2021-09-11_14h42.45.782,arrow_simon_vert,2021.1.2,Win32,59.85156811,,,,,,,,,,,,,,,,,,,,,right,1,1.4934,45,FALSE,FALSE,11,0,44,1,1,,,,,,,
,,,,,,0,1.828586428,#f3af84,"[""0"",""0.25""]",down_orange.png,down,,,,,,,,left,left_blue.png,down_orange.png,down,right,up,5e16c978783225c8108ef055,2021-09-11_14h42.45.782,arrow_simon_vert,2021.1.2,Win32,59.85156811,,,,,,,,,,,,,,,,,,,,,down,1,1.7102,46,TRUE,FALSE,11,1,45,3,1,,,,,,,
,,,,,,0,2.309565886,#a3d0fb,"[""0.25"",""0""]",right_blue.png,right,,,,,,,,right,right_blue.png,up_orange.png,up,right,up,5e16c978783225c8108ef055,2021-09-11_14h42.45.782,arrow_simon_vert,2021.1.2,Win32,59.85156811,,,,,,,,,,,,,,,,,,,,,right,1,1.8091,47,TRUE,FALSE,11,2,46,1,1,,,,,,,
,,,,,,0,1.593005169,#f3af84,"[""0"",""0.25""]",down_orange.png,down,,,,,,,,left,left_blue.png,down_orange.png,down,right,up,5e16c978783225c8108ef055,2021-09-11_14h42.45.782,arrow_simon_vert,2021.1.2,Win32,59.85156811,,,,,,,,,,,,,,,,,,,,,down,1,1.3257,48,FALSE,TRUE,11,3,47,3,1,,,,,,,
,,,,,,0,2.085489983,#a3d0fb,"[""-0.25"",""0""]",right_blue.png,right,,,,,,,,right,right_blue.png,up_orange.png,up,left,down,5e16c978783225c8108ef055,2021-09-11_14h42.45.782,arrow_simon_vert,2021.1.2,Win32,59.85156811,,,,,,,,,,,,,,,,,,,,,right,1,1.6284,49,TRUE,FALSE,12,0,48,0,1,,,,,,,
,,,,,,0,1.714398519,#f3af84,"[""0"",""0.25""]",up_orange.png,up,,,,,,,,right,right_blue.png,up_orange.png,up,right,up,5e16c978783225c8108ef055,2021-09-11_14h42.45.782,arrow_simon_vert,2021.1.2,Win32,59.85156811,,,,,,,,,,,,,,,,,,,,,up,1,1.7097,50,TRUE,FALSE,12,1,49,1,1,,,,,,,
,,,,,,0,1.796504228,#a3d0fb,"[""0.25"",""0""]",left_blue.png,left,,,,,,,,left,left_blue.png,down_orange.png,down,right,up,5e16c978783225c8108ef055,2021-09-11_14h42.45.782,arrow_simon_vert,2021.1.2,Win32,59.85156811,,,,,,,,,,,,,,,,,,,,,left,1,1.6756,51,TRUE,FALSE,12,2,50,3,1,,,,,,,
,,,,,,0,1.531563818,#f3af84,"[""0"",""0.25""]",up_orange.png,up,,,,,,,,right,right_blue.png,up_orange.png,up,right,up,5e16c978783225c8108ef055,2021-09-11_14h42.45.782,arrow_simon_vert,2021.1.2,Win32,59.85156811,,,,,,,,,,,,,,,,,,,,,up,1,1.4123,52,FALSE,FALSE,12,3,51,1,1,,,,,,,
,,,,,,0,1.5211064,#a3d0fb,"[""0.25"",""0""]",right_blue.png,right,,,,,,,,right,right_blue.png,up_orange.png,up,right,up,5e16c978783225c8108ef055,2021-09-11_14h42.45.782,arrow_simon_vert,2021.1.2,Win32,59.85156811,,,,,,,,,,,,,,,,,,,,,right,1,1.3919,53,FALSE,TRUE,13,0,52,1,1,,,,,,,
,,,,,,0,1.86038941,#f3af84,"[""0"",""-0.25""]",down_orange.png,down,,,,,,,,left,left_blue.png,down_orange.png,down,left,down,5e16c978783225c8108ef055,2021-09-11_14h42.45.782,arrow_simon_vert,2021.1.2,Win32,59.85156811,,,,,,,,,,,,,,,,,,,,,down,1,1.6422,54,TRUE,FALSE,13,1,53,2,1,,,,,,,
,,,,,,0,2.202116922,#a3d0fb,"[""-0.25"",""0""]",right_blue.png,right,,,,,,,,right,right_blue.png,up_orange.png,up,left,down,5e16c978783225c8108ef055,2021-09-11_14h42.45.782,arrow_simon_vert,2021.1.2,Win32,59.85156811,,,,,,,,,,,,,,,,,,,,,right,1,1.7931,55,TRUE,FALSE,13,2,54,0,1,,,,,,,
,,,,,,0,2.053313793,#f3af84,"[""0"",""0.25""]",down_orange.png,down,,,,,,,,left,left_blue.png,down_orange.png,down,right,up,5e16c978783225c8108ef055,2021-09-11_14h42.45.782,arrow_simon_vert,2021.1.2,Win32,59.85156811,,,,,,,,,,,,,,,,,,,,,down,1,1.6794,56,TRUE,FALSE,13,3,55,3,1,,,,,,,
,,,,,,0,2.397407012,#a3d0fb,"[""0.25"",""0""]",right_blue.png,right,,,,,,,,right,right_blue.png,up_orange.png,up,right,up,5e16c978783225c8108ef055,2021-09-11_14h42.45.782,arrow_simon_vert,2021.1.2,Win32,59.85156811,,,,,,,,,,,,,,,,,,,,,right,1,1.8801,57,TRUE,FALSE,14,0,56,1,1,,,,,,,
,,,,,,0,1.554090634,#f3af84,"[""0"",""-0.25""]",down_orange.png,down,,,,,,,,left,left_blue.png,down_orange.png,down,left,down,5e16c978783225c8108ef055,2021-09-11_14h42.45.782,arrow_simon_vert,2021.1.2,Win32,59.85156811,,,,,,,,,,,,,,,,,,,,,down,1,1.2931,58,FALSE,TRUE,14,1,57,2,1,,,,,,,
,,,,,,0,2.369138007,#a3d0fb,"[""-0.25"",""0""]",right_blue.png,right,,,,,,,,right,right_blue.png,up_orange.png,up,left,down,5e16c978783225c8108ef055,2021-09-11_14h42.45.782,arrow_simon_vert,2021.1.2,Win32,59.85156811,,,,,,,,,,,,,,,,,,,,,right,1,1.927,59,TRUE,FALSE,14,2,58,0,1,,,,,,,
,,,,,,0,2.163207031,#f3af84,"[""0"",""-0.25""]",up_orange.png,up,,,,,,,,right,right_blue.png,up_orange.png,up,left,down,5e16c978783225c8108ef055,2021-09-11_14h42.45.782,arrow_simon_vert,2021.1.2,Win32,59.85156811,,,,,,,,,,,,,,,,,,,,,up,1,1.6931,60,TRUE,FALSE,14,3,59,0,1,,,,,,,
,,,,,,,,,,,,,,,,,,,,,,,,,5e16c978783225c8108ef055,2021-09-11_14h42.45.782,arrow_simon_vert,2021.1.2,Win32,59.85156811,,,,,,,,,,,,,,,,,,,,,,,,,,,,,,,,space,12.6191,2,0,2,0,1
,,,,,,0,1.831387707,#a3d0fb,"[""-0.25"",""0""]",left_blue.png,left,,,,,,,,left,left_blue.png,down_orange.png,down,left,down,5e16c978783225c8108ef055,2021-09-11_14h42.45.782,arrow_simon_vert,2021.1.2,Win32,59.85156811,,,,,,,,,,,,,,,,,,,,,left,1,1.5265,1,FALSE,FALSE,0,0,0,2,1,,,,,,,
,,,,,,0,2.10203334,#f3af84,"[""0"",""-0.25""]",down_orange.png,down,,,,,,,,left,left_blue.png,down_orange.png,down,left,down,5e16c978783225c8108ef055,2021-09-11_14h42.45.782,arrow_simon_vert,2021.1.2,Win32,59.85156811,,,,,,,,,,,,,,,,,,,,,down,1,1.6269,2,TRUE,FALSE,0,1,1,2,1,,,,,,,
,,,,,,0,2.126763196,#a3d0fb,"[""0.25"",""0""]",left_blue.png,left,,,,,,,,left,left_blue.png,down_orange.png,down,right,up,5e16c978783225c8108ef055,2021-09-11_14h42.45.782,arrow_simon_vert,2021.1.2,Win32,59.85156811,,,,,,,,,,,,,,,,,,,,,left,1,1.6593,3,TRUE,FALSE,0,2,2,3,1,,,,,,,
,,,,,,0,1.653261329,#f3af84,"[""0"",""0.25""]",down_orange.png,down,,,,,,,,left,left_blue.png,down_orange.png,down,right,up,5e16c978783225c8108ef055,2021-09-11_14h42.45.782,arrow_simon_vert,2021.1.2,Win32,59.85156811,,,,,,,,,,,,,,,,,,,,,down,1,1.3774,4,FALSE,TRUE,0,3,3,3,1,,,,,,,
,,,,,,0,2.411212794,#a3d0fb,"[""0.25"",""0""]",left_blue.png,left,,,,,,,,left,left_blue.png,down_orange.png,down,right,up,5e16c978783225c8108ef055,2021-09-11_14h42.45.782,arrow_simon_vert,2021.1.2,Win32,59.85156811,,,,,,,,,,,,,,,,,,,,,left,1,1.8762,5,TRUE,FALSE,1,0,4,3,1,,,,,,,
,,,,,,0,1.770163202,#f3af84,"[""0"",""0.25""]",down_orange.png,down,,,,,,,,left,left_blue.png,down_orange.png,down,right,up,5e16c978783225c8108ef055,2021-09-11_14h42.45.782,arrow_simon_vert,2021.1.2,Win32,59.85156811,,,,,,,,,,,,,,,,,,,,,down,1,1.4758,6,FALSE,FALSE,1,1,5,3,1,,,,,,,
,,,,,,0,1.930069113,#a3d0fb,"[""0.25"",""0""]",left_blue.png,left,,,,,,,,left,left_blue.png,down_orange.png,down,right,up,5e16c978783225c8108ef055,2021-09-11_14h42.45.782,arrow_simon_vert,2021.1.2,Win32,59.85156811,,,,,,,,,,,,,,,,,,,,,left,1,1.5428,7,FALSE,FALSE,1,2,6,3,1,,,,,,,
,,,,,,0,2.092879402,#f3af84,"[""0"",""-0.25""]",down_orange.png,down,,,,,,,,left,left_blue.png,down_orange.png,down,left,down,5e16c978783225c8108ef055,2021-09-11_14h42.45.782,arrow_simon_vert,2021.1.2,Win32,59.85156811,,,,,,,,,,,,,,,,,,,,,down,1,1.7593,8,TRUE,FALSE,1,3,7,2,1,,,,,,,
,,,,,,0,2.382601952,#a3d0fb,"[""-0.25"",""0""]",right_blue.png,right,,,,,,,,right,right_blue.png,up_orange.png,up,left,down,5e16c978783225c8108ef055,2021-09-11_14h42.45.782,arrow_simon_vert,2021.1.2,Win32,59.85156811,,,,,,,,,,,,,,,,,,,,,right,1,1.8939,9,TRUE,FALSE,2,0,8,0,1,,,,,,,
,,,,,,0,1.956647807,#f3af84,"[""0"",""-0.25""]",down_orange.png,down,,,,,,,,left,left_blue.png,down_orange.png,down,left,down,5e16c978783225c8108ef055,2021-09-11_14h42.45.782,arrow_simon_vert,2021.1.2,Win32,59.85156811,,,,,,,,,,,,,,,,,,,,,down,1,1.8099,10,TRUE,FALSE,2,1,9,2,1,,,,,,,
,,,,,,0,2.126171602,#a3d0fb,"[""0.25"",""0""]",right_blue.png,right,,,,,,,,right,right_blue.png,up_orange.png,up,right,up,5e16c978783225c8108ef055,2021-09-11_14h42.45.782,arrow_simon_vert,2021.1.2,Win32,59.85156811,,,,,,,,,,,,,,,,,,,,,right,1,1.5931,11,FALSE,FALSE,2,2,10,1,1,,,,,,,
,,,,,,0,2.344696096,#f3af84,"[""0"",""0.25""]",down_orange.png,down,,,,,,,,left,left_blue.png,down_orange.png,down,right,up,5e16c978783225c8108ef055,2021-09-11_14h42.45.782,arrow_simon_vert,2021.1.2,Win32,59.85156811,,,,,,,,,,,,,,,,,,,,,down,1,1.9594,12,TRUE,FALSE,2,3,11,3,1,,,,,,,
,,,,,,0,1.986277443,#a3d0fb,"[""0.25"",""0""]",left_blue.png,left,,,,,,,,left,left_blue.png,down_orange.png,down,right,up,5e16c978783225c8108ef055,2021-09-11_14h42.45.782,arrow_simon_vert,2021.1.2,Win32,59.85156811,,,,,,,,,,,,,,,,,,,,,left,1,1.6098,13,TRUE,FALSE,3,0,12,3,1,,,,,,,
,,,,,,0,2.172995535,#f3af84,"[""0"",""0.25""]",down_orange.png,down,,,,,,,,left,left_blue.png,down_orange.png,down,right,up,5e16c978783225c8108ef055,2021-09-11_14h42.45.782,arrow_simon_vert,2021.1.2,Win32,59.85156811,,,,,,,,,,,,,,,,,,,,,down,1,1.6597,14,TRUE,FALSE,3,1,13,3,1,,,,,,,
,,,,,,0,2.483527353,#a3d0fb,"[""-0.25"",""0""]",left_blue.png,left,,,,,,,,left,left_blue.png,down_orange.png,down,left,down,5e16c978783225c8108ef055,2021-09-11_14h42.45.782,arrow_simon_vert,2021.1.2,Win32,59.85156811,,,,,,,,,,,,,,,,,,,,,left,1,2.0134,15,TRUE,FALSE,3,2,14,2,1,,,,,,,
