instruct_resp_simon.keys,instruct_resp_simon.corr,instruct_resp_simon.rt,trial_resp_simon.keys,trial_resp_simon.corr,trial_resp_simon.rt,kerr,target_onset,target_color,target_pos,target_file,target_resp,trials_train_simon.thisRepN,trials_train_simon.thisTrialN,trials_train_simon.thisN,trials_train_simon.thisIndex,trials_train_simon.ran,odd_target_pos,even_target_pos,odd_target_resp,odd_target_file,even_target_file,even_target_resp,odd_target_side,even_target_side,participant,date,expName,psychopyVersion,OS,frameRate,train_block_note_resp.keys,train_block_note_resp.rt,blocks_train.thisRepN,blocks_train.thisTrialN,blocks_train.thisN,blocks_train.thisIndex,blocks_train.ran,instruct_resp_timing.keys,instruct_resp_timing.corr,instruct_resp_timing.rt,trial_resp_timing.keys,trial_resp_timing.rt,trials_train_timing.thisRepN,trials_train_timing.thisTrialN,trials_train_timing.thisN,trials_train_timing.thisIndex,trials_train_timing.ran,instruct_resp.keys,instruct_resp.corr,instruct_resp.rt,trial_resp.keys,trial_resp.corr,trial_resp.rt,trial_num,too_slow,too_soon,trials.thisRepN,trials.thisTrialN,trials.thisN,trials.thisIndex,trials.ran,block_note_resp.keys,block_note_resp.rt,blocks.thisRepN,blocks.thisTrialN,blocks.thisN,blocks.thisIndex,blocks.ran
space,0,42.8243,right,1,1.2312,0,0.846506841,#a3d0fb,"[""0.25"",""0""]",right_blue.png,right,0,0,0,1,1,,,right,right_blue.png,up_orange.png,up,right,up,5eba75d1758c7a1cffb62685,2021-09-08_08h59.51.860,arrow_simon_vert,2021.1.2,Win32,95.73958832,,,,,,,,,,,,,,,,,,,,,,,,,,,,,,,,,,,,,,
,,,down,1,0.7855,0,0.356702254,#f3af84,"[""0"",""-0.25""]",down_orange.png,down,0,1,1,2,1,,,left,left_blue.png,down_orange.png,down,left,down,5eba75d1758c7a1cffb62685,2021-09-08_08h59.51.860,arrow_simon_vert,2021.1.2,Win32,95.73958832,,,,,,,,,,,,,,,,,,,,,,,,,,,,,,,,,,,,,,
,,,left,0,0.3882,1,0.057660604,#a3d0fb,"[""-0.25"",""0""]",right_blue.png,right,0,2,2,0,1,,,right,right_blue.png,up_orange.png,up,left,down,5eba75d1758c7a1cffb62685,2021-09-08_08h59.51.860,arrow_simon_vert,2021.1.2,Win32,95.73958832,,,,,,,,,,,,,,,,,,,,,,,,,,,,,,,,,,,,,,
,,,down,1,1.5877,0,0.67284938,#f3af84,"[""0"",""0.25""]",down_orange.png,down,0,3,3,3,1,,,left,left_blue.png,down_orange.png,down,right,up,5eba75d1758c7a1cffb62685,2021-09-08_08h59.51.860,arrow_simon_vert,2021.1.2,Win32,95.73958832,,,,,,,,,,,,,,,,,,,,,,,,,,,,,,,,,,,,,,
,,,left,1,0.5785,0,0.22790626,#a3d0fb,"[""-0.25"",""0""]",left_blue.png,left,1,0,4,2,1,,,left,left_blue.png,down_orange.png,down,left,down,5eba75d1758c7a1cffb62685,2021-09-08_08h59.51.860,arrow_simon_vert,2021.1.2,Win32,95.73958832,,,,,,,,,,,,,,,,,,,,,,,,,,,,,,,,,,,,,,
,,,up,1,0.7807,0,0.395805606,#f3af84,"[""0"",""0.25""]",up_orange.png,up,1,1,5,1,1,,,right,right_blue.png,up_orange.png,up,right,up,5eba75d1758c7a1cffb62685,2021-09-08_08h59.51.860,arrow_simon_vert,2021.1.2,Win32,95.73958832,,,,,,,,,,,,,,,,,,,,,,,,,,,,,,,,,,,,,,
,,,left,1,0.6794,0,0.345171309,#a3d0fb,"[""-0.25"",""0""]",left_blue.png,left,1,2,6,2,1,,,left,left_blue.png,down_orange.png,down,left,down,5eba75d1758c7a1cffb62685,2021-09-08_08h59.51.860,arrow_simon_vert,2021.1.2,Win32,95.73958832,,,,,,,,,,,,,,,,,,,,,,,,,,,,,,,,,,,,,,
,,,down,1,0.506,0,0.133348783,#f3af84,"[""0"",""-0.25""]",down_orange.png,down,1,3,7,2,1,,,left,left_blue.png,down_orange.png,down,left,down,5eba75d1758c7a1cffb62685,2021-09-08_08h59.51.860,arrow_simon_vert,2021.1.2,Win32,95.73958832,,,,,,,,,,,,,,,,,,,,,,,,,,,,,,,,,,,,,,
,,,right,1,0.6146,0,0.17199619,#a3d0fb,"[""0.25"",""0""]",right_blue.png,right,2,0,8,1,1,,,right,right_blue.png,up_orange.png,up,right,up,5eba75d1758c7a1cffb62685,2021-09-08_08h59.51.860,arrow_simon_vert,2021.1.2,Win32,95.73958832,,,,,,,,,,,,,,,,,,,,,,,,,,,,,,,,,,,,,,
,,,up,1,0.7602,0,0.428555708,#f3af84,"[""0"",""0.25""]",up_orange.png,up,2,1,9,1,1,,,right,right_blue.png,up_orange.png,up,right,up,5eba75d1758c7a1cffb62685,2021-09-08_08h59.51.860,arrow_simon_vert,2021.1.2,Win32,95.73958832,,,,,,,,,,,,,,,,,,,,,,,,,,,,,,,,,,,,,,
,,,right,1,0.9206,0,0.274098207,#a3d0fb,"[""-0.25"",""0""]",right_blue.png,right,2,2,10,0,1,,,right,right_blue.png,up_orange.png,up,left,down,5eba75d1758c7a1cffb62685,2021-09-08_08h59.51.860,arrow_simon_vert,2021.1.2,Win32,95.73958832,,,,,,,,,,,,,,,,,,,,,,,,,,,,,,,,,,,,,,
,,,up,1,0.9151,0,0.49975601,#f3af84,"[""0"",""-0.25""]",up_orange.png,up,2,3,11,0,1,,,right,right_blue.png,up_orange.png,up,left,down,5eba75d1758c7a1cffb62685,2021-09-08_08h59.51.860,arrow_simon_vert,2021.1.2,Win32,95.73958832,,,,,,,,,,,,,,,,,,,,,,,,,,,,,,,,,,,,,,
,,,right,1,0.7229,0,0.348405886,#a3d0fb,"[""-0.25"",""0""]",right_blue.png,right,3,0,12,0,1,,,right,right_blue.png,up_orange.png,up,left,down,5eba75d1758c7a1cffb62685,2021-09-08_08h59.51.860,arrow_simon_vert,2021.1.2,Win32,95.73958832,,,,,,,,,,,,,,,,,,,,,,,,,,,,,,,,,,,,,,
,,,down,1,0.8133,0,0.288383839,#f3af84,"[""0"",""0.25""]",down_orange.png,down,3,1,13,3,1,,,left,left_blue.png,down_orange.png,down,right,up,5eba75d1758c7a1cffb62685,2021-09-08_08h59.51.860,arrow_simon_vert,2021.1.2,Win32,95.73958832,,,,,,,,,,,,,,,,,,,,,,,,,,,,,,,,,,,,,,
,,,left,1,1.1347,0,0.774322841,#a3d0fb,"[""-0.25"",""0""]",left_blue.png,left,3,2,14,2,1,,,left,left_blue.png,down_orange.png,down,left,down,5eba75d1758c7a1cffb62685,2021-09-08_08h59.51.860,arrow_simon_vert,2021.1.2,Win32,95.73958832,,,,,,,,,,,,,,,,,,,,,,,,,,,,,,,,,,,,,,
,,,up,1,0.5231,0,0.113906746,#f3af84,"[""0"",""-0.25""]",up_orange.png,up,3,3,15,0,1,,,right,right_blue.png,up_orange.png,up,left,down,5eba75d1758c7a1cffb62685,2021-09-08_08h59.51.860,arrow_simon_vert,2021.1.2,Win32,95.73958832,,,,,,,,,,,,,,,,,,,,,,,,,,,,,,,,,,,,,,
,,,right,1,0.4373,0,0.084737071,#a3d0fb,"[""0.25"",""0""]",right_blue.png,right,4,0,16,1,1,,,right,right_blue.png,up_orange.png,up,right,up,5eba75d1758c7a1cffb62685,2021-09-08_08h59.51.860,arrow_simon_vert,2021.1.2,Win32,95.73958832,,,,,,,,,,,,,,,,,,,,,,,,,,,,,,,,,,,,,,
,,,up,1,0.4332,0,0.121029465,#f3af84,"[""0"",""0.25""]",up_orange.png,up,4,1,17,1,1,,,right,right_blue.png,up_orange.png,up,right,up,5eba75d1758c7a1cffb62685,2021-09-08_08h59.51.860,arrow_simon_vert,2021.1.2,Win32,95.73958832,,,,,,,,,,,,,,,,,,,,,,,,,,,,,,,,,,,,,,
,,,left,1,0.5757,0,0.24156533,#a3d0fb,"[""-0.25"",""0""]",left_blue.png,left,4,2,18,2,1,,,left,left_blue.png,down_orange.png,down,left,down,5eba75d1758c7a1cffb62685,2021-09-08_08h59.51.860,arrow_simon_vert,2021.1.2,Win32,95.73958832,,,,,,,,,,,,,,,,,,,,,,,,,,,,,,,,,,,,,,
,,,up,1,0.5074,0,0.056587541,#f3af84,"[""0"",""-0.25""]",up_orange.png,up,4,3,19,0,1,,,right,right_blue.png,up_orange.png,up,left,down,5eba75d1758c7a1cffb62685,2021-09-08_08h59.51.860,arrow_simon_vert,2021.1.2,Win32,95.73958832,,,,,,,,,,,,,,,,,,,,,,,,,,,,,,,,,,,,,,
,,,right,1,0.7515,0,0.382597478,#a3d0fb,"[""-0.25"",""0""]",right_blue.png,right,5,0,20,0,1,,,right,right_blue.png,up_orange.png,up,left,down,5eba75d1758c7a1cffb62685,2021-09-08_08h59.51.860,arrow_simon_vert,2021.1.2,Win32,95.73958832,,,,,,,,,,,,,,,,,,,,,,,,,,,,,,,,,,,,,,
,,,down,1,1.5294,0,0.914403162,#f3af84,"[""0"",""-0.25""]",down_orange.png,down,5,1,21,2,1,,,left,left_blue.png,down_orange.png,down,left,down,5eba75d1758c7a1cffb62685,2021-09-08_08h59.51.860,arrow_simon_vert,2021.1.2,Win32,95.73958832,,,,,,,,,,,,,,,,,,,,,,,,,,,,,,,,,,,,,,
,,,left,1,1.1926,0,0.818138504,#a3d0fb,"[""-0.25"",""0""]",left_blue.png,left,5,2,22,2,1,,,left,left_blue.png,down_orange.png,down,left,down,5eba75d1758c7a1cffb62685,2021-09-08_08h59.51.860,arrow_simon_vert,2021.1.2,Win32,95.73958832,,,,,,,,,,,,,,,,,,,,,,,,,,,,,,,,,,,,,,
,,,up,1,0.5048,0,0.093792119,#f3af84,"[""0"",""0.25""]",up_orange.png,up,5,3,23,1,1,,,right,right_blue.png,up_orange.png,up,right,up,5eba75d1758c7a1cffb62685,2021-09-08_08h59.51.860,arrow_simon_vert,2021.1.2,Win32,95.73958832,,,,,,,,,,,,,,,,,,,,,,,,,,,,,,,,,,,,,,
,,,right,1,0.5235,0,0.220937902,#a3d0fb,"[""0.25"",""0""]",right_blue.png,right,6,0,24,1,1,,,right,right_blue.png,up_orange.png,up,right,up,5eba75d1758c7a1cffb62685,2021-09-08_08h59.51.860,arrow_simon_vert,2021.1.2,Win32,95.73958832,,,,,,,,,,,,,,,,,,,,,,,,,,,,,,,,,,,,,,
,,,down,1,0.4589,0,0.030972223,#f3af84,"[""0"",""0.25""]",down_orange.png,down,6,1,25,3,1,,,left,left_blue.png,down_orange.png,down,right,up,5eba75d1758c7a1cffb62685,2021-09-08_08h59.51.860,arrow_simon_vert,2021.1.2,Win32,95.73958832,,,,,,,,,,,,,,,,,,,,,,,,,,,,,,,,,,,,,,
,,,left,1,1.3321,0,0.951654282,#a3d0fb,"[""0.25"",""0""]",left_blue.png,left,6,2,26,3,1,,,left,left_blue.png,down_orange.png,down,right,up,5eba75d1758c7a1cffb62685,2021-09-08_08h59.51.860,arrow_simon_vert,2021.1.2,Win32,95.73958832,,,,,,,,,,,,,,,,,,,,,,,,,,,,,,,,,,,,,,
,,,down,1,1.2177,0,0.70844343,#f3af84,"[""0"",""0.25""]",down_orange.png,down,6,3,27,3,1,,,left,left_blue.png,down_orange.png,down,right,up,5eba75d1758c7a1cffb62685,2021-09-08_08h59.51.860,arrow_simon_vert,2021.1.2,Win32,95.73958832,,,,,,,,,,,,,,,,,,,,,,,,,,,,,,,,,,,,,,
,,,right,1,0.5168,0,0.016654624,#a3d0fb,"[""-0.25"",""0""]",right_blue.png,right,7,0,28,0,1,,,right,right_blue.png,up_orange.png,up,left,down,5eba75d1758c7a1cffb62685,2021-09-08_08h59.51.860,arrow_simon_vert,2021.1.2,Win32,95.73958832,,,,,,,,,,,,,,,,,,,,,,,,,,,,,,,,,,,,,,
,,,up,1,1.1585,0,0.727456643,#f3af84,"[""0"",""0.25""]",up_orange.png,up,7,1,29,1,1,,,right,right_blue.png,up_orange.png,up,right,up,5eba75d1758c7a1cffb62685,2021-09-08_08h59.51.860,arrow_simon_vert,2021.1.2,Win32,95.73958832,,,,,,,,,,,,,,,,,,,,,,,,,,,,,,,,,,,,,,
,,,left,1,1.0838,0,0.72259265,#a3d0fb,"[""0.25"",""0""]",left_blue.png,left,7,2,30,3,1,,,left,left_blue.png,down_orange.png,down,right,up,5eba75d1758c7a1cffb62685,2021-09-08_08h59.51.860,arrow_simon_vert,2021.1.2,Win32,95.73958832,,,,,,,,,,,,,,,,,,,,,,,,,,,,,,,,,,,,,,
,,,down,1,0.6702,0,0.161545445,#f3af84,"[""0"",""-0.25""]",down_orange.png,down,7,3,31,2,1,,,left,left_blue.png,down_orange.png,down,left,down,5eba75d1758c7a1cffb62685,2021-09-08_08h59.51.860,arrow_simon_vert,2021.1.2,Win32,95.73958832,,,,,,,,,,,,,,,,,,,,,,,,,,,,,,,,,,,,,,
,,,left,1,1.1078,0,0.600306123,#a3d0fb,"[""0.25"",""0""]",left_blue.png,left,8,0,32,3,1,,,left,left_blue.png,down_orange.png,down,right,up,5eba75d1758c7a1cffb62685,2021-09-08_08h59.51.860,arrow_simon_vert,2021.1.2,Win32,95.73958832,,,,,,,,,,,,,,,,,,,,,,,,,,,,,,,,,,,,,,
,,,down,1,0.6718,0,0.224648348,#f3af84,"[""0"",""0.25""]",down_orange.png,down,8,1,33,3,1,,,left,left_blue.png,down_orange.png,down,right,up,5eba75d1758c7a1cffb62685,2021-09-08_08h59.51.860,arrow_simon_vert,2021.1.2,Win32,95.73958832,,,,,,,,,,,,,,,,,,,,,,,,,,,,,,,,,,,,,,
,,,right,1,0.7329,0,0.368263607,#a3d0fb,"[""-0.25"",""0""]",right_blue.png,right,8,2,34,0,1,,,right,right_blue.png,up_orange.png,up,left,down,5eba75d1758c7a1cffb62685,2021-09-08_08h59.51.860,arrow_simon_vert,2021.1.2,Win32,95.73958832,,,,,,,,,,,,,,,,,,,,,,,,,,,,,,,,,,,,,,
,,,down,1,1.3335,0,0.99203076,#f3af84,"[""0"",""0.25""]",down_orange.png,down,8,3,35,3,1,,,left,left_blue.png,down_orange.png,down,right,up,5eba75d1758c7a1cffb62685,2021-09-08_08h59.51.860,arrow_simon_vert,2021.1.2,Win32,95.73958832,,,,,,,,,,,,,,,,,,,,,,,,,,,,,,,,,,,,,,
,,,left,1,0.8524,0,0.348562376,#a3d0fb,"[""0.25"",""0""]",left_blue.png,left,9,0,36,3,1,,,left,left_blue.png,down_orange.png,down,right,up,5eba75d1758c7a1cffb62685,2021-09-08_08h59.51.860,arrow_simon_vert,2021.1.2,Win32,95.73958832,,,,,,,,,,,,,,,,,,,,,,,,,,,,,,,,,,,,,,
,,,up,1,1.1472,0,0.797243582,#f3af84,"[""0"",""0.25""]",up_orange.png,up,9,1,37,1,1,,,right,right_blue.png,up_orange.png,up,right,up,5eba75d1758c7a1cffb62685,2021-09-08_08h59.51.860,arrow_simon_vert,2021.1.2,Win32,95.73958832,,,,,,,,,,,,,,,,,,,,,,,,,,,,,,,,,,,,,,
,,,left,1,0.4613,0,0.142736285,#a3d0fb,"[""-0.25"",""0""]",left_blue.png,left,9,2,38,2,1,,,left,left_blue.png,down_orange.png,down,left,down,5eba75d1758c7a1cffb62685,2021-09-08_08h59.51.860,arrow_simon_vert,2021.1.2,Win32,95.73958832,,,,,,,,,,,,,,,,,,,,,,,,,,,,,,,,,,,,,,
,,,down,0,0.5251,1,0.191807022,#f3af84,"[""0"",""-0.25""]",up_orange.png,up,9,3,39,0,1,,,right,right_blue.png,up_orange.png,up,left,down,5eba75d1758c7a1cffb62685,2021-09-08_08h59.51.860,arrow_simon_vert,2021.1.2,Win32,95.73958832,,,,,,,,,,,,,,,,,,,,,,,,,,,,,,,,,,,,,,
,,,right,0,1.4847,1,0.809679682,#a3d0fb,"[""0.25"",""0""]",left_blue.png,left,10,0,40,3,1,,,left,left_blue.png,down_orange.png,down,right,up,5eba75d1758c7a1cffb62685,2021-09-08_08h59.51.860,arrow_simon_vert,2021.1.2,Win32,95.73958832,,,,,,,,,,,,,,,,,,,,,,,,,,,,,,,,,,,,,,
,,,down,1,1.4056,0,0.937900138,#f3af84,"[""0"",""0.25""]",down_orange.png,down,10,1,41,3,1,,,left,left_blue.png,down_orange.png,down,right,up,5eba75d1758c7a1cffb62685,2021-09-08_08h59.51.860,arrow_simon_vert,2021.1.2,Win32,95.73958832,,,,,,,,,,,,,,,,,,,,,,,,,,,,,,,,,,,,,,
,,,right,1,1.3223,0,0.974557241,#a3d0fb,"[""0.25"",""0""]",right_blue.png,right,10,2,42,1,1,,,right,right_blue.png,up_orange.png,up,right,up,5eba75d1758c7a1cffb62685,2021-09-08_08h59.51.860,arrow_simon_vert,2021.1.2,Win32,95.73958832,,,,,,,,,,,,,,,,,,,,,,,,,,,,,,,,,,,,,,
,,,down,1,0.944,0,0.497649584,#f3af84,"[""0"",""-0.25""]",down_orange.png,down,10,3,43,2,1,,,left,left_blue.png,down_orange.png,down,left,down,5eba75d1758c7a1cffb62685,2021-09-08_08h59.51.860,arrow_simon_vert,2021.1.2,Win32,95.73958832,,,,,,,,,,,,,,,,,,,,,,,,,,,,,,,,,,,,,,
,,,left,1,0.9576,0,0.604338312,#a3d0fb,"[""-0.25"",""0""]",left_blue.png,left,11,0,44,2,1,,,left,left_blue.png,down_orange.png,down,left,down,5eba75d1758c7a1cffb62685,2021-09-08_08h59.51.860,arrow_simon_vert,2021.1.2,Win32,95.73958832,,,,,,,,,,,,,,,,,,,,,,,,,,,,,,,,,,,,,,
,,,down,1,1.3161,0,0.899643173,#f3af84,"[""0"",""0.25""]",down_orange.png,down,11,1,45,3,1,,,left,left_blue.png,down_orange.png,down,right,up,5eba75d1758c7a1cffb62685,2021-09-08_08h59.51.860,arrow_simon_vert,2021.1.2,Win32,95.73958832,,,,,,,,,,,,,,,,,,,,,,,,,,,,,,,,,,,,,,
,,,left,1,1.4382,0,0.982965518,#a3d0fb,"[""0.25"",""0""]",left_blue.png,left,11,2,46,3,1,,,left,left_blue.png,down_orange.png,down,right,up,5eba75d1758c7a1cffb62685,2021-09-08_08h59.51.860,arrow_simon_vert,2021.1.2,Win32,95.73958832,,,,,,,,,,,,,,,,,,,,,,,,,,,,,,,,,,,,,,
,,,up,1,1.291,0,0.86959512,#f3af84,"[""0"",""-0.25""]",up_orange.png,up,11,3,47,0,1,,,right,right_blue.png,up_orange.png,up,left,down,5eba75d1758c7a1cffb62685,2021-09-08_08h59.51.860,arrow_simon_vert,2021.1.2,Win32,95.73958832,,,,,,,,,,,,,,,,,,,,,,,,,,,,,,,,,,,,,,
,,,right,1,1.1309,0,0.830880799,#a3d0fb,"[""0.25"",""0""]",right_blue.png,right,12,0,48,1,1,,,right,right_blue.png,up_orange.png,up,right,up,5eba75d1758c7a1cffb62685,2021-09-08_08h59.51.860,arrow_simon_vert,2021.1.2,Win32,95.73958832,,,,,,,,,,,,,,,,,,,,,,,,,,,,,,,,,,,,,,
,,,down,1,0.6098,0,0.213836688,#f3af84,"[""0"",""-0.25""]",down_orange.png,down,12,1,49,2,1,,,left,left_blue.png,down_orange.png,down,left,down,5eba75d1758c7a1cffb62685,2021-09-08_08h59.51.860,arrow_simon_vert,2021.1.2,Win32,95.73958832,,,,,,,,,,,,,,,,,,,,,,,,,,,,,,,,,,,,,,
,,,right,1,0.7967,0,0.484002255,#a3d0fb,"[""0.25"",""0""]",right_blue.png,right,12,2,50,1,1,,,right,right_blue.png,up_orange.png,up,right,up,5eba75d1758c7a1cffb62685,2021-09-08_08h59.51.860,arrow_simon_vert,2021.1.2,Win32,95.73958832,,,,,,,,,,,,,,,,,,,,,,,,,,,,,,,,,,,,,,
,,,up,1,0.8684,0,0.513042133,#f3af84,"[""0"",""-0.25""]",up_orange.png,up,12,3,51,0,1,,,right,right_blue.png,up_orange.png,up,left,down,5eba75d1758c7a1cffb62685,2021-09-08_08h59.51.860,arrow_simon_vert,2021.1.2,Win32,95.73958832,,,,,,,,,,,,,,,,,,,,,,,,,,,,,,,,,,,,,,
,,,left,1,0.7474,0,0.450080407,#a3d0fb,"[""-0.25"",""0""]",left_blue.png,left,13,0,52,2,1,,,left,left_blue.png,down_orange.png,down,left,down,5eba75d1758c7a1cffb62685,2021-09-08_08h59.51.860,arrow_simon_vert,2021.1.2,Win32,95.73958832,,,,,,,,,,,,,,,,,,,,,,,,,,,,,,,,,,,,,,
,,,up,1,1.0593,0,0.579210916,#f3af84,"[""0"",""-0.25""]",up_orange.png,up,13,1,53,0,1,,,right,right_blue.png,up_orange.png,up,left,down,5eba75d1758c7a1cffb62685,2021-09-08_08h59.51.860,arrow_simon_vert,2021.1.2,Win32,95.73958832,,,,,,,,,,,,,,,,,,,,,,,,,,,,,,,,,,,,,,
,,,right,1,0.8047,0,0.513302711,#a3d0fb,"[""0.25"",""0""]",right_blue.png,right,13,2,54,1,1,,,right,right_blue.png,up_orange.png,up,right,up,5eba75d1758c7a1cffb62685,2021-09-08_08h59.51.860,arrow_simon_vert,2021.1.2,Win32,95.73958832,,,,,,,,,,,,,,,,,,,,,,,,,,,,,,,,,,,,,,
,,,up,1,0.4426,0,0.001072096,#f3af84,"[""0"",""-0.25""]",up_orange.png,up,13,3,55,0,1,,,right,right_blue.png,up_orange.png,up,left,down,5eba75d1758c7a1cffb62685,2021-09-08_08h59.51.860,arrow_simon_vert,2021.1.2,Win32,95.73958832,,,,,,,,,,,,,,,,,,,,,,,,,,,,,,,,,,,,,,
,,,right,1,0.5565,0,0.184306808,#a3d0fb,"[""-0.25"",""0""]",right_blue.png,right,14,0,56,0,1,,,right,right_blue.png,up_orange.png,up,left,down,5eba75d1758c7a1cffb62685,2021-09-08_08h59.51.860,arrow_simon_vert,2021.1.2,Win32,95.73958832,,,,,,,,,,,,,,,,,,,,,,,,,,,,,,,,,,,,,,
,,,down,1,0.8515,0,0.374665835,#f3af84,"[""0"",""-0.25""]",down_orange.png,down,14,1,57,2,1,,,left,left_blue.png,down_orange.png,down,left,down,5eba75d1758c7a1cffb62685,2021-09-08_08h59.51.860,arrow_simon_vert,2021.1.2,Win32,95.73958832,,,,,,,,,,,,,,,,,,,,,,,,,,,,,,,,,,,,,,
,,,left,1,0.6689,0,0.320844441,#a3d0fb,"[""0.25"",""0""]",left_blue.png,left,14,2,58,3,1,,,left,left_blue.png,down_orange.png,down,right,up,5eba75d1758c7a1cffb62685,2021-09-08_08h59.51.860,arrow_simon_vert,2021.1.2,Win32,95.73958832,,,,,,,,,,,,,,,,,,,,,,,,,,,,,,,,,,,,,,
,,,up,1,0.7225,0,0.410511576,#f3af84,"[""0"",""0.25""]",up_orange.png,up,14,3,59,1,1,,,right,right_blue.png,up_orange.png,up,right,up,5eba75d1758c7a1cffb62685,2021-09-08_08h59.51.860,arrow_simon_vert,2021.1.2,Win32,95.73958832,,,,,,,,,,,,,,,,,,,,,,,,,,,,,,,,,,,,,,
,,,,,,,,,,,,,,,,,,,,,,,,,5eba75d1758c7a1cffb62685,2021-09-08_08h59.51.860,arrow_simon_vert,2021.1.2,Win32,95.73958832,space,5.6114,0,0,0,0,1,,,,,,,,,,,,,,,,,,,,,,,,,,,,,,,
,,,right,1,1.0001,0,0.634437194,#a3d0fb,"[""-0.25"",""0""]",right_blue.png,right,0,0,0,0,1,,,right,right_blue.png,up_orange.png,up,left,down,5eba75d1758c7a1cffb62685,2021-09-08_08h59.51.860,arrow_simon_vert,2021.1.2,Win32,95.73958832,,,,,,,,,,,,,,,,,,,,,,,,,,,,,,,,,,,,,,
,,,down,1,1.1313,0,0.725233011,#f3af84,"[""0"",""-0.25""]",down_orange.png,down,0,1,1,2,1,,,left,left_blue.png,down_orange.png,down,left,down,5eba75d1758c7a1cffb62685,2021-09-08_08h59.51.860,arrow_simon_vert,2021.1.2,Win32,95.73958832,,,,,,,,,,,,,,,,,,,,,,,,,,,,,,,,,,,,,,
,,,left,1,1.3213,0,0.869276677,#a3d0fb,"[""-0.25"",""0""]",left_blue.png,left,0,2,2,2,1,,,left,left_blue.png,down_orange.png,down,left,down,5eba75d1758c7a1cffb62685,2021-09-08_08h59.51.860,arrow_simon_vert,2021.1.2,Win32,95.73958832,,,,,,,,,,,,,,,,,,,,,,,,,,,,,,,,,,,,,,
,,,up,1,1.2582,0,0.928752297,#f3af84,"[""0"",""0.25""]",up_orange.png,up,0,3,3,1,1,,,right,right_blue.png,up_orange.png,up,right,up,5eba75d1758c7a1cffb62685,2021-09-08_08h59.51.860,arrow_simon_vert,2021.1.2,Win32,95.73958832,,,,,,,,,,,,,,,,,,,,,,,,,,,,,,,,,,,,,,
,,,right,1,1.1159,0,0.765471187,#a3d0fb,"[""0.25"",""0""]",right_blue.png,right,1,0,4,1,1,,,right,right_blue.png,up_orange.png,up,right,up,5eba75d1758c7a1cffb62685,2021-09-08_08h59.51.860,arrow_simon_vert,2021.1.2,Win32,95.73958832,,,,,,,,,,,,,,,,,,,,,,,,,,,,,,,,,,,,,,
,,,down,1,0.6282,0,0.192765443,#f3af84,"[""0"",""-0.25""]",down_orange.png,down,1,1,5,2,1,,,left,left_blue.png,down_orange.png,down,left,down,5eba75d1758c7a1cffb62685,2021-09-08_08h59.51.860,arrow_simon_vert,2021.1.2,Win32,95.73958832,,,,,,,,,,,,,,,,,,,,,,,,,,,,,,,,,,,,,,
,,,left,1,0.5641,0,0.215741474,#a3d0fb,"[""0.25"",""0""]",left_blue.png,left,1,2,6,3,1,,,left,left_blue.png,down_orange.png,down,right,up,5eba75d1758c7a1cffb62685,2021-09-08_08h59.51.860,arrow_simon_vert,2021.1.2,Win32,95.73958832,,,,,,,,,,,,,,,,,,,,,,,,,,,,,,,,,,,,,,
,,,up,1,1.3078,0,0.94238063,#f3af84,"[""0"",""-0.25""]",up_orange.png,up,1,3,7,0,1,,,right,right_blue.png,up_orange.png,up,left,down,5eba75d1758c7a1cffb62685,2021-09-08_08h59.51.860,arrow_simon_vert,2021.1.2,Win32,95.73958832,,,,,,,,,,,,,,,,,,,,,,,,,,,,,,,,,,,,,,
,,,left,1,0.7184,0,0.371145717,#a3d0fb,"[""0.25"",""0""]",left_blue.png,left,2,0,8,3,1,,,left,left_blue.png,down_orange.png,down,right,up,5eba75d1758c7a1cffb62685,2021-09-08_08h59.51.860,arrow_simon_vert,2021.1.2,Win32,95.73958832,,,,,,,,,,,,,,,,,,,,,,,,,,,,,,,,,,,,,,
,,,up,1,1.2881,0,0.984704091,#f3af84,"[""0"",""0.25""]",up_orange.png,up,2,1,9,1,1,,,right,right_blue.png,up_orange.png,up,right,up,5eba75d1758c7a1cffb62685,2021-09-08_08h59.51.860,arrow_simon_vert,2021.1.2,Win32,95.73958832,,,,,,,,,,,,,,,,,,,,,,,,,,,,,,,,,,,,,,
,,,right,1,0.6954,0,0.401349034,#a3d0fb,"[""0.25"",""0""]",right_blue.png,right,2,2,10,1,1,,,right,right_blue.png,up_orange.png,up,right,up,5eba75d1758c7a1cffb62685,2021-09-08_08h59.51.860,arrow_simon_vert,2021.1.2,Win32,95.73958832,,,,,,,,,,,,,,,,,,,,,,,,,,,,,,,,,,,,,,
,,,up,1,0.8071,0,0.517533544,#f3af84,"[""0"",""0.25""]",up_orange.png,up,2,3,11,1,1,,,right,right_blue.png,up_orange.png,up,right,up,5eba75d1758c7a1cffb62685,2021-09-08_08h59.51.860,arrow_simon_vert,2021.1.2,Win32,95.73958832,,,,,,,,,,,,,,,,,,,,,,,,,,,,,,,,,,,,,,
,,,right,1,0.8368,0,0.519365357,#a3d0fb,"[""-0.25"",""0""]",right_blue.png,right,3,0,12,0,1,,,right,right_blue.png,up_orange.png,up,left,down,5eba75d1758c7a1cffb62685,2021-09-08_08h59.51.860,arrow_simon_vert,2021.1.2,Win32,95.73958832,,,,,,,,,,,,,,,,,,,,,,,,,,,,,,,,,,,,,,
,,,down,1,0.4738,0,0.023148547,#f3af84,"[""0"",""0.25""]",down_orange.png,down,3,1,13,3,1,,,left,left_blue.png,down_orange.png,down,right,up,5eba75d1758c7a1cffb62685,2021-09-08_08h59.51.860,arrow_simon_vert,2021.1.2,Win32,95.73958832,,,,,,,,,,,,,,,,,,,,,,,,,,,,,,,,,,,,,,
,,,left,1,0.8773,0,0.557117986,#a3d0fb,"[""0.25"",""0""]",left_blue.png,left,3,2,14,3,1,,,left,left_blue.png,down_orange.png,down,right,up,5eba75d1758c7a1cffb62685,2021-09-08_08h59.51.860,arrow_simon_vert,2021.1.2,Win32,95.73958832,,,,,,,,,,,,,,,,,,,,,,,,,,,,,,,,,,,,,,
,,,down,1,1.0638,0,0.69098092,#f3af84,"[""0"",""0.25""]",down_orange.png,down,3,3,15,3,1,,,left,left_blue.png,down_orange.png,down,right,up,5eba75d1758c7a1cffb62685,2021-09-08_08h59.51.860,arrow_simon_vert,2021.1.2,Win32,95.73958832,,,,,,,,,,,,,,,,,,,,,,,,,,,,,,,,,,,,,,
,,,right,1,0.8309,0,0.47990147,#a3d0fb,"[""0.25"",""0""]",right_blue.png,right,4,0,16,1,1,,,right,right_blue.png,up_orange.png,up,right,up,5eba75d1758c7a1cffb62685,2021-09-08_08h59.51.860,arrow_simon_vert,2021.1.2,Win32,95.73958832,,,,,,,,,,,,,,,,,,,,,,,,,,,,,,,,,,,,,,
,,,up,1,0.78,0,0.458515421,#f3af84,"[""0"",""0.25""]",up_orange.png,up,4,1,17,1,1,,,right,right_blue.png,up_orange.png,up,right,up,5eba75d1758c7a1cffb62685,2021-09-08_08h59.51.860,arrow_simon_vert,2021.1.2,Win32,95.73958832,,,,,,,,,,,,,,,,,,,,,,,,,,,,,,,,,,,,,,
,,,right,1,0.6962,0,0.333479,#a3d0fb,"[""-0.25"",""0""]",right_blue.png,right,4,2,18,0,1,,,right,right_blue.png,up_orange.png,up,left,down,5eba75d1758c7a1cffb62685,2021-09-08_08h59.51.860,arrow_simon_vert,2021.1.2,Win32,95.73958832,,,,,,,,,,,,,,,,,,,,,,,,,,,,,,,,,,,,,,
,,,down,1,1.0605,0,0.576445825,#f3af84,"[""0"",""0.25""]",down_orange.png,down,4,3,19,3,1,,,left,left_blue.png,down_orange.png,down,right,up,5eba75d1758c7a1cffb62685,2021-09-08_08h59.51.860,arrow_simon_vert,2021.1.2,Win32,95.73958832,,,,,,,,,,,,,,,,,,,,,,,,,,,,,,,,,,,,,,
,,,right,1,0.8048,0,0.422857181,#a3d0fb,"[""-0.25"",""0""]",right_blue.png,right,5,0,20,0,1,,,right,right_blue.png,up_orange.png,up,left,down,5eba75d1758c7a1cffb62685,2021-09-08_08h59.51.860,arrow_simon_vert,2021.1.2,Win32,95.73958832,,,,,,,,,,,,,,,,,,,,,,,,,,,,,,,,,,,,,,
,,,down,1,0.658,0,0.188258187,#f3af84,"[""0"",""-0.25""]",down_orange.png,down,5,1,21,2,1,,,left,left_blue.png,down_orange.png,down,left,down,5eba75d1758c7a1cffb62685,2021-09-08_08h59.51.860,arrow_simon_vert,2021.1.2,Win32,95.73958832,,,,,,,,,,,,,,,,,,,,,,,,,,,,,,,,,,,,,,
,,,right,1,0.8667,0,0.47426718,#a3d0fb,"[""-0.25"",""0""]",right_blue.png,right,5,2,22,0,1,,,right,right_blue.png,up_orange.png,up,left,down,5eba75d1758c7a1cffb62685,2021-09-08_08h59.51.860,arrow_simon_vert,2021.1.2,Win32,95.73958832,,,,,,,,,,,,,,,,,,,,,,,,,,,,,,,,,,,,,,
,,,up,1,0.9371,0,0.529813259,#f3af84,"[""0"",""-0.25""]",up_orange.png,up,5,3,23,0,1,,,right,right_blue.png,up_orange.png,up,left,down,5eba75d1758c7a1cffb62685,2021-09-08_08h59.51.860,arrow_simon_vert,2021.1.2,Win32,95.73958832,,,,,,,,,,,,,,,,,,,,,,,,,,,,,,,,,,,,,,
,,,left,1,1.2857,0,0.876870603,#a3d0fb,"[""-0.25"",""0""]",left_blue.png,left,6,0,24,2,1,,,left,left_blue.png,down_orange.png,down,left,down,5eba75d1758c7a1cffb62685,2021-09-08_08h59.51.860,arrow_simon_vert,2021.1.2,Win32,95.73958832,,,,,,,,,,,,,,,,,,,,,,,,,,,,,,,,,,,,,,
,,,down,1,1.2463,0,0.872098895,#f3af84,"[""0"",""-0.25""]",down_orange.png,down,6,1,25,2,1,,,left,left_blue.png,down_orange.png,down,left,down,5eba75d1758c7a1cffb62685,2021-09-08_08h59.51.860,arrow_simon_vert,2021.1.2,Win32,95.73958832,,,,,,,,,,,,,,,,,,,,,,,,,,,,,,,,,,,,,,
,,,left,1,1.3354,0,0.943688432,#a3d0fb,"[""0.25"",""0""]",left_blue.png,left,6,2,26,3,1,,,left,left_blue.png,down_orange.png,down,right,up,5eba75d1758c7a1cffb62685,2021-09-08_08h59.51.860,arrow_simon_vert,2021.1.2,Win32,95.73958832,,,,,,,,,,,,,,,,,,,,,,,,,,,,,,,,,,,,,,
,,,up,1,0.8446,0,0.486355768,#f3af84,"[""0"",""0.25""]",up_orange.png,up,6,3,27,1,1,,,right,right_blue.png,up_orange.png,up,right,up,5eba75d1758c7a1cffb62685,2021-09-08_08h59.51.860,arrow_simon_vert,2021.1.2,Win32,95.73958832,,,,,,,,,,,,,,,,,,,,,,,,,,,,,,,,,,,,,,
,,,right,1,0.9427,0,0.503819685,#a3d0fb,"[""0.25"",""0""]",right_blue.png,right,7,0,28,1,1,,,right,right_blue.png,up_orange.png,up,right,up,5eba75d1758c7a1cffb62685,2021-09-08_08h59.51.860,arrow_simon_vert,2021.1.2,Win32,95.73958832,,,,,,,,,,,,,,,,,,,,,,,,,,,,,,,,,,,,,,
,,,up,1,0.9884,0,0.607359643,#f3af84,"[""0"",""0.25""]",up_orange.png,up,7,1,29,1,1,,,right,right_blue.png,up_orange.png,up,right,up,5eba75d1758c7a1cffb62685,2021-09-08_08h59.51.860,arrow_simon_vert,2021.1.2,Win32,95.73958832,,,,,,,,,,,,,,,,,,,,,,,,,,,,,,,,,,,,,,
,,,left,1,0.5795,0,0.209794538,#a3d0fb,"[""-0.25"",""0""]",left_blue.png,left,7,2,30,2,1,,,left,left_blue.png,down_orange.png,down,left,down,5eba75d1758c7a1cffb62685,2021-09-08_08h59.51.860,arrow_simon_vert,2021.1.2,Win32,95.73958832,,,,,,,,,,,,,,,,,,,,,,,,,,,,,,,,,,,,,,
,,,up,1,1.2854,0,0.893324671,#f3af84,"[""0"",""-0.25""]",up_orange.png,up,7,3,31,0,1,,,right,right_blue.png,up_orange.png,up,left,down,5eba75d1758c7a1cffb62685,2021-09-08_08h59.51.860,arrow_simon_vert,2021.1.2,Win32,95.73958832,,,,,,,,,,,,,,,,,,,,,,,,,,,,,,,,,,,,,,
,,,left,1,0.8311,0,0.464992883,#a3d0fb,"[""0.25"",""0""]",left_blue.png,left,8,0,32,3,1,,,left,left_blue.png,down_orange.png,down,right,up,5eba75d1758c7a1cffb62685,2021-09-08_08h59.51.860,arrow_simon_vert,2021.1.2,Win32,95.73958832,,,,,,,,,,,,,,,,,,,,,,,,,,,,,,,,,,,,,,
,,,up,1,0.6359,0,0.261615885,#f3af84,"[""0"",""-0.25""]",up_orange.png,up,8,1,33,0,1,,,right,right_blue.png,up_orange.png,up,left,down,5eba75d1758c7a1cffb62685,2021-09-08_08h59.51.860,arrow_simon_vert,2021.1.2,Win32,95.73958832,,,,,,,,,,,,,,,,,,,,,,,,,,,,,,,,,,,,,,
,,,right,1,1.2013,0,0.824400543,#a3d0fb,"[""-0.25"",""0""]",right_blue.png,right,8,2,34,0,1,,,right,right_blue.png,up_orange.png,up,left,down,5eba75d1758c7a1cffb62685,2021-09-08_08h59.51.860,arrow_simon_vert,2021.1.2,Win32,95.73958832,,,,,,,,,,,,,,,,,,,,,,,,,,,,,,,,,,,,,,
,,,down,1,1.2866,0,0.841825275,#f3af84,"[""0"",""0.25""]",down_orange.png,down,8,3,35,3,1,,,left,left_blue.png,down_orange.png,down,right,up,5eba75d1758c7a1cffb62685,2021-09-08_08h59.51.860,arrow_simon_vert,2021.1.2,Win32,95.73958832,,,,,,,,,,,,,,,,,,,,,,,,,,,,,,,,,,,,,,
,,,right,1,0.5502,0,0.219920236,#a3d0fb,"[""0.25"",""0""]",right_blue.png,right,9,0,36,1,1,,,right,right_blue.png,up_orange.png,up,right,up,5eba75d1758c7a1cffb62685,2021-09-08_08h59.51.860,arrow_simon_vert,2021.1.2,Win32,95.73958832,,,,,,,,,,,,,,,,,,,,,,,,,,,,,,,,,,,,,,
,,,down,1,1.3129,0,0.898322554,#f3af84,"[""0"",""0.25""]",down_orange.png,down,9,1,37,3,1,,,left,left_blue.png,down_orange.png,down,right,up,5eba75d1758c7a1cffb62685,2021-09-08_08h59.51.860,arrow_simon_vert,2021.1.2,Win32,95.73958832,,,,,,,,,,,,,,,,,,,,,,,,,,,,,,,,,,,,,,
,,,right,1,1.1406,0,0.783845247,#a3d0fb,"[""-0.25"",""0""]",right_blue.png,right,9,2,38,0,1,,,right,right_blue.png,up_orange.png,up,left,down,5eba75d1758c7a1cffb62685,2021-09-08_08h59.51.860,arrow_simon_vert,2021.1.2,Win32,95.73958832,,,,,,,,,,,,,,,,,,,,,,,,,,,,,,,,,,,,,,
,,,up,1,0.5849,0,0.271730316,#f3af84,"[""0"",""0.25""]",up_orange.png,up,9,3,39,1,1,,,right,right_blue.png,up_orange.png,up,right,up,5eba75d1758c7a1cffb62685,2021-09-08_08h59.51.860,arrow_simon_vert,2021.1.2,Win32,95.73958832,,,,,,,,,,,,,,,,,,,,,,,,,,,,,,,,,,,,,,
,,,left,1,0.7214,0,0.36956853,#a3d0fb,"[""0.25"",""0""]",left_blue.png,left,10,0,40,3,1,,,left,left_blue.png,down_orange.png,down,right,up,5eba75d1758c7a1cffb62685,2021-09-08_08h59.51.860,arrow_simon_vert,2021.1.2,Win32,95.73958832,,,,,,,,,,,,,,,,,,,,,,,,,,,,,,,,,,,,,,
,,,up,1,1.1802,0,0.855737545,#f3af84,"[""0"",""0.25""]",up_orange.png,up,10,1,41,1,1,,,right,right_blue.png,up_orange.png,up,right,up,5eba75d1758c7a1cffb62685,2021-09-08_08h59.51.860,arrow_simon_vert,2021.1.2,Win32,95.73958832,,,,,,,,,,,,,,,,,,,,,,,,,,,,,,,,,,,,,,
,,,left,1,0.7579,0,0.451302576,#a3d0fb,"[""-0.25"",""0""]",left_blue.png,left,10,2,42,2,1,,,left,left_blue.png,down_orange.png,down,left,down,5eba75d1758c7a1cffb62685,2021-09-08_08h59.51.860,arrow_simon_vert,2021.1.2,Win32,95.73958832,,,,,,,,,,,,,,,,,,,,,,,,,,,,,,,,,,,,,,
,,,down,1,1.0056,0,0.590678266,#f3af84,"[""0"",""-0.25""]",down_orange.png,down,10,3,43,2,1,,,left,left_blue.png,down_orange.png,down,left,down,5eba75d1758c7a1cffb62685,2021-09-08_08h59.51.860,arrow_simon_vert,2021.1.2,Win32,95.73958832,,,,,,,,,,,,,,,,,,,,,,,,,,,,,,,,,,,,,,
,,,left,1,0.8342,0,0.499587948,#a3d0fb,"[""-0.25"",""0""]",left_blue.png,left,11,0,44,2,1,,,left,left_blue.png,down_orange.png,down,left,down,5eba75d1758c7a1cffb62685,2021-09-08_08h59.51.860,arrow_simon_vert,2021.1.2,Win32,95.73958832,,,,,,,,,,,,,,,,,,,,,,,,,,,,,,,,,,,,,,
,,,down,1,0.8562,0,0.494656744,#f3af84,"[""0"",""-0.25""]",down_orange.png,down,11,1,45,2,1,,,left,left_blue.png,down_orange.png,down,left,down,5eba75d1758c7a1cffb62685,2021-09-08_08h59.51.860,arrow_simon_vert,2021.1.2,Win32,95.73958832,,,,,,,,,,,,,,,,,,,,,,,,,,,,,,,,,,,,,,
,,,left,1,0.5377,0,0.145067406,#a3d0fb,"[""-0.25"",""0""]",left_blue.png,left,11,2,46,2,1,,,left,left_blue.png,down_orange.png,down,left,down,5eba75d1758c7a1cffb62685,2021-09-08_08h59.51.860,arrow_simon_vert,2021.1.2,Win32,95.73958832,,,,,,,,,,,,,,,,,,,,,,,,,,,,,,,,,,,,,,
,,,down,1,1.2313,0,0.782247818,#f3af84,"[""0"",""0.25""]",down_orange.png,down,11,3,47,3,1,,,left,left_blue.png,down_orange.png,down,right,up,5eba75d1758c7a1cffb62685,2021-09-08_08h59.51.860,arrow_simon_vert,2021.1.2,Win32,95.73958832,,,,,,,,,,,,,,,,,,,,,,,,,,,,,,,,,,,,,,
,,,right,1,0.8048,0,0.462673181,#a3d0fb,"[""-0.25"",""0""]",right_blue.png,right,12,0,48,0,1,,,right,right_blue.png,up_orange.png,up,left,down,5eba75d1758c7a1cffb62685,2021-09-08_08h59.51.860,arrow_simon_vert,2021.1.2,Win32,95.73958832,,,,,,,,,,,,,,,,,,,,,,,,,,,,,,,,,,,,,,
,,,up,1,0.7503,0,0.401011953,#f3af84,"[""0"",""0.25""]",up_orange.png,up,12,1,49,1,1,,,right,right_blue.png,up_orange.png,up,right,up,5eba75d1758c7a1cffb62685,2021-09-08_08h59.51.860,arrow_simon_vert,2021.1.2,Win32,95.73958832,,,,,,,,,,,,,,,,,,,,,,,,,,,,,,,,,,,,,,
,,,right,1,0.9234,0,0.591213401,#a3d0fb,"[""0.25"",""0""]",right_blue.png,right,12,2,50,1,1,,,right,right_blue.png,up_orange.png,up,right,up,5eba75d1758c7a1cffb62685,2021-09-08_08h59.51.860,arrow_simon_vert,2021.1.2,Win32,95.73958832,,,,,,,,,,,,,,,,,,,,,,,,,,,,,,,,,,,,,,
,,,down,1,1.1878,0,0.776029239,#f3af84,"[""0"",""0.25""]",down_orange.png,down,12,3,51,3,1,,,left,left_blue.png,down_orange.png,down,right,up,5eba75d1758c7a1cffb62685,2021-09-08_08h59.51.860,arrow_simon_vert,2021.1.2,Win32,95.73958832,,,,,,,,,,,,,,,,,,,,,,,,,,,,,,,,,,,,,,
,,,left,1,1.0518,0,0.700633885,#a3d0fb,"[""0.25"",""0""]",left_blue.png,left,13,0,52,3,1,,,left,left_blue.png,down_orange.png,down,right,up,5eba75d1758c7a1cffb62685,2021-09-08_08h59.51.860,arrow_simon_vert,2021.1.2,Win32,95.73958832,,,,,,,,,,,,,,,,,,,,,,,,,,,,,,,,,,,,,,
,,,up,1,1.1641,0,0.727934544,#f3af84,"[""0"",""-0.25""]",up_orange.png,up,13,1,53,0,1,,,right,right_blue.png,up_orange.png,up,left,down,5eba75d1758c7a1cffb62685,2021-09-08_08h59.51.860,arrow_simon_vert,2021.1.2,Win32,95.73958832,,,,,,,,,,,,,,,,,,,,,,,,,,,,,,,,,,,,,,
,,,right,1,0.5551,0,0.004993524,#a3d0fb,"[""-0.25"",""0""]",right_blue.png,right,13,2,54,0,1,,,right,right_blue.png,up_orange.png,up,left,down,5eba75d1758c7a1cffb62685,2021-09-08_08h59.51.860,arrow_simon_vert,2021.1.2,Win32,95.73958832,,,,,,,,,,,,,,,,,,,,,,,,,,,,,,,,,,,,,,
,,,up,1,0.789,0,0.218307094,#f3af84,"[""0"",""-0.25""]",up_orange.png,up,13,3,55,0,1,,,right,right_blue.png,up_orange.png,up,left,down,5eba75d1758c7a1cffb62685,2021-09-08_08h59.51.860,arrow_simon_vert,2021.1.2,Win32,95.73958832,,,,,,,,,,,,,,,,,,,,,,,,,,,,,,,,,,,,,,
,,,left,1,1.0286,0,0.665702225,#a3d0fb,"[""-0.25"",""0""]",left_blue.png,left,14,0,56,2,1,,,left,left_blue.png,down_orange.png,down,left,down,5eba75d1758c7a1cffb62685,2021-09-08_08h59.51.860,arrow_simon_vert,2021.1.2,Win32,95.73958832,,,,,,,,,,,,,,,,,,,,,,,,,,,,,,,,,,,,,,
,,,down,1,1.1817,0,0.52099646,#f3af84,"[""0"",""0.25""]",down_orange.png,down,14,1,57,3,1,,,left,left_blue.png,down_orange.png,down,right,up,5eba75d1758c7a1cffb62685,2021-09-08_08h59.51.860,arrow_simon_vert,2021.1.2,Win32,95.73958832,,,,,,,,,,,,,,,,,,,,,,,,,,,,,,,,,,,,,,
,,,left,1,1.0153,0,0.413285671,#a3d0fb,"[""-0.25"",""0""]",left_blue.png,left,14,2,58,2,1,,,left,left_blue.png,down_orange.png,down,left,down,5eba75d1758c7a1cffb62685,2021-09-08_08h59.51.860,arrow_simon_vert,2021.1.2,Win32,95.73958832,,,,,,,,,,,,,,,,,,,,,,,,,,,,,,,,,,,,,,
,,,down,1,0.6568,0,0.216421186,#f3af84,"[""0"",""-0.25""]",down_orange.png,down,14,3,59,2,1,,,left,left_blue.png,down_orange.png,down,left,down,5eba75d1758c7a1cffb62685,2021-09-08_08h59.51.860,arrow_simon_vert,2021.1.2,Win32,95.73958832,,,,,,,,,,,,,,,,,,,,,,,,,,,,,,,,,,,,,,
,,,,,,,,,,,,,,,,,,,,,,,,,5eba75d1758c7a1cffb62685,2021-09-08_08h59.51.860,arrow_simon_vert,2021.1.2,Win32,95.73958832,space,7.8232,1,0,1,0,1,,,,,,,,,,,,,,,,,,,,,,,,,,,,,,,
,,,,,,,,,,,,,,,,,,,,,,,,,5eba75d1758c7a1cffb62685,2021-09-08_08h59.51.860,arrow_simon_vert,2021.1.2,Win32,95.73958832,,,,,,,,space,0,33.2413,right,2.7144,0,0,0,0,1,,,,,,,,,,,,,,,,,,,,,
,,,,,,,,,,,,,,,,,,,,,,,,,5eba75d1758c7a1cffb62685,2021-09-08_08h59.51.860,arrow_simon_vert,2021.1.2,Win32,95.73958832,,,,,,,,,,,right,2.4138,1,0,1,0,1,,,,,,,,,,,,,,,,,,,,,
,,,,,,,,,,,,,,,,,,,,,,,,,5eba75d1758c7a1cffb62685,2021-09-08_08h59.51.860,arrow_simon_vert,2021.1.2,Win32,95.73958832,,,,,,,,,,,right,2.488,2,0,2,0,1,,,,,,,,,,,,,,,,,,,,,
,,,,,,,,,,,,,,,,,,,,,,,,,5eba75d1758c7a1cffb62685,2021-09-08_08h59.51.860,arrow_simon_vert,2021.1.2,Win32,95.73958832,,,,,,,,,,,up,2.4884,3,0,3,0,1,,,,,,,,,,,,,,,,,,,,,
,,,,,,,,,,,,,,,,,,,,,,,,,5eba75d1758c7a1cffb62685,2021-09-08_08h59.51.860,arrow_simon_vert,2021.1.2,Win32,95.73958832,,,,,,,,,,,right,2.489,4,0,4,0,1,,,,,,,,,,,,,,,,,,,,,
,,,,,,,,,,,,,,,,,,,,,,,,,5eba75d1758c7a1cffb62685,2021-09-08_08h59.51.860,arrow_simon_vert,2021.1.2,Win32,95.73958832,,,,,,,,,,,up,2.5446,5,0,5,0,1,,,,,,,,,,,,,,,,,,,,,
,,,,,,,,,,,,,,,,,,,,,,,,,5eba75d1758c7a1cffb62685,2021-09-08_08h59.51.860,arrow_simon_vert,2021.1.2,Win32,95.73958832,,,,,,,,,,,right,2.496,6,0,6,0,1,,,,,,,,,,,,,,,,,,,,,
,,,,,,,,,,,,,,,,,,,,,,,,,5eba75d1758c7a1cffb62685,2021-09-08_08h59.51.860,arrow_simon_vert,2021.1.2,Win32,95.73958832,,,,,,,,,,,up,2.3624,7,0,7,0,1,,,,,,,,,,,,,,,,,,,,,
,,,,,,,,,,,,,,,,,,,,,,,,,5eba75d1758c7a1cffb62685,2021-09-08_08h59.51.860,arrow_simon_vert,2021.1.2,Win32,95.73958832,,,,,,,,,,,right,2.4741,8,0,8,0,1,,,,,,,,,,,,,,,,,,,,,
,,,,,,,,,,,,,,,,,,,,,,,,,5eba75d1758c7a1cffb62685,2021-09-08_08h59.51.860,arrow_simon_vert,2021.1.2,Win32,95.73958832,,,,,,,,,,,up,2.463,9,0,9,0,1,,,,,,,,,,,,,,,,,,,,,
,,,,,,,,,,,,,,,,,,,,,,,,,5eba75d1758c7a1cffb62685,2021-09-08_08h59.51.860,arrow_simon_vert,2021.1.2,Win32,95.73958832,,,,,,,,,,,right,2.5312,10,0,10,0,1,,,,,,,,,,,,,,,,,,,,,
,,,,,,,,,,,,,,,,,,,,,,,,,5eba75d1758c7a1cffb62685,2021-09-08_08h59.51.860,arrow_simon_vert,2021.1.2,Win32,95.73958832,,,,,,,,,,,up,2.5292,11,0,11,0,1,,,,,,,,,,,,,,,,,,,,,
,,,,,,,,,,,,,,,,,,,,,,,,,5eba75d1758c7a1cffb62685,2021-09-08_08h59.51.860,arrow_simon_vert,2021.1.2,Win32,95.73958832,,,,,,,,,,,right,2.6081,12,0,12,0,1,,,,,,,,,,,,,,,,,,,,,
,,,,,,,,,,,,,,,,,,,,,,,,,5eba75d1758c7a1cffb62685,2021-09-08_08h59.51.860,arrow_simon_vert,2021.1.2,Win32,95.73958832,,,,,,,,,,,up,2.4874,13,0,13,0,1,,,,,,,,,,,,,,,,,,,,,
,,,,,,,,,,,,,,,,,,,,,,,,,5eba75d1758c7a1cffb62685,2021-09-08_08h59.51.860,arrow_simon_vert,2021.1.2,Win32,95.73958832,,,,,,,,,,,right,2.5074,14,0,14,0,1,,,,,,,,,,,,,,,,,,,,,
,,,,,,,,,,,,,,,,,,,,,,,,,5eba75d1758c7a1cffb62685,2021-09-08_08h59.51.860,arrow_simon_vert,2021.1.2,Win32,95.73958832,,,,,,,,,,,up,2.4414,15,0,15,0,1,,,,,,,,,,,,,,,,,,,,,
,,,,,,,,,,,,,,,,,,,,,,,,,5eba75d1758c7a1cffb62685,2021-09-08_08h59.51.860,arrow_simon_vert,2021.1.2,Win32,95.73958832,,,,,,,,,,,right,2.4349,16,0,16,0,1,,,,,,,,,,,,,,,,,,,,,
,,,,,,,,,,,,,,,,,,,,,,,,,5eba75d1758c7a1cffb62685,2021-09-08_08h59.51.860,arrow_simon_vert,2021.1.2,Win32,95.73958832,,,,,,,,,,,up,2.5366,17,0,17,0,1,,,,,,,,,,,,,,,,,,,,,
,,,,,,,,,,,,,,,,,,,,,,,,,5eba75d1758c7a1cffb62685,2021-09-08_08h59.51.860,arrow_simon_vert,2021.1.2,Win32,95.73958832,,,,,,,,,,,right,2.5003,18,0,18,0,1,,,,,,,,,,,,,,,,,,,,,
,,,,,,,,,,,,,,,,,,,,,,,,,5eba75d1758c7a1cffb62685,2021-09-08_08h59.51.860,arrow_simon_vert,2021.1.2,Win32,95.73958832,,,,,,,,,,,up,2.4815,19,0,19,0,1,,,,,,,,,,,,,,,,,,,,,
,,,,,,,,,,,,,,,,,,,,,,,,,5eba75d1758c7a1cffb62685,2021-09-08_08h59.51.860,arrow_simon_vert,2021.1.2,Win32,95.73958832,,,,,,,,,,,right,2.4934,20,0,20,0,1,,,,,,,,,,,,,,,,,,,,,
,,,,,,,,,,,,,,,,,,,,,,,,,5eba75d1758c7a1cffb62685,2021-09-08_08h59.51.860,arrow_simon_vert,2021.1.2,Win32,95.73958832,,,,,,,,,,,up,2.4519,21,0,21,0,1,,,,,,,,,,,,,,,,,,,,,
,,,,,,,,,,,,,,,,,,,,,,,,,5eba75d1758c7a1cffb62685,2021-09-08_08h59.51.860,arrow_simon_vert,2021.1.2,Win32,95.73958832,,,,,,,,,,,right,2.4668,22,0,22,0,1,,,,,,,,,,,,,,,,,,,,,
,,,,,,,,,,,,,,,,,,,,,,,,,5eba75d1758c7a1cffb62685,2021-09-08_08h59.51.860,arrow_simon_vert,2021.1.2,Win32,95.73958832,,,,,,,,,,,up,2.5361,23,0,23,0,1,,,,,,,,,,,,,,,,,,,,,
,,,,,,,,,,,,,,,,,,,,,,,,,5eba75d1758c7a1cffb62685,2021-09-08_08h59.51.860,arrow_simon_vert,2021.1.2,Win32,95.73958832,,,,,,,,,,,right,2.5574,24,0,24,0,1,,,,,,,,,,,,,,,,,,,,,
,,,,,,,,,,,,,,,,,,,,,,,,,5eba75d1758c7a1cffb62685,2021-09-08_08h59.51.860,arrow_simon_vert,2021.1.2,Win32,95.73958832,,,,,,,,,,,up,2.5715,25,0,25,0,1,,,,,,,,,,,,,,,,,,,,,
,,,,,,,,,,,,,,,,,,,,,,,,,5eba75d1758c7a1cffb62685,2021-09-08_08h59.51.860,arrow_simon_vert,2021.1.2,Win32,95.73958832,,,,,,,,,,,right,2.5278,26,0,26,0,1,,,,,,,,,,,,,,,,,,,,,
,,,,,,,,,,,,,,,,,,,,,,,,,5eba75d1758c7a1cffb62685,2021-09-08_08h59.51.860,arrow_simon_vert,2021.1.2,Win32,95.73958832,,,,,,,,,,,up,2.519,27,0,27,0,1,,,,,,,,,,,,,,,,,,,,,
,,,,,,,,,,,,,,,,,,,,,,,,,5eba75d1758c7a1cffb62685,2021-09-08_08h59.51.860,arrow_simon_vert,2021.1.2,Win32,95.73958832,,,,,,,,,,,right,2.5349,28,0,28,0,1,,,,,,,,,,,,,,,,,,,,,
,,,,,,,,,,,,,,,,,,,,,,,,,5eba75d1758c7a1cffb62685,2021-09-08_08h59.51.860,arrow_simon_vert,2021.1.2,Win32,95.73958832,,,,,,,,,,,up,2.4218,29,0,29,0,1,,,,,,,,,,,,,,,,,,,,,
,,,,,,,,,,,,,,,,,,,,,,,,,5eba75d1758c7a1cffb62685,2021-09-08_08h59.51.860,arrow_simon_vert,2021.1.2,Win32,95.73958832,,,,,,,,,,,right,2.5013,30,0,30,0,1,,,,,,,,,,,,,,,,,,,,,
,,,,,,,,,,,,,,,,,,,,,,,,,5eba75d1758c7a1cffb62685,2021-09-08_08h59.51.860,arrow_simon_vert,2021.1.2,Win32,95.73958832,,,,,,,,,,,up,2.484,31,0,31,0,1,,,,,,,,,,,,,,,,,,,,,
,,,,,,,,,,,,,,,,,,,,,,,,,5eba75d1758c7a1cffb62685,2021-09-08_08h59.51.860,arrow_simon_vert,2021.1.2,Win32,95.73958832,,,,,,,,,,,right,2.4995,32,0,32,0,1,,,,,,,,,,,,,,,,,,,,,
,,,,,,,,,,,,,,,,,,,,,,,,,5eba75d1758c7a1cffb62685,2021-09-08_08h59.51.860,arrow_simon_vert,2021.1.2,Win32,95.73958832,,,,,,,,,,,up,2.5136,33,0,33,0,1,,,,,,,,,,,,,,,,,,,,,
,,,,,,,,,,,,,,,,,,,,,,,,,5eba75d1758c7a1cffb62685,2021-09-08_08h59.51.860,arrow_simon_vert,2021.1.2,Win32,95.73958832,,,,,,,,,,,right,2.5092,34,0,34,0,1,,,,,,,,,,,,,,,,,,,,,
,,,,,,,,,,,,,,,,,,,,,,,,,5eba75d1758c7a1cffb62685,2021-09-08_08h59.51.860,arrow_simon_vert,2021.1.2,Win32,95.73958832,,,,,,,,,,,up,2.4892,35,0,35,0,1,,,,,,,,,,,,,,,,,,,,,
,,,,,,,,,,,,,,,,,,,,,,,,,5eba75d1758c7a1cffb62685,2021-09-08_08h59.51.860,arrow_simon_vert,2021.1.2,Win32,95.73958832,,,,,,,,,,,right,2.5293,36,0,36,0,1,,,,,,,,,,,,,,,,,,,,,
,,,,,,,,,,,,,,,,,,,,,,,,,5eba75d1758c7a1cffb62685,2021-09-08_08h59.51.860,arrow_simon_vert,2021.1.2,Win32,95.73958832,,,,,,,,,,,up,2.5446,37,0,37,0,1,,,,,,,,,,,,,,,,,,,,,
,,,,,,,,,,,,,,,,,,,,,,,,,5eba75d1758c7a1cffb62685,2021-09-08_08h59.51.860,arrow_simon_vert,2021.1.2,Win32,95.73958832,,,,,,,,,,,right,2.4594,38,0,38,0,1,,,,,,,,,,,,,,,,,,,,,
,,,,,,,,,,,,,,,,,,,,,,,,,5eba75d1758c7a1cffb62685,2021-09-08_08h59.51.860,arrow_simon_vert,2021.1.2,Win32,95.73958832,,,,,,,,,,,up,2.4366,39,0,39,0,1,,,,,,,,,,,,,,,,,,,,,
,,,,,,,,,,,,,,,,,,,,,,,,,5eba75d1758c7a1cffb62685,2021-09-08_08h59.51.860,arrow_simon_vert,2021.1.2,Win32,95.73958832,,,,,,,,,,,right,2.4723,40,0,40,0,1,,,,,,,,,,,,,,,,,,,,,
,,,,,,,,,,,,,,,,,,,,,,,,,5eba75d1758c7a1cffb62685,2021-09-08_08h59.51.860,arrow_simon_vert,2021.1.2,Win32,95.73958832,,,,,,,,,,,up,2.5165,41,0,41,0,1,,,,,,,,,,,,,,,,,,,,,
,,,,,,,,,,,,,,,,,,,,,,,,,5eba75d1758c7a1cffb62685,2021-09-08_08h59.51.860,arrow_simon_vert,2021.1.2,Win32,95.73958832,,,,,,,,,,,right,2.5158,42,0,42,0,1,,,,,,,,,,,,,,,,,,,,,
,,,,,,,,,,,,,,,,,,,,,,,,,5eba75d1758c7a1cffb62685,2021-09-08_08h59.51.860,arrow_simon_vert,2021.1.2,Win32,95.73958832,,,,,,,,,,,up,2.5082,43,0,43,0,1,,,,,,,,,,,,,,,,,,,,,
,,,,,,,,,,,,,,,,,,,,,,,,,5eba75d1758c7a1cffb62685,2021-09-08_08h59.51.860,arrow_simon_vert,2021.1.2,Win32,95.73958832,,,,,,,,,,,right,2.5297,44,0,44,0,1,,,,,,,,,,,,,,,,,,,,,
,,,,,,,,,,,,,,,,,,,,,,,,,5eba75d1758c7a1cffb62685,2021-09-08_08h59.51.860,arrow_simon_vert,2021.1.2,Win32,95.73958832,,,,,,,,,,,up,2.4871,45,0,45,0,1,,,,,,,,,,,,,,,,,,,,,
,,,,,,,,,,,,,,,,,,,,,,,,,5eba75d1758c7a1cffb62685,2021-09-08_08h59.51.860,arrow_simon_vert,2021.1.2,Win32,95.73958832,,,,,,,,,,,right,2.4725,46,0,46,0,1,,,,,,,,,,,,,,,,,,,,,
,,,,,,,,,,,,,,,,,,,,,,,,,5eba75d1758c7a1cffb62685,2021-09-08_08h59.51.860,arrow_simon_vert,2021.1.2,Win32,95.73958832,,,,,,,,,,,up,2.5516,47,0,47,0,1,,,,,,,,,,,,,,,,,,,,,
,,,,,,,,,,,,,,,,,,,,,,,,,5eba75d1758c7a1cffb62685,2021-09-08_08h59.51.860,arrow_simon_vert,2021.1.2,Win32,95.73958832,,,,,,,,,,,right,2.5061,48,0,48,0,1,,,,,,,,,,,,,,,,,,,,,
,,,,,,,,,,,,,,,,,,,,,,,,,5eba75d1758c7a1cffb62685,2021-09-08_08h59.51.860,arrow_simon_vert,2021.1.2,Win32,95.73958832,,,,,,,,,,,up,2.4158,49,0,49,0,1,,,,,,,,,,,,,,,,,,,,,
,,,,,,,,,,,,,,,,,,,,,,,,,5eba75d1758c7a1cffb62685,2021-09-08_08h59.51.860,arrow_simon_vert,2021.1.2,Win32,95.73958832,,,,,,,,,,,right,2.4969,50,0,50,0,1,,,,,,,,,,,,,,,,,,,,,
,,,,,,,,,,,,,,,,,,,,,,,,,5eba75d1758c7a1cffb62685,2021-09-08_08h59.51.860,arrow_simon_vert,2021.1.2,Win32,95.73958832,,,,,,,,,,,up,2.5048,51,0,51,0,1,,,,,,,,,,,,,,,,,,,,,
,,,,,,,,,,,,,,,,,,,,,,,,,5eba75d1758c7a1cffb62685,2021-09-08_08h59.51.860,arrow_simon_vert,2021.1.2,Win32,95.73958832,,,,,,,,,,,right,2.5152,52,0,52,0,1,,,,,,,,,,,,,,,,,,,,,
,,,,,,,,,,,,,,,,,,,,,,,,,5eba75d1758c7a1cffb62685,2021-09-08_08h59.51.860,arrow_simon_vert,2021.1.2,Win32,95.73958832,,,,,,,,,,,up,2.4681,53,0,53,0,1,,,,,,,,,,,,,,,,,,,,,
,,,,,,,,,,,,,,,,,,,,,,,,,5eba75d1758c7a1cffb62685,2021-09-08_08h59.51.860,arrow_simon_vert,2021.1.2,Win32,95.73958832,,,,,,,,,,,right,2.5599,54,0,54,0,1,,,,,,,,,,,,,,,,,,,,,
,,,,,,,,,,,,,,,,,,,,,,,,,5eba75d1758c7a1cffb62685,2021-09-08_08h59.51.860,arrow_simon_vert,2021.1.2,Win32,95.73958832,,,,,,,,,,,up,2.5449,55,0,55,0,1,,,,,,,,,,,,,,,,,,,,,
,,,,,,,,,,,,,,,,,,,,,,,,,5eba75d1758c7a1cffb62685,2021-09-08_08h59.51.860,arrow_simon_vert,2021.1.2,Win32,95.73958832,,,,,,,,,,,right,2.4654,56,0,56,0,1,,,,,,,,,,,,,,,,,,,,,
,,,,,,,,,,,,,,,,,,,,,,,,,5eba75d1758c7a1cffb62685,2021-09-08_08h59.51.860,arrow_simon_vert,2021.1.2,Win32,95.73958832,,,,,,,,,,,up,2.4645,57,0,57,0,1,,,,,,,,,,,,,,,,,,,,,
,,,,,,,,,,,,,,,,,,,,,,,,,5eba75d1758c7a1cffb62685,2021-09-08_08h59.51.860,arrow_simon_vert,2021.1.2,Win32,95.73958832,,,,,,,,,,,right,2.4893,58,0,58,0,1,,,,,,,,,,,,,,,,,,,,,
,,,,,,,,,,,,,,,,,,,,,,,,,5eba75d1758c7a1cffb62685,2021-09-08_08h59.51.860,arrow_simon_vert,2021.1.2,Win32,95.73958832,,,,,,,,,,,up,2.5333,59,0,59,0,1,,,,,,,,,,,,,,,,,,,,,
,,,,,,0,2.407770138,#a3d0fb,"[""0.25"",""0""]",left_blue.png,left,,,,,,,,left,left_blue.png,down_orange.png,down,right,up,5eba75d1758c7a1cffb62685,2021-09-08_08h59.51.860,arrow_simon_vert,2021.1.2,Win32,95.73958832,,,,,,,,,,,,,,,,,,space,0,16.4375,left,1,1.6871,1,TRUE,FALSE,0,0,0,3,1,,,,,,,
,,,,,,0,2.002993094,#f3af84,"[""0"",""0.25""]",up_orange.png,up,,,,,,,,right,right_blue.png,up_orange.png,up,right,up,5eba75d1758c7a1cffb62685,2021-09-08_08h59.51.860,arrow_simon_vert,2021.1.2,Win32,95.73958832,,,,,,,,,,,,,,,,,,,,,up,1,1.3042,2,FALSE,TRUE,0,1,1,1,1,,,,,,,
,,,,,,0,2.448250206,#a3d0fb,"[""-0.25"",""0""]",left_blue.png,left,,,,,,,,left,left_blue.png,down_orange.png,down,left,down,5eba75d1758c7a1cffb62685,2021-09-08_08h59.51.860,arrow_simon_vert,2021.1.2,Win32,95.73958832,,,,,,,,,,,,,,,,,,,,,left,1,1.7801,3,TRUE,FALSE,0,2,2,2,1,,,,,,,
,,,,,,0,1.923544611,#f3af84,"[""0"",""-0.25""]",up_orange.png,up,,,,,,,,right,right_blue.png,up_orange.png,up,left,down,5eba75d1758c7a1cffb62685,2021-09-08_08h59.51.860,arrow_simon_vert,2021.1.2,Win32,95.73958832,,,,,,,,,,,,,,,,,,,,,up,1,1.3313,4,FALSE,TRUE,0,3,3,0,1,,,,,,,
,,,,,,0,1.789753721,#a3d0fb,"[""0.25"",""0""]",right_blue.png,right,,,,,,,,right,right_blue.png,up_orange.png,up,right,up,5eba75d1758c7a1cffb62685,2021-09-08_08h59.51.860,arrow_simon_vert,2021.1.2,Win32,95.73958832,,,,,,,,,,,,,,,,,,,,,right,1,1.4866,5,FALSE,FALSE,1,0,4,1,1,,,,,,,
,,,,,,0,1.829693102,#f3af84,"[""0"",""-0.25""]",down_orange.png,down,,,,,,,,left,left_blue.png,down_orange.png,down,left,down,5eba75d1758c7a1cffb62685,2021-09-08_08h59.51.860,arrow_simon_vert,2021.1.2,Win32,95.73958832,,,,,,,,,,,,,,,,,,,,,down,1,1.4933,6,FALSE,FALSE,1,1,5,2,1,,,,,,,
,,,,,,0,2.116492291,#a3d0fb,"[""0.25"",""0""]",right_blue.png,right,,,,,,,,right,right_blue.png,up_orange.png,up,right,up,5eba75d1758c7a1cffb62685,2021-09-08_08h59.51.860,arrow_simon_vert,2021.1.2,Win32,95.73958832,,,,,,,,,,,,,,,,,,,,,right,1,1.4996,7,FALSE,FALSE,1,2,6,1,1,,,,,,,
,,,,,,0,1.874097166,#f3af84,"[""0"",""-0.25""]",down_orange.png,down,,,,,,,,left,left_blue.png,down_orange.png,down,left,down,5eba75d1758c7a1cffb62685,2021-09-08_08h59.51.860,arrow_simon_vert,2021.1.2,Win32,95.73958832,,,,,,,,,,,,,,,,,,,,,down,1,1.5023,8,FALSE,FALSE,1,3,7,2,1,,,,,,,
,,,,,,0,2.033778109,#a3d0fb,"[""-0.25"",""0""]",left_blue.png,left,,,,,,,,left,left_blue.png,down_orange.png,down,left,down,5eba75d1758c7a1cffb62685,2021-09-08_08h59.51.860,arrow_simon_vert,2021.1.2,Win32,95.73958832,,,,,,,,,,,,,,,,,,,,,left,1,1.4575,9,FALSE,FALSE,2,0,8,2,1,,,,,,,
,,,,,,0,1.539919591,#f3af84,"[""0"",""0.25""]",up_orange.png,up,,,,,,,,right,right_blue.png,up_orange.png,up,right,up,5eba75d1758c7a1cffb62685,2021-09-08_08h59.51.860,arrow_simon_vert,2021.1.2,Win32,95.73958832,,,,,,,,,,,,,,,,,,,,,up,1,1.5203,10,FALSE,FALSE,2,1,9,1,1,,,,,,,
,,,,,,0,2.322024625,#a3d0fb,"[""-0.25"",""0""]",left_blue.png,left,,,,,,,,left,left_blue.png,down_orange.png,down,left,down,5eba75d1758c7a1cffb62685,2021-09-08_08h59.51.860,arrow_simon_vert,2021.1.2,Win32,95.73958832,,,,,,,,,,,,,,,,,,,,,left,1,1.5899,11,FALSE,FALSE,2,2,10,2,1,,,,,,,
,,,,,,0,2.492744926,#f3af84,"[""0"",""-0.25""]",down_orange.png,down,,,,,,,,left,left_blue.png,down_orange.png,down,left,down,5eba75d1758c7a1cffb62685,2021-09-08_08h59.51.860,arrow_simon_vert,2021.1.2,Win32,95.73958832,,,,,,,,,,,,,,,,,,,,,down,1,1.8525,12,TRUE,FALSE,2,3,11,2,1,,,,,,,
,,,,,,0,1.916026499,#a3d0fb,"[""0.25"",""0""]",left_blue.png,left,,,,,,,,left,left_blue.png,down_orange.png,down,right,up,5eba75d1758c7a1cffb62685,2021-09-08_08h59.51.860,arrow_simon_vert,2021.1.2,Win32,95.73958832,,,,,,,,,,,,,,,,,,,,,left,1,1.5631,13,FALSE,FALSE,3,0,12,3,1,,,,,,,
,,,,,,0,1.750054175,#f3af84,"[""0"",""0.25""]",up_orange.png,up,,,,,,,,right,right_blue.png,up_orange.png,up,right,up,5eba75d1758c7a1cffb62685,2021-09-08_08h59.51.860,arrow_simon_vert,2021.1.2,Win32,95.73958832,,,,,,,,,,,,,,,,,,,,,up,1,1.575,14,FALSE,FALSE,3,1,13,1,1,,,,,,,
,,,,,,0,1.582202187,#a3d0fb,"[""-0.25"",""0""]",right_blue.png,right,,,,,,,,right,right_blue.png,up_orange.png,up,left,down,5eba75d1758c7a1cffb62685,2021-09-08_08h59.51.860,arrow_simon_vert,2021.1.2,Win32,95.73958832,,,,,,,,,,,,,,,,,,,,,right,1,1.5302,15,FALSE,FALSE,3,2,14,0,1,,,,,,,
,,,,,,0,2.154709421,#f3af84,"[""0"",""0.25""]",down_orange.png,down,,,,,,,,left,left_blue.png,down_orange.png,down,right,up,5eba75d1758c7a1cffb62685,2021-09-08_08h59.51.860,arrow_simon_vert,2021.1.2,Win32,95.73958832,,,,,,,,,,,,,,,,,,,,,down,1,1.5828,16,FALSE,FALSE,3,3,15,3,1,,,,,,,
,,,,,,0,1.987764163,#a3d0fb,"[""0.25"",""0""]",right_blue.png,right,,,,,,,,right,right_blue.png,up_orange.png,up,right,up,5eba75d1758c7a1cffb62685,2021-09-08_08h59.51.860,arrow_simon_vert,2021.1.2,Win32,95.73958832,,,,,,,,,,,,,,,,,,,,,right,1,1.4456,17,FALSE,FALSE,4,0,16,1,1,,,,,,,
,,,,,,0,2.156225414,#f3af84,"[""0"",""0.25""]",down_orange.png,down,,,,,,,,left,left_blue.png,down_orange.png,down,right,up,5eba75d1758c7a1cffb62685,2021-09-08_08h59.51.860,arrow_simon_vert,2021.1.2,Win32,95.73958832,,,,,,,,,,,,,,,,,,,,,down,1,1.5342,18,FALSE,FALSE,4,1,17,3,1,,,,,,,
,,,,,,0,1.941064002,#a3d0fb,"[""0.25"",""0""]",right_blue.png,right,,,,,,,,right,right_blue.png,up_orange.png,up,right,up,5eba75d1758c7a1cffb62685,2021-09-08_08h59.51.860,arrow_simon_vert,2021.1.2,Win32,95.73958832,,,,,,,,,,,,,,,,,,,,,right,1,1.4587,19,FALSE,FALSE,4,2,18,1,1,,,,,,,
,,,,,,0,1.986318624,#f3af84,"[""0"",""-0.25""]",down_orange.png,down,,,,,,,,left,left_blue.png,down_orange.png,down,left,down,5eba75d1758c7a1cffb62685,2021-09-08_08h59.51.860,arrow_simon_vert,2021.1.2,Win32,95.73958832,,,,,,,,,,,,,,,,,,,,,down,1,1.4336,20,FALSE,FALSE,4,3,19,2,1,,,,,,,
,,,,,,0,1.866630688,#a3d0fb,"[""-0.25"",""0""]",left_blue.png,left,,,,,,,,left,left_blue.png,down_orange.png,down,left,down,5eba75d1758c7a1cffb62685,2021-09-08_08h59.51.860,arrow_simon_vert,2021.1.2,Win32,95.73958832,,,,,,,,,,,,,,,,,,,,,left,1,1.4368,21,FALSE,FALSE,5,0,20,2,1,,,,,,,
,,,,,,0,1.776664051,#f3af84,"[""0"",""-0.25""]",up_orange.png,up,,,,,,,,right,right_blue.png,up_orange.png,up,left,down,5eba75d1758c7a1cffb62685,2021-09-08_08h59.51.860,arrow_simon_vert,2021.1.2,Win32,95.73958832,,,,,,,,,,,,,,,,,,,,,up,1,1.4246,22,FALSE,FALSE,5,1,21,0,1,,,,,,,
,,,,,,0,2.458228458,#a3d0fb,"[""0.25"",""0""]",left_blue.png,left,,,,,,,,left,left_blue.png,down_orange.png,down,right,up,5eba75d1758c7a1cffb62685,2021-09-08_08h59.51.860,arrow_simon_vert,2021.1.2,Win32,95.73958832,,,,,,,,,,,,,,,,,,,,,left,1,1.7433,23,TRUE,FALSE,5,2,22,3,1,,,,,,,
,,,,,,0,1.854603852,#f3af84,"[""0"",""-0.25""]",up_orange.png,up,,,,,,,,right,right_blue.png,up_orange.png,up,left,down,5eba75d1758c7a1cffb62685,2021-09-08_08h59.51.860,arrow_simon_vert,2021.1.2,Win32,95.73958832,,,,,,,,,,,,,,,,,,,,,up,1,1.5605,24,FALSE,FALSE,5,3,23,0,1,,,,,,,
,,,,,,0,2.374043341,#a3d0fb,"[""0.25"",""0""]",right_blue.png,right,,,,,,,,right,right_blue.png,up_orange.png,up,right,up,5eba75d1758c7a1cffb62685,2021-09-08_08h59.51.860,arrow_simon_vert,2021.1.2,Win32,95.73958832,,,,,,,,,,,,,,,,,,,,,right,1,1.5176,25,FALSE,FALSE,6,0,24,1,1,,,,,,,
,,,,,,0,1.544168299,#f3af84,"[""0"",""-0.25""]",up_orange.png,up,,,,,,,,right,right_blue.png,up_orange.png,up,left,down,5eba75d1758c7a1cffb62685,2021-09-08_08h59.51.860,arrow_simon_vert,2021.1.2,Win32,95.73958832,,,,,,,,,,,,,,,,,,,,,up,1,1.4831,26,FALSE,FALSE,6,1,25,0,1,,,,,,,
,,,,,,0,2.226003304,#a3d0fb,"[""0.25"",""0""]",right_blue.png,right,,,,,,,,right,right_blue.png,up_orange.png,up,right,up,5eba75d1758c7a1cffb62685,2021-09-08_08h59.51.860,arrow_simon_vert,2021.1.2,Win32,95.73958832,,,,,,,,,,,,,,,,,,,,,right,1,1.4355,27,FALSE,FALSE,6,2,26,1,1,,,,,,,
,,,,,,0,2.358824735,#f3af84,"[""0"",""0.25""]",down_orange.png,down,,,,,,,,left,left_blue.png,down_orange.png,down,right,up,5eba75d1758c7a1cffb62685,2021-09-08_08h59.51.860,arrow_simon_vert,2021.1.2,Win32,95.73958832,,,,,,,,,,,,,,,,,,,,,down,1,1.5593,28,FALSE,FALSE,6,3,27,3,1,,,,,,,
,,,,,,0,1.833597662,#a3d0fb,"[""0.25"",""0""]",left_blue.png,left,,,,,,,,left,left_blue.png,down_orange.png,down,right,up,5eba75d1758c7a1cffb62685,2021-09-08_08h59.51.860,arrow_simon_vert,2021.1.2,Win32,95.73958832,,,,,,,,,,,,,,,,,,,,,left,1,1.4583,29,FALSE,FALSE,7,0,28,3,1,,,,,,,
,,,,,,0,2.157253063,#f3af84,"[""0"",""-0.25""]",up_orange.png,up,,,,,,,,right,right_blue.png,up_orange.png,up,left,down,5eba75d1758c7a1cffb62685,2021-09-08_08h59.51.860,arrow_simon_vert,2021.1.2,Win32,95.73958832,,,,,,,,,,,,,,,,,,,,,up,1,1.5199,30,FALSE,FALSE,7,1,29,0,1,,,,,,,
,,,,,,0,2.393503883,#a3d0fb,"[""-0.25"",""0""]",right_blue.png,right,,,,,,,,right,right_blue.png,up_orange.png,up,left,down,5eba75d1758c7a1cffb62685,2021-09-08_08h59.51.860,arrow_simon_vert,2021.1.2,Win32,95.73958832,,,,,,,,,,,,,,,,,,,,,right,1,1.5029,31,FALSE,FALSE,7,2,30,0,1,,,,,,,
,,,,,,0,2.277657985,#f3af84,"[""0"",""-0.25""]",up_orange.png,up,,,,,,,,right,right_blue.png,up_orange.png,up,left,down,5eba75d1758c7a1cffb62685,2021-09-08_08h59.51.860,arrow_simon_vert,2021.1.2,Win32,95.73958832,,,,,,,,,,,,,,,,,,,,,up,1,1.5078,32,FALSE,FALSE,7,3,31,0,1,,,,,,,
,,,,,,0,1.640581537,#a3d0fb,"[""-0.25"",""0""]",left_blue.png,left,,,,,,,,left,left_blue.png,down_orange.png,down,left,down,5eba75d1758c7a1cffb62685,2021-09-08_08h59.51.860,arrow_simon_vert,2021.1.2,Win32,95.73958832,,,,,,,,,,,,,,,,,,,,,left,1,1.5177,33,FALSE,FALSE,8,0,32,2,1,,,,,,,
,,,,,,0,1.610581877,#f3af84,"[""0"",""0.25""]",up_orange.png,up,,,,,,,,right,right_blue.png,up_orange.png,up,right,up,5eba75d1758c7a1cffb62685,2021-09-08_08h59.51.860,arrow_simon_vert,2021.1.2,Win32,95.73958832,,,,,,,,,,,,,,,,,,,,,up,1,1.5415,34,FALSE,FALSE,8,1,33,1,1,,,,,,,
,,,,,,1,2.46132178,#a3d0fb,"[""0.25"",""0""]",left_blue.png,left,,,,,,,,left,left_blue.png,down_orange.png,down,right,up,5eba75d1758c7a1cffb62685,2021-09-08_08h59.51.860,arrow_simon_vert,2021.1.2,Win32,95.73958832,,,,,,,,,,,,,,,,,,,,,right,0,1.5207,35,FALSE,FALSE,8,2,34,3,1,,,,,,,
,,,,,,0,1.953163608,#f3af84,"[""0"",""0.25""]",down_orange.png,down,,,,,,,,left,left_blue.png,down_orange.png,down,right,up,5eba75d1758c7a1cffb62685,2021-09-08_08h59.51.860,arrow_simon_vert,2021.1.2,Win32,95.73958832,,,,,,,,,,,,,,,,,,,,,down,1,1.4932,36,FALSE,FALSE,8,3,35,3,1,,,,,,,
,,,,,,0,1.842584336,#a3d0fb,"[""-0.25"",""0""]",right_blue.png,right,,,,,,,,right,right_blue.png,up_orange.png,up,left,down,5eba75d1758c7a1cffb62685,2021-09-08_08h59.51.860,arrow_simon_vert,2021.1.2,Win32,95.73958832,,,,,,,,,,,,,,,,,,,,,right,1,1.4207,37,FALSE,FALSE,9,0,36,0,1,,,,,,,
,,,,,,1,2.432856131,#f3af84,"[""0"",""0.25""]",down_orange.png,down,,,,,,,,left,left_blue.png,down_orange.png,down,right,up,5eba75d1758c7a1cffb62685,2021-09-08_08h59.51.860,arrow_simon_vert,2021.1.2,Win32,95.73958832,,,,,,,,,,,,,,,,,,,,,up,0,1.5164,38,FALSE,FALSE,9,1,37,3,1,,,,,,,
,,,,,,0,1.819417874,#a3d0fb,"[""0.25"",""0""]",right_blue.png,right,,,,,,,,right,right_blue.png,up_orange.png,up,right,up,5eba75d1758c7a1cffb62685,2021-09-08_08h59.51.860,arrow_simon_vert,2021.1.2,Win32,95.73958832,,,,,,,,,,,,,,,,,,,,,right,1,1.5313,39,FALSE,FALSE,9,2,38,1,1,,,,,,,
,,,,,,0,2.131643187,#f3af84,"[""0"",""0.25""]",down_orange.png,down,,,,,,,,left,left_blue.png,down_orange.png,down,right,up,5eba75d1758c7a1cffb62685,2021-09-08_08h59.51.860,arrow_simon_vert,2021.1.2,Win32,95.73958832,,,,,,,,,,,,,,,,,,,,,down,1,1.4737,40,FALSE,FALSE,9,3,39,3,1,,,,,,,
,,,,,,0,2.121941513,#a3d0fb,"[""-0.25"",""0""]",right_blue.png,right,,,,,,,,right,right_blue.png,up_orange.png,up,left,down,5eba75d1758c7a1cffb62685,2021-09-08_08h59.51.860,arrow_simon_vert,2021.1.2,Win32,95.73958832,,,,,,,,,,,,,,,,,,,,,right,1,1.5106,41,FALSE,FALSE,10,0,40,0,1,,,,,,,
,,,,,,0,2.013586802,#f3af84,"[""0"",""-0.25""]",up_orange.png,up,,,,,,,,right,right_blue.png,up_orange.png,up,left,down,5eba75d1758c7a1cffb62685,2021-09-08_08h59.51.860,arrow_simon_vert,2021.1.2,Win32,95.73958832,,,,,,,,,,,,,,,,,,,,,up,1,1.5098,42,FALSE,FALSE,10,1,41,0,1,,,,,,,
,,,,,,1,2.301314611,#a3d0fb,"[""0.25"",""0""]",right_blue.png,right,,,,,,,,right,right_blue.png,up_orange.png,up,right,up,5eba75d1758c7a1cffb62685,2021-09-08_08h59.51.860,arrow_simon_vert,2021.1.2,Win32,95.73958832,,,,,,,,,,,,,,,,,,,,,left,0,1.4868,43,FALSE,FALSE,10,2,42,1,1,,,,,,,
,,,,,,0,2.15261593,#f3af84,"[""0"",""0.25""]",up_orange.png,up,,,,,,,,right,right_blue.png,up_orange.png,up,right,up,5eba75d1758c7a1cffb62685,2021-09-08_08h59.51.860,arrow_simon_vert,2021.1.2,Win32,95.73958832,,,,,,,,,,,,,,,,,,,,,up,1,1.5341,44,FALSE,FALSE,10,3,43,1,1,,,,,,,
,,,,,,0,1.847926207,#a3d0fb,"[""0.25"",""0""]",left_blue.png,left,,,,,,,,left,left_blue.png,down_orange.png,down,right,up,5eba75d1758c7a1cffb62685,2021-09-08_08h59.51.860,arrow_simon_vert,2021.1.2,Win32,95.73958832,,,,,,,,,,,,,,,,,,,,,left,1,1.4646,45,FALSE,FALSE,11,0,44,3,1,,,,,,,
,,,,,,0,2.229562876,#f3af84,"[""0"",""-0.25""]",down_orange.png,down,,,,,,,,left,left_blue.png,down_orange.png,down,left,down,5eba75d1758c7a1cffb62685,2021-09-08_08h59.51.860,arrow_simon_vert,2021.1.2,Win32,95.73958832,,,,,,,,,,,,,,,,,,,,,down,1,1.5258,46,FALSE,FALSE,11,1,45,2,1,,,,,,,
,,,,,,0,1.508343298,#a3d0fb,"[""0.25"",""0""]",left_blue.png,left,,,,,,,,left,left_blue.png,down_orange.png,down,right,up,5eba75d1758c7a1cffb62685,2021-09-08_08h59.51.860,arrow_simon_vert,2021.1.2,Win32,95.73958832,,,,,,,,,,,,,,,,,,,,,left,1,1.483,47,FALSE,FALSE,11,2,46,3,1,,,,,,,
,,,,,,0,2.166778687,#f3af84,"[""0"",""-0.25""]",up_orange.png,up,,,,,,,,right,right_blue.png,up_orange.png,up,left,down,5eba75d1758c7a1cffb62685,2021-09-08_08h59.51.860,arrow_simon_vert,2021.1.2,Win32,95.73958832,,,,,,,,,,,,,,,,,,,,,up,1,1.4679,48,FALSE,FALSE,11,3,47,0,1,,,,,,,
,,,,,,0,1.65472246,#a3d0fb,"[""0.25"",""0""]",right_blue.png,right,,,,,,,,right,right_blue.png,up_orange.png,up,right,up,5eba75d1758c7a1cffb62685,2021-09-08_08h59.51.860,arrow_simon_vert,2021.1.2,Win32,95.73958832,,,,,,,,,,,,,,,,,,,,,right,1,1.4952,49,FALSE,FALSE,12,0,48,1,1,,,,,,,
,,,,,,1,2.352667056,#f3af84,"[""0"",""-0.25""]",up_orange.png,up,,,,,,,,right,right_blue.png,up_orange.png,up,left,down,5eba75d1758c7a1cffb62685,2021-09-08_08h59.51.860,arrow_simon_vert,2021.1.2,Win32,95.73958832,,,,,,,,,,,,,,,,,,,,,down,0,1.5573,50,FALSE,FALSE,12,1,49,0,1,,,,,,,
,,,,,,0,1.564658286,#a3d0fb,"[""-0.25"",""0""]",right_blue.png,right,,,,,,,,right,right_blue.png,up_orange.png,up,left,down,5eba75d1758c7a1cffb62685,2021-09-08_08h59.51.860,arrow_simon_vert,2021.1.2,Win32,95.73958832,,,,,,,,,,,,,,,,,,,,,right,1,1.479,51,FALSE,FALSE,12,2,50,0,1,,,,,,,
,,,,,,0,1.771745336,#f3af84,"[""0"",""-0.25""]",down_orange.png,down,,,,,,,,left,left_blue.png,down_orange.png,down,left,down,5eba75d1758c7a1cffb62685,2021-09-08_08h59.51.860,arrow_simon_vert,2021.1.2,Win32,95.73958832,,,,,,,,,,,,,,,,,,,,,down,1,1.5362,52,FALSE,FALSE,12,3,51,2,1,,,,,,,
,,,,,,0,1.631652106,#a3d0fb,"[""-0.25"",""0""]",left_blue.png,left,,,,,,,,left,left_blue.png,down_orange.png,down,left,down,5eba75d1758c7a1cffb62685,2021-09-08_08h59.51.860,arrow_simon_vert,2021.1.2,Win32,95.73958832,,,,,,,,,,,,,,,,,,,,,left,1,1.6649,53,TRUE,FALSE,13,0,52,2,1,,,,,,,
,,,,,,0,2.311764,#f3af84,"[""0"",""0.25""]",down_orange.png,down,,,,,,,,left,left_blue.png,down_orange.png,down,right,up,5eba75d1758c7a1cffb62685,2021-09-08_08h59.51.860,arrow_simon_vert,2021.1.2,Win32,95.73958832,,,,,,,,,,,,,,,,,,,,,down,1,1.5027,54,FALSE,FALSE,13,1,53,3,1,,,,,,,
,,,,,,0,1.816726879,#a3d0fb,"[""0.25"",""0""]",right_blue.png,right,,,,,,,,right,right_blue.png,up_orange.png,up,right,up,5eba75d1758c7a1cffb62685,2021-09-08_08h59.51.860,arrow_simon_vert,2021.1.2,Win32,95.73958832,,,,,,,,,,,,,,,,,,,,,right,1,1.4271,55,FALSE,FALSE,13,2,54,1,1,,,,,,,
,,,,,,0,1.847785698,#f3af84,"[""0"",""-0.25""]",down_orange.png,down,,,,,,,,left,left_blue.png,down_orange.png,down,left,down,5eba75d1758c7a1cffb62685,2021-09-08_08h59.51.860,arrow_simon_vert,2021.1.2,Win32,95.73958832,,,,,,,,,,,,,,,,,,,,,down,1,1.4552,56,FALSE,FALSE,13,3,55,2,1,,,,,,,
,,,,,,0,1.616272041,#a3d0fb,"[""-0.25"",""0""]",left_blue.png,left,,,,,,,,left,left_blue.png,down_orange.png,down,left,down,5eba75d1758c7a1cffb62685,2021-09-08_08h59.51.860,arrow_simon_vert,2021.1.2,Win32,95.73958832,,,,,,,,,,,,,,,,,,,,,left,1,1.487,57,FALSE,FALSE,14,0,56,2,1,,,,,,,
,,,,,,1,2.324589615,#f3af84,"[""0"",""-0.25""]",up_orange.png,up,,,,,,,,right,right_blue.png,up_orange.png,up,left,down,5eba75d1758c7a1cffb62685,2021-09-08_08h59.51.860,arrow_simon_vert,2021.1.2,Win32,95.73958832,,,,,,,,,,,,,,,,,,,,,down,0,1.5184,58,FALSE,FALSE,14,1,57,0,1,,,,,,,
,,,,,,1,2.367752009,#a3d0fb,"[""-0.25"",""0""]",left_blue.png,left,,,,,,,,left,left_blue.png,down_orange.png,down,left,down,5eba75d1758c7a1cffb62685,2021-09-08_08h59.51.860,arrow_simon_vert,2021.1.2,Win32,95.73958832,,,,,,,,,,,,,,,,,,,,,right,0,1.5487,59,FALSE,FALSE,14,2,58,2,1,,,,,,,
,,,,,,0,1.956985394,#f3af84,"[""0"",""0.25""]",down_orange.png,down,,,,,,,,left,left_blue.png,down_orange.png,down,right,up,5eba75d1758c7a1cffb62685,2021-09-08_08h59.51.860,arrow_simon_vert,2021.1.2,Win32,95.73958832,,,,,,,,,,,,,,,,,,,,,down,1,1.4662,60,FALSE,FALSE,14,3,59,3,1,,,,,,,
,,,,,,,,,,,,,,,,,,,,,,,,,5eba75d1758c7a1cffb62685,2021-09-08_08h59.51.860,arrow_simon_vert,2021.1.2,Win32,95.73958832,,,,,,,,,,,,,,,,,,,,,,,,,,,,,,,,space,58.2308,0,0,0,0,1
,,,,,,0,2.468045367,#a3d0fb,"[""-0.25"",""0""]",left_blue.png,left,,,,,,,,left,left_blue.png,down_orange.png,down,left,down,5eba75d1758c7a1cffb62685,2021-09-08_08h59.51.860,arrow_simon_vert,2021.1.2,Win32,95.73958832,,,,,,,,,,,,,,,,,,,,,right,0,0.4089,1,FALSE,TRUE,0,0,0,2,1,,,,,,,
,,,,,,0,2.106451565,#f3af84,"[""0"",""-0.25""]",up_orange.png,up,,,,,,,,right,right_blue.png,up_orange.png,up,left,down,5eba75d1758c7a1cffb62685,2021-09-08_08h59.51.860,arrow_simon_vert,2021.1.2,Win32,95.73958832,,,,,,,,,,,,,,,,,,,,,up,1,1.5637,2,FALSE,FALSE,0,1,1,0,1,,,,,,,
,,,,,,0,2.233296668,#a3d0fb,"[""0.25"",""0""]",left_blue.png,left,,,,,,,,left,left_blue.png,down_orange.png,down,right,up,5eba75d1758c7a1cffb62685,2021-09-08_08h59.51.860,arrow_simon_vert,2021.1.2,Win32,95.73958832,,,,,,,,,,,,,,,,,,,,,left,1,1.5707,3,FALSE,FALSE,0,2,2,3,1,,,,,,,
,,,,,,1,2.400120028,#f3af84,"[""0"",""0.25""]",up_orange.png,up,,,,,,,,right,right_blue.png,up_orange.png,up,right,up,5eba75d1758c7a1cffb62685,2021-09-08_08h59.51.860,arrow_simon_vert,2021.1.2,Win32,95.73958832,,,,,,,,,,,,,,,,,,,,,down,0,1.4658,4,FALSE,FALSE,0,3,3,1,1,,,,,,,
,,,,,,0,2.316600822,#a3d0fb,"[""0.25"",""0""]",left_blue.png,left,,,,,,,,left,left_blue.png,down_orange.png,down,right,up,5eba75d1758c7a1cffb62685,2021-09-08_08h59.51.860,arrow_simon_vert,2021.1.2,Win32,95.73958832,,,,,,,,,,,,,,,,,,,,,left,1,1.4859,5,FALSE,FALSE,1,0,4,3,1,,,,,,,
,,,,,,0,1.983912975,#f3af84,"[""0"",""-0.25""]",up_orange.png,up,,,,,,,,right,right_blue.png,up_orange.png,up,left,down,5eba75d1758c7a1cffb62685,2021-09-08_08h59.51.860,arrow_simon_vert,2021.1.2,Win32,95.73958832,,,,,,,,,,,,,,,,,,,,,up,1,1.4032,6,FALSE,FALSE,1,1,5,0,1,,,,,,,
,,,,,,0,2.23142784,#a3d0fb,"[""-0.25"",""0""]",left_blue.png,left,,,,,,,,left,left_blue.png,down_orange.png,down,left,down,5eba75d1758c7a1cffb62685,2021-09-08_08h59.51.860,arrow_simon_vert,2021.1.2,Win32,95.73958832,,,,,,,,,,,,,,,,,,,,,left,1,1.533,7,FALSE,FALSE,1,2,6,2,1,,,,,,,
,,,,,,0,1.626756106,#f3af84,"[""0"",""0.25""]",up_orange.png,up,,,,,,,,right,right_blue.png,up_orange.png,up,right,up,5eba75d1758c7a1cffb62685,2021-09-08_08h59.51.860,arrow_simon_vert,2021.1.2,Win32,95.73958832,,,,,,,,,,,,,,,,,,,,,up,1,1.5069,8,FALSE,FALSE,1,3,7,1,1,,,,,,,
,,,,,,0,2.167670246,#a3d0fb,"[""-0.25"",""0""]",left_blue.png,left,,,,,,,,left,left_blue.png,down_orange.png,down,left,down,5eba75d1758c7a1cffb62685,2021-09-08_08h59.51.860,arrow_simon_vert,2021.1.2,Win32,95.73958832,,,,,,,,,,,,,,,,,,,,,left,1,1.5808,9,FALSE,FALSE,2,0,8,2,1,,,,,,,
,,,,,,0,2.220207299,#f3af84,"[""0"",""-0.25""]",up_orange.png,up,,,,,,,,right,right_blue.png,up_orange.png,up,left,down,5eba75d1758c7a1cffb62685,2021-09-08_08h59.51.860,arrow_simon_vert,2021.1.2,Win32,95.73958832,,,,,,,,,,,,,,,,,,,,,up,1,1.612,10,TRUE,FALSE,2,1,9,0,1,,,,,,,
,,,,,,0,1.582830205,#a3d0fb,"[""-0.25"",""0""]",left_blue.png,left,,,,,,,,left,left_blue.png,down_orange.png,down,left,down,5eba75d1758c7a1cffb62685,2021-09-08_08h59.51.860,arrow_simon_vert,2021.1.2,Win32,95.73958832,,,,,,,,,,,,,,,,,,,,,left,1,1.5314,11,FALSE,FALSE,2,2,10,2,1,,,,,,,
,,,,,,0,1.540076876,#f3af84,"[""0"",""0.25""]",up_orange.png,up,,,,,,,,right,right_blue.png,up_orange.png,up,right,up,5eba75d1758c7a1cffb62685,2021-09-08_08h59.51.860,arrow_simon_vert,2021.1.2,Win32,95.73958832,,,,,,,,,,,,,,,,,,,,,up,1,1.5036,12,FALSE,FALSE,2,3,11,1,1,,,,,,,
,,,,,,0,2.009625404,#a3d0fb,"[""0.25"",""0""]",right_blue.png,right,,,,,,,,right,right_blue.png,up_orange.png,up,right,up,5eba75d1758c7a1cffb62685,2021-09-08_08h59.51.860,arrow_simon_vert,2021.1.2,Win32,95.73958832,,,,,,,,,,,,,,,,,,,,,right,1,1.4831,13,FALSE,FALSE,3,0,12,1,1,,,,,,,
,,,,,,0,1.633561462,#f3af84,"[""0"",""-0.25""]",up_orange.png,up,,,,,,,,right,right_blue.png,up_orange.png,up,left,down,5eba75d1758c7a1cffb62685,2021-09-08_08h59.51.860,arrow_simon_vert,2021.1.2,Win32,95.73958832,,,,,,,,,,,,,,,,,,,,,up,1,1.5393,14,FALSE,FALSE,3,1,13,0,1,,,,,,,
,,,,,,0,1.708574158,#a3d0fb,"[""0.25"",""0""]",right_blue.png,right,,,,,,,,right,right_blue.png,up_orange.png,up,right,up,5eba75d1758c7a1cffb62685,2021-09-08_08h59.51.860,arrow_simon_vert,2021.1.2,Win32,95.73958832,,,,,,,,,,,,,,,,,,,,,right,1,1.5002,15,FALSE,FALSE,3,2,14,1,1,,,,,,,
,,,,,,0,1.769262003,#f3af84,"[""0"",""-0.25""]",down_orange.png,down,,,,,,,,left,left_blue.png,down_orange.png,down,left,down,5eba75d1758c7a1cffb62685,2021-09-08_08h59.51.860,arrow_simon_vert,2021.1.2,Win32,95.73958832,,,,,,,,,,,,,,,,,,,,,down,1,1.5124,16,FALSE,FALSE,3,3,15,2,1,,,,,,,
,,,,,,0,2.036569047,#a3d0fb,"[""0.25"",""0""]",left_blue.png,left,,,,,,,,left,left_blue.png,down_orange.png,down,right,up,5eba75d1758c7a1cffb62685,2021-09-08_08h59.51.860,arrow_simon_vert,2021.1.2,Win32,95.73958832,,,,,,,,,,,,,,,,,,,,,left,1,1.489,17,FALSE,FALSE,4,0,16,3,1,,,,,,,
,,,,,,0,2.363662761,#f3af84,"[""0"",""0.25""]",up_orange.png,up,,,,,,,,right,right_blue.png,up_orange.png,up,right,up,5eba75d1758c7a1cffb62685,2021-09-08_08h59.51.860,arrow_simon_vert,2021.1.2,Win32,95.73958832,,,,,,,,,,,,,,,,,,,,,up,1,1.5597,18,FALSE,FALSE,4,1,17,1,1,,,,,,,
,,,,,,0,1.727277362,#a3d0fb,"[""-0.25"",""0""]",right_blue.png,right,,,,,,,,right,right_blue.png,up_orange.png,up,left,down,5eba75d1758c7a1cffb62685,2021-09-08_08h59.51.860,arrow_simon_vert,2021.1.2,Win32,95.73958832,,,,,,,,,,,,,,,,,,,,,right,1,1.4511,19,FALSE,FALSE,4,2,18,0,1,,,,,,,
,,,,,,0,2.076388938,#f3af84,"[""0"",""-0.25""]",up_orange.png,up,,,,,,,,right,right_blue.png,up_orange.png,up,left,down,5eba75d1758c7a1cffb62685,2021-09-08_08h59.51.860,arrow_simon_vert,2021.1.2,Win32,95.73958832,,,,,,,,,,,,,,,,,,,,,up,1,1.4995,20,FALSE,FALSE,4,3,19,0,1,,,,,,,
,,,,,,0,1.601514763,#a3d0fb,"[""-0.25"",""0""]",right_blue.png,right,,,,,,,,right,right_blue.png,up_orange.png,up,left,down,5eba75d1758c7a1cffb62685,2021-09-08_08h59.51.860,arrow_simon_vert,2021.1.2,Win32,95.73958832,,,,,,,,,,,,,,,,,,,,,right,1,1.5446,21,FALSE,FALSE,5,0,20,0,1,,,,,,,
,,,,,,0,1.557950327,#f3af84,"[""0"",""0.25""]",up_orange.png,up,,,,,,,,right,right_blue.png,up_orange.png,up,right,up,5eba75d1758c7a1cffb62685,2021-09-08_08h59.51.860,arrow_simon_vert,2021.1.2,Win32,95.73958832,,,,,,,,,,,,,,,,,,,,,up,1,1.5078,22,FALSE,FALSE,5,1,21,1,1,,,,,,,
,,,,,,0,2.479527326,#a3d0fb,"[""0.25"",""0""]",left_blue.png,left,,,,,,,,left,left_blue.png,down_orange.png,down,right,up,5eba75d1758c7a1cffb62685,2021-09-08_08h59.51.860,arrow_simon_vert,2021.1.2,Win32,95.73958832,,,,,,,,,,,,,,,,,,,,,left,1,1.8037,23,TRUE,FALSE,5,2,22,3,1,,,,,,,
,,,,,,0,1.59859124,#f3af84,"[""0"",""-0.25""]",down_orange.png,down,,,,,,,,left,left_blue.png,down_orange.png,down,left,down,5eba75d1758c7a1cffb62685,2021-09-08_08h59.51.860,arrow_simon_vert,2021.1.2,Win32,95.73958832,,,,,,,,,,,,,,,,,,,,,down,1,1.1288,24,FALSE,TRUE,5,3,23,2,1,,,,,,,
,,,,,,0,1.609774407,#a3d0fb,"[""0.25"",""0""]",right_blue.png,right,,,,,,,,right,right_blue.png,up_orange.png,up,right,up,5eba75d1758c7a1cffb62685,2021-09-08_08h59.51.860,arrow_simon_vert,2021.1.2,Win32,95.73958832,,,,,,,,,,,,,,,,,,,,,right,1,1.4601,25,FALSE,FALSE,6,0,24,1,1,,,,,,,
,,,,,,0,1.878463084,#f3af84,"[""0"",""-0.25""]",down_orange.png,down,,,,,,,,left,left_blue.png,down_orange.png,down,left,down,5eba75d1758c7a1cffb62685,2021-09-08_08h59.51.860,arrow_simon_vert,2021.1.2,Win32,95.73958832,,,,,,,,,,,,,,,,,,,,,down,1,1.4978,26,FALSE,FALSE,6,1,25,2,1,,,,,,,
,,,,,,0,2.103876029,#a3d0fb,"[""0.25"",""0""]",left_blue.png,left,,,,,,,,left,left_blue.png,down_orange.png,down,right,up,5eba75d1758c7a1cffb62685,2021-09-08_08h59.51.860,arrow_simon_vert,2021.1.2,Win32,95.73958832,,,,,,,,,,,,,,,,,,,,,left,1,1.5189,27,FALSE,FALSE,6,2,26,3,1,,,,,,,
,,,,,,0,2.184164549,#f3af84,"[""0"",""0.25""]",up_orange.png,up,,,,,,,,right,right_blue.png,up_orange.png,up,right,up,5eba75d1758c7a1cffb62685,2021-09-08_08h59.51.860,arrow_simon_vert,2021.1.2,Win32,95.73958832,,,,,,,,,,,,,,,,,,,,,up,1,1.5879,28,FALSE,FALSE,6,3,27,1,1,,,,,,,
,,,,,,0,1.731178411,#a3d0fb,"[""-0.25"",""0""]",left_blue.png,left,,,,,,,,left,left_blue.png,down_orange.png,down,left,down,5eba75d1758c7a1cffb62685,2021-09-08_08h59.51.860,arrow_simon_vert,2021.1.2,Win32,95.73958832,,,,,,,,,,,,,,,,,,,,,left,1,1.5046,29,FALSE,FALSE,7,0,28,2,1,,,,,,,
,,,,,,1,2.443627831,#f3af84,"[""0"",""-0.25""]",down_orange.png,down,,,,,,,,left,left_blue.png,down_orange.png,down,left,down,5eba75d1758c7a1cffb62685,2021-09-08_08h59.51.860,arrow_simon_vert,2021.1.2,Win32,95.73958832,,,,,,,,,,,,,,,,,,,,,up,0,1.531,30,FALSE,FALSE,7,1,29,2,1,,,,,,,
,,,,,,0,1.830029665,#a3d0fb,"[""0.25"",""0""]",left_blue.png,left,,,,,,,,left,left_blue.png,down_orange.png,down,right,up,5eba75d1758c7a1cffb62685,2021-09-08_08h59.51.860,arrow_simon_vert,2021.1.2,Win32,95.73958832,,,,,,,,,,,,,,,,,,,,,left,1,1.5115,31,FALSE,FALSE,7,2,30,3,1,,,,,,,
,,,,,,1,2.409031238,#f3af84,"[""0"",""-0.25""]",up_orange.png,up,,,,,,,,right,right_blue.png,up_orange.png,up,left,down,5eba75d1758c7a1cffb62685,2021-09-08_08h59.51.860,arrow_simon_vert,2021.1.2,Win32,95.73958832,,,,,,,,,,,,,,,,,,,,,down,0,1.5922,32,FALSE,FALSE,7,3,31,0,1,,,,,,,
,,,,,,0,1.801235429,#a3d0fb,"[""0.25"",""0""]",right_blue.png,right,,,,,,,,right,right_blue.png,up_orange.png,up,right,up,5eba75d1758c7a1cffb62685,2021-09-08_08h59.51.860,arrow_simon_vert,2021.1.2,Win32,95.73958832,,,,,,,,,,,,,,,,,,,,,right,1,1.4694,33,FALSE,FALSE,8,0,32,1,1,,,,,,,
,,,,,,0,2.448681339,#f3af84,"[""0"",""-0.25""]",down_orange.png,down,,,,,,,,left,left_blue.png,down_orange.png,down,left,down,5eba75d1758c7a1cffb62685,2021-09-08_08h59.51.860,arrow_simon_vert,2021.1.2,Win32,95.73958832,,,,,,,,,,,,,,,,,,,,,down,1,1.688,34,TRUE,FALSE,8,1,33,2,1,,,,,,,
,,,,,,0,1.585100195,#a3d0fb,"[""-0.25"",""0""]",left_blue.png,left,,,,,,,,left,left_blue.png,down_orange.png,down,left,down,5eba75d1758c7a1cffb62685,2021-09-08_08h59.51.860,arrow_simon_vert,2021.1.2,Win32,95.73958832,,,,,,,,,,,,,,,,,,,,,left,1,1.4697,35,FALSE,FALSE,8,2,34,2,1,,,,,,,
,,,,,,1,2.31562453,#f3af84,"[""0"",""0.25""]",down_orange.png,down,,,,,,,,left,left_blue.png,down_orange.png,down,right,up,5eba75d1758c7a1cffb62685,2021-09-08_08h59.51.860,arrow_simon_vert,2021.1.2,Win32,95.73958832,,,,,,,,,,,,,,,,,,,,,up,0,1.5613,36,FALSE,FALSE,8,3,35,3,1,,,,,,,
,,,,,,0,2.02013667,#a3d0fb,"[""-0.25"",""0""]",left_blue.png,left,,,,,,,,left,left_blue.png,down_orange.png,down,left,down,5eba75d1758c7a1cffb62685,2021-09-08_08h59.51.860,arrow_simon_vert,2021.1.2,Win32,95.73958832,,,,,,,,,,,,,,,,,,,,,left,1,1.4536,37,FALSE,FALSE,9,0,36,2,1,,,,,,,
,,,,,,0,1.553144482,#f3af84,"[""0"",""0.25""]",up_orange.png,up,,,,,,,,right,right_blue.png,up_orange.png,up,right,up,5eba75d1758c7a1cffb62685,2021-09-08_08h59.51.860,arrow_simon_vert,2021.1.2,Win32,95.73958832,,,,,,,,,,,,,,,,,,,,,up,1,1.4293,38,FALSE,FALSE,9,1,37,1,1,,,,,,,
,,,,,,0,1.654796962,#a3d0fb,"[""0.25"",""0""]",right_blue.png,right,,,,,,,,right,right_blue.png,up_orange.png,up,right,up,5eba75d1758c7a1cffb62685,2021-09-08_08h59.51.860,arrow_simon_vert,2021.1.2,Win32,95.73958832,,,,,,,,,,,,,,,,,,,,,right,1,1.4645,39,FALSE,FALSE,9,2,38,1,1,,,,,,,
,,,,,,0,1.503456447,#f3af84,"[""0"",""-0.25""]",down_orange.png,down,,,,,,,,left,left_blue.png,down_orange.png,down,left,down,5eba75d1758c7a1cffb62685,2021-09-08_08h59.51.860,arrow_simon_vert,2021.1.2,Win32,95.73958832,,,,,,,,,,,,,,,,,,,,,down,1,1.4828,40,FALSE,FALSE,9,3,39,2,1,,,,,,,
,,,,,,0,1.516171628,#a3d0fb,"[""0.25"",""0""]",left_blue.png,left,,,,,,,,left,left_blue.png,down_orange.png,down,right,up,5eba75d1758c7a1cffb62685,2021-09-08_08h59.51.860,arrow_simon_vert,2021.1.2,Win32,95.73958832,,,,,,,,,,,,,,,,,,,,,left,1,1.4456,41,FALSE,FALSE,10,0,40,3,1,,,,,,,
,,,,,,0,2.043787464,#f3af84,"[""0"",""-0.25""]",up_orange.png,up,,,,,,,,right,right_blue.png,up_orange.png,up,left,down,5eba75d1758c7a1cffb62685,2021-09-08_08h59.51.860,arrow_simon_vert,2021.1.2,Win32,95.73958832,,,,,,,,,,,,,,,,,,,,,up,1,1.5103,42,FALSE,FALSE,10,1,41,0,1,,,,,,,
,,,,,,0,2.112023492,#a3d0fb,"[""-0.25"",""0""]",right_blue.png,right,,,,,,,,right,right_blue.png,up_orange.png,up,left,down,5eba75d1758c7a1cffb62685,2021-09-08_08h59.51.860,arrow_simon_vert,2021.1.2,Win32,95.73958832,,,,,,,,,,,,,,,,,,,,,right,1,1.4643,43,FALSE,FALSE,10,2,42,0,1,,,,,,,
,,,,,,0,1.722501414,#f3af84,"[""0"",""-0.25""]",up_orange.png,up,,,,,,,,right,right_blue.png,up_orange.png,up,left,down,5eba75d1758c7a1cffb62685,2021-09-08_08h59.51.860,arrow_simon_vert,2021.1.2,Win32,95.73958832,,,,,,,,,,,,,,,,,,,,,up,1,1.4977,44,FALSE,FALSE,10,3,43,0,1,,,,,,,
,,,,,,0,1.539103653,#a3d0fb,"[""-0.25"",""0""]",right_blue.png,right,,,,,,,,right,right_blue.png,up_orange.png,up,left,down,5eba75d1758c7a1cffb62685,2021-09-08_08h59.51.860,arrow_simon_vert,2021.1.2,Win32,95.73958832,,,,,,,,,,,,,,,,,,,,,right,1,1.4544,45,FALSE,FALSE,11,0,44,0,1,,,,,,,
,,,,,,0,1.570494587,#f3af84,"[""0"",""0.25""]",down_orange.png,down,,,,,,,,left,left_blue.png,down_orange.png,down,right,up,5eba75d1758c7a1cffb62685,2021-09-08_08h59.51.860,arrow_simon_vert,2021.1.2,Win32,95.73958832,,,,,,,,,,,,,,,,,,,,,down,1,1.4376,46,FALSE,FALSE,11,1,45,3,1,,,,,,,
,,,,,,0,2.422693358,#a3d0fb,"[""0.25"",""0""]",left_blue.png,left,,,,,,,,left,left_blue.png,down_orange.png,down,right,up,5eba75d1758c7a1cffb62685,2021-09-08_08h59.51.860,arrow_simon_vert,2021.1.2,Win32,95.73958832,,,,,,,,,,,,,,,,,,,,,left,1,1.5696,47,FALSE,FALSE,11,2,46,3,1,,,,,,,
,,,,,,0,2.413686287,#f3af84,"[""0"",""0.25""]",down_orange.png,down,,,,,,,,left,left_blue.png,down_orange.png,down,right,up,5eba75d1758c7a1cffb62685,2021-09-08_08h59.51.860,arrow_simon_vert,2021.1.2,Win32,95.73958832,,,,,,,,,,,,,,,,,,,,,down,1,1.5544,48,FALSE,FALSE,11,3,47,3,1,,,,,,,
,,,,,,0,2.183390203,#a3d0fb,"[""-0.25"",""0""]",left_blue.png,left,,,,,,,,left,left_blue.png,down_orange.png,down,left,down,5eba75d1758c7a1cffb62685,2021-09-08_08h59.51.860,arrow_simon_vert,2021.1.2,Win32,95.73958832,,,,,,,,,,,,,,,,,,,,,left,1,1.5712,49,FALSE,FALSE,12,0,48,2,1,,,,,,,
,,,,,,0,2.479267008,#f3af84,"[""0"",""0.25""]",down_orange.png,down,,,,,,,,left,left_blue.png,down_orange.png,down,right,up,5eba75d1758c7a1cffb62685,2021-09-08_08h59.51.860,arrow_simon_vert,2021.1.2,Win32,95.73958832,,,,,,,,,,,,,,,,,,,,,down,1,1.5681,50,FALSE,FALSE,12,1,49,3,1,,,,,,,
,,,,,,0,2.353814244,#a3d0fb,"[""0.25"",""0""]",right_blue.png,right,,,,,,,,right,right_blue.png,up_orange.png,up,right,up,5eba75d1758c7a1cffb62685,2021-09-08_08h59.51.860,arrow_simon_vert,2021.1.2,Win32,95.73958832,,,,,,,,,,,,,,,,,,,,,right,1,1.4501,51,FALSE,FALSE,12,2,50,1,1,,,,,,,
,,,,,,0,2.062664839,#f3af84,"[""0"",""0.25""]",down_orange.png,down,,,,,,,,left,left_blue.png,down_orange.png,down,right,up,5eba75d1758c7a1cffb62685,2021-09-08_08h59.51.860,arrow_simon_vert,2021.1.2,Win32,95.73958832,,,,,,,,,,,,,,,,,,,,,down,1,1.5018,52,FALSE,FALSE,12,3,51,3,1,,,,,,,
,,,,,,0,2.098830302,#a3d0fb,"[""-0.25"",""0""]",right_blue.png,right,,,,,,,,right,right_blue.png,up_orange.png,up,left,down,5eba75d1758c7a1cffb62685,2021-09-08_08h59.51.860,arrow_simon_vert,2021.1.2,Win32,95.73958832,,,,,,,,,,,,,,,,,,,,,right,1,1.5548,53,FALSE,FALSE,13,0,52,0,1,,,,,,,
,,,,,,0,2.001212266,#f3af84,"[""0"",""-0.25""]",up_orange.png,up,,,,,,,,right,right_blue.png,up_orange.png,up,left,down,5eba75d1758c7a1cffb62685,2021-09-08_08h59.51.860,arrow_simon_vert,2021.1.2,Win32,95.73958832,,,,,,,,,,,,,,,,,,,,,up,1,1.491,54,FALSE,FALSE,13,1,53,0,1,,,,,,,
,,,,,,0,2.095797897,#a3d0fb,"[""-0.25"",""0""]",right_blue.png,right,,,,,,,,right,right_blue.png,up_orange.png,up,left,down,5eba75d1758c7a1cffb62685,2021-09-08_08h59.51.860,arrow_simon_vert,2021.1.2,Win32,95.73958832,,,,,,,,,,,,,,,,,,,,,right,1,1.5171,55,FALSE,FALSE,13,2,54,0,1,,,,,,,
,,,,,,1,2.357506285,#f3af84,"[""0"",""0.25""]",up_orange.png,up,,,,,,,,right,right_blue.png,up_orange.png,up,right,up,5eba75d1758c7a1cffb62685,2021-09-08_08h59.51.860,arrow_simon_vert,2021.1.2,Win32,95.73958832,,,,,,,,,,,,,,,,,,,,,down,0,1.5391,56,FALSE,FALSE,13,3,55,1,1,,,,,,,
,,,,,,1,2.23591013,#a3d0fb,"[""0.25"",""0""]",right_blue.png,right,,,,,,,,right,right_blue.png,up_orange.png,up,right,up,5eba75d1758c7a1cffb62685,2021-09-08_08h59.51.860,arrow_simon_vert,2021.1.2,Win32,95.73958832,,,,,,,,,,,,,,,,,,,,,left,0,1.5252,57,FALSE,FALSE,14,0,56,1,1,,,,,,,
,,,,,,0,2.138548812,#f3af84,"[""0"",""-0.25""]",down_orange.png,down,,,,,,,,left,left_blue.png,down_orange.png,down,left,down,5eba75d1758c7a1cffb62685,2021-09-08_08h59.51.860,arrow_simon_vert,2021.1.2,Win32,95.73958832,,,,,,,,,,,,,,,,,,,,,down,1,1.5384,58,FALSE,FALSE,14,1,57,2,1,,,,,,,
,,,,,,0,1.572579652,#a3d0fb,"[""0.25"",""0""]",left_blue.png,left,,,,,,,,left,left_blue.png,down_orange.png,down,right,up,5eba75d1758c7a1cffb62685,2021-09-08_08h59.51.860,arrow_simon_vert,2021.1.2,Win32,95.73958832,,,,,,,,,,,,,,,,,,,,,left,1,1.4849,59,FALSE,FALSE,14,2,58,3,1,,,,,,,
,,,,,,0,2.187989766,#f3af84,"[""0"",""0.25""]",down_orange.png,down,,,,,,,,left,left_blue.png,down_orange.png,down,right,up,5eba75d1758c7a1cffb62685,2021-09-08_08h59.51.860,arrow_simon_vert,2021.1.2,Win32,95.73958832,,,,,,,,,,,,,,,,,,,,,down,1,1.5799,60,FALSE,FALSE,14,3,59,3,1,,,,,,,
,,,,,,,,,,,,,,,,,,,,,,,,,5eba75d1758c7a1cffb62685,2021-09-08_08h59.51.860,arrow_simon_vert,2021.1.2,Win32,95.73958832,,,,,,,,,,,,,,,,,,,,,,,,,,,,,,,,space,14.0023,1,0,1,0,1
,,,,,,0,1.686546713,#a3d0fb,"[""-0.25"",""0""]",left_blue.png,left,,,,,,,,left,left_blue.png,down_orange.png,down,left,down,5eba75d1758c7a1cffb62685,2021-09-08_08h59.51.860,arrow_simon_vert,2021.1.2,Win32,95.73958832,,,,,,,,,,,,,,,,,,,,,left,1,1.4263,1,FALSE,FALSE,0,0,0,2,1,,,,,,,
,,,,,,0,1.702943555,#f3af84,"[""0"",""0.25""]",up_orange.png,up,,,,,,,,right,right_blue.png,up_orange.png,up,right,up,5eba75d1758c7a1cffb62685,2021-09-08_08h59.51.860,arrow_simon_vert,2021.1.2,Win32,95.73958832,,,,,,,,,,,,,,,,,,,,,up,1,1.4726,2,FALSE,FALSE,0,1,1,1,1,,,,,,,
,,,,,,0,2.215277106,#a3d0fb,"[""-0.25"",""0""]",left_blue.png,left,,,,,,,,left,left_blue.png,down_orange.png,down,left,down,5eba75d1758c7a1cffb62685,2021-09-08_08h59.51.860,arrow_simon_vert,2021.1.2,Win32,95.73958832,,,,,,,,,,,,,,,,,,,,,left,1,1.9003,3,TRUE,FALSE,0,2,2,2,1,,,,,,,
,,,,,,0,1.875862307,#f3af84,"[""0"",""0.25""]",down_orange.png,down,,,,,,,,left,left_blue.png,down_orange.png,down,right,up,5eba75d1758c7a1cffb62685,2021-09-08_08h59.51.860,arrow_simon_vert,2021.1.2,Win32,95.73958832,,,,,,,,,,,,,,,,,,,,,down,1,1.6555,4,TRUE,FALSE,0,3,3,3,1,,,,,,,
,,,,,,0,1.850531449,#a3d0fb,"[""-0.25"",""0""]",left_blue.png,left,,,,,,,,left,left_blue.png,down_orange.png,down,left,down,5eba75d1758c7a1cffb62685,2021-09-08_08h59.51.860,arrow_simon_vert,2021.1.2,Win32,95.73958832,,,,,,,,,,,,,,,,,,,,,left,1,1.4241,5,FALSE,FALSE,1,0,4,2,1,,,,,,,
,,,,,,0,1.687763485,#f3af84,"[""0"",""-0.25""]",up_orange.png,up,,,,,,,,right,right_blue.png,up_orange.png,up,left,down,5eba75d1758c7a1cffb62685,2021-09-08_08h59.51.860,arrow_simon_vert,2021.1.2,Win32,95.73958832,,,,,,,,,,,,,,,,,,,,,up,1,1.4502,6,FALSE,FALSE,1,1,5,0,1,,,,,,,
,,,,,,0,1.786701831,#a3d0fb,"[""-0.25"",""0""]",left_blue.png,left,,,,,,,,left,left_blue.png,down_orange.png,down,left,down,5eba75d1758c7a1cffb62685,2021-09-08_08h59.51.860,arrow_simon_vert,2021.1.2,Win32,95.73958832,,,,,,,,,,,,,,,,,,,,,left,1,1.4907,7,FALSE,FALSE,1,2,6,2,1,,,,,,,
,,,,,,0,2.078086071,#f3af84,"[""0"",""-0.25""]",up_orange.png,up,,,,,,,,right,right_blue.png,up_orange.png,up,left,down,5eba75d1758c7a1cffb62685,2021-09-08_08h59.51.860,arrow_simon_vert,2021.1.2,Win32,95.73958832,,,,,,,,,,,,,,,,,,,,,up,1,1.5278,8,FALSE,FALSE,1,3,7,0,1,,,,,,,
,,,,,,0,2.458745951,#a3d0fb,"[""0.25"",""0""]",right_blue.png,right,,,,,,,,right,right_blue.png,up_orange.png,up,right,up,5eba75d1758c7a1cffb62685,2021-09-08_08h59.51.860,arrow_simon_vert,2021.1.2,Win32,95.73958832,,,,,,,,,,,,,,,,,,,,,right,1,1.5721,9,FALSE,FALSE,2,0,8,1,1,,,,,,,
,,,,,,0,1.878843265,#f3af84,"[""0"",""0.25""]",up_orange.png,up,,,,,,,,right,right_blue.png,up_orange.png,up,right,up,5eba75d1758c7a1cffb62685,2021-09-08_08h59.51.860,arrow_simon_vert,2021.1.2,Win32,95.73958832,,,,,,,,,,,,,,,,,,,,,up,1,1.5215,10,FALSE,FALSE,2,1,9,1,1,,,,,,,
,,,,,,0,2.439509029,#a3d0fb,"[""-0.25"",""0""]",right_blue.png,right,,,,,,,,right,right_blue.png,up_orange.png,up,left,down,5eba75d1758c7a1cffb62685,2021-09-08_08h59.51.860,arrow_simon_vert,2021.1.2,Win32,95.73958832,,,,,,,,,,,,,,,,,,,,,right,1,1.6033,11,TRUE,FALSE,2,2,10,0,1,,,,,,,
,,,,,,0,1.572117084,#f3af84,"[""0"",""0.25""]",up_orange.png,up,,,,,,,,right,right_blue.png,up_orange.png,up,right,up,5eba75d1758c7a1cffb62685,2021-09-08_08h59.51.860,arrow_simon_vert,2021.1.2,Win32,95.73958832,,,,,,,,,,,,,,,,,,,,,up,1,1.4642,12,FALSE,FALSE,2,3,11,1,1,,,,,,,
,,,,,,0,2.100032336,#a3d0fb,"[""-0.25"",""0""]",right_blue.png,right,,,,,,,,right,right_blue.png,up_orange.png,up,left,down,5eba75d1758c7a1cffb62685,2021-09-08_08h59.51.860,arrow_simon_vert,2021.1.2,Win32,95.73958832,,,,,,,,,,,,,,,,,,,,,right,1,1.4983,13,FALSE,FALSE,3,0,12,0,1,,,,,,,
,,,,,,0,1.966271015,#f3af84,"[""0"",""-0.25""]",up_orange.png,up,,,,,,,,right,right_blue.png,up_orange.png,up,left,down,5eba75d1758c7a1cffb62685,2021-09-08_08h59.51.860,arrow_simon_vert,2021.1.2,Win32,95.73958832,,,,,,,,,,,,,,,,,,,,,up,1,1.477,14,FALSE,FALSE,3,1,13,0,1,,,,,,,
,,,,,,0,1.926742038,#a3d0fb,"[""-0.25"",""0""]",left_blue.png,left,,,,,,,,left,left_blue.png,down_orange.png,down,left,down,5eba75d1758c7a1cffb62685,2021-09-08_08h59.51.860,arrow_simon_vert,2021.1.2,Win32,95.73958832,,,,,,,,,,,,,,,,,,,,,left,1,1.4462,15,FALSE,FALSE,3,2,14,2,1,,,,,,,
,,,,,,0,1.572366598,#f3af84,"[""0"",""0.25""]",down_orange.png,down,,,,,,,,left,left_blue.png,down_orange.png,down,right,up,5eba75d1758c7a1cffb62685,2021-09-08_08h59.51.860,arrow_simon_vert,2021.1.2,Win32,95.73958832,,,,,,,,,,,,,,,,,,,,,down,1,1.434,16,FALSE,FALSE,3,3,15,3,1,,,,,,,
,,,,,,0,2.085670665,#a3d0fb,"[""-0.25"",""0""]",right_blue.png,right,,,,,,,,right,right_blue.png,up_orange.png,up,left,down,5eba75d1758c7a1cffb62685,2021-09-08_08h59.51.860,arrow_simon_vert,2021.1.2,Win32,95.73958832,,,,,,,,,,,,,,,,,,,,,right,1,1.5069,17,FALSE,FALSE,4,0,16,0,1,,,,,,,
,,,,,,1,2.338871415,#f3af84,"[""0"",""-0.25""]",down_orange.png,down,,,,,,,,left,left_blue.png,down_orange.png,down,left,down,5eba75d1758c7a1cffb62685,2021-09-08_08h59.51.860,arrow_simon_vert,2021.1.2,Win32,95.73958832,,,,,,,,,,,,,,,,,,,,,up,0,1.4956,18,FALSE,FALSE,4,1,17,2,1,,,,,,,
,,,,,,0,1.707697254,#a3d0fb,"[""0.25"",""0""]",right_blue.png,right,,,,,,,,right,right_blue.png,up_orange.png,up,right,up,5eba75d1758c7a1cffb62685,2021-09-08_08h59.51.860,arrow_simon_vert,2021.1.2,Win32,95.73958832,,,,,,,,,,,,,,,,,,,,,right,1,1.5145,19,FALSE,FALSE,4,2,18,1,1,,,,,,,
,,,,,,0,2.037611375,#f3af84,"[""0"",""0.25""]",up_orange.png,up,,,,,,,,right,right_blue.png,up_orange.png,up,right,up,5eba75d1758c7a1cffb62685,2021-09-08_08h59.51.860,arrow_simon_vert,2021.1.2,Win32,95.73958832,,,,,,,,,,,,,,,,,,,,,up,1,1.4566,20,FALSE,FALSE,4,3,19,1,1,,,,,,,
,,,,,,0,1.953168724,#a3d0fb,"[""0.25"",""0""]",right_blue.png,right,,,,,,,,right,right_blue.png,up_orange.png,up,right,up,5eba75d1758c7a1cffb62685,2021-09-08_08h59.51.860,arrow_simon_vert,2021.1.2,Win32,95.73958832,,,,,,,,,,,,,,,,,,,,,right,1,1.4543,21,FALSE,FALSE,5,0,20,1,1,,,,,,,
,,,,,,0,2.472991066,#f3af84,"[""0"",""-0.25""]",down_orange.png,down,,,,,,,,left,left_blue.png,down_orange.png,down,left,down,5eba75d1758c7a1cffb62685,2021-09-08_08h59.51.860,arrow_simon_vert,2021.1.2,Win32,95.73958832,,,,,,,,,,,,,,,,,,,,,down,1,1.5238,22,FALSE,FALSE,5,1,21,2,1,,,,,,,
,,,,,,0,2.391571298,#a3d0fb,"[""-0.25"",""0""]",right_blue.png,right,,,,,,,,right,right_blue.png,up_orange.png,up,left,down,5eba75d1758c7a1cffb62685,2021-09-08_08h59.51.860,arrow_simon_vert,2021.1.2,Win32,95.73958832,,,,,,,,,,,,,,,,,,,,,right,1,1.698,23,TRUE,FALSE,5,2,22,0,1,,,,,,,
,,,,,,0,1.904056328,#f3af84,"[""0"",""0.25""]",up_orange.png,up,,,,,,,,right,right_blue.png,up_orange.png,up,right,up,5eba75d1758c7a1cffb62685,2021-09-08_08h59.51.860,arrow_simon_vert,2021.1.2,Win32,95.73958832,,,,,,,,,,,,,,,,,,,,,up,1,1.5328,24,FALSE,FALSE,5,3,23,1,1,,,,,,,
,,,,,,1,2.383151053,#a3d0fb,"[""-0.25"",""0""]",right_blue.png,right,,,,,,,,right,right_blue.png,up_orange.png,up,left,down,5eba75d1758c7a1cffb62685,2021-09-08_08h59.51.860,arrow_simon_vert,2021.1.2,Win32,95.73958832,,,,,,,,,,,,,,,,,,,,,left,0,1.5138,25,FALSE,FALSE,6,0,24,0,1,,,,,,,
,,,,,,0,1.551228312,#f3af84,"[""0"",""-0.25""]",down_orange.png,down,,,,,,,,left,left_blue.png,down_orange.png,down,left,down,5eba75d1758c7a1cffb62685,2021-09-08_08h59.51.860,arrow_simon_vert,2021.1.2,Win32,95.73958832,,,,,,,,,,,,,,,,,,,,,down,1,1.4743,26,FALSE,FALSE,6,1,25,2,1,,,,,,,
,,,,,,0,2.095288938,#a3d0fb,"[""0.25"",""0""]",left_blue.png,left,,,,,,,,left,left_blue.png,down_orange.png,down,right,up,5eba75d1758c7a1cffb62685,2021-09-08_08h59.51.860,arrow_simon_vert,2021.1.2,Win32,95.73958832,,,,,,,,,,,,,,,,,,,,,left,1,1.5464,27,FALSE,FALSE,6,2,26,3,1,,,,,,,
,,,,,,0,2.169601003,#f3af84,"[""0"",""0.25""]",up_orange.png,up,,,,,,,,right,right_blue.png,up_orange.png,up,right,up,5eba75d1758c7a1cffb62685,2021-09-08_08h59.51.860,arrow_simon_vert,2021.1.2,Win32,95.73958832,,,,,,,,,,,,,,,,,,,,,up,1,1.5322,28,FALSE,FALSE,6,3,27,1,1,,,,,,,
,,,,,,0,2.033878951,#a3d0fb,"[""-0.25"",""0""]",left_blue.png,left,,,,,,,,left,left_blue.png,down_orange.png,down,left,down,5eba75d1758c7a1cffb62685,2021-09-08_08h59.51.860,arrow_simon_vert,2021.1.2,Win32,95.73958832,,,,,,,,,,,,,,,,,,,,,left,1,1.4959,29,FALSE,FALSE,7,0,28,2,1,,,,,,,
,,,,,,0,2.436622907,#f3af84,"[""0"",""-0.25""]",up_orange.png,up,,,,,,,,right,right_blue.png,up_orange.png,up,left,down,5eba75d1758c7a1cffb62685,2021-09-08_08h59.51.860,arrow_simon_vert,2021.1.2,Win32,95.73958832,,,,,,,,,,,,,,,,,,,,,up,1,1.4914,30,FALSE,FALSE,7,1,29,0,1,,,,,,,
,,,,,,0,1.903154708,#a3d0fb,"[""0.25"",""0""]",left_blue.png,left,,,,,,,,left,left_blue.png,down_orange.png,down,right,up,5eba75d1758c7a1cffb62685,2021-09-08_08h59.51.860,arrow_simon_vert,2021.1.2,Win32,95.73958832,,,,,,,,,,,,,,,,,,,,,left,1,1.5111,31,FALSE,FALSE,7,2,30,3,1,,,,,,,
,,,,,,0,2.009238137,#f3af84,"[""0"",""0.25""]",down_orange.png,down,,,,,,,,left,left_blue.png,down_orange.png,down,right,up,5eba75d1758c7a1cffb62685,2021-09-08_08h59.51.860,arrow_simon_vert,2021.1.2,Win32,95.73958832,,,,,,,,,,,,,,,,,,,,,down,1,1.5139,32,FALSE,FALSE,7,3,31,3,1,,,,,,,
,,,,,,0,1.507623647,#a3d0fb,"[""-0.25"",""0""]",right_blue.png,right,,,,,,,,right,right_blue.png,up_orange.png,up,left,down,5eba75d1758c7a1cffb62685,2021-09-08_08h59.51.860,arrow_simon_vert,2021.1.2,Win32,95.73958832,,,,,,,,,,,,,,,,,,,,,right,1,1.4833,33,FALSE,FALSE,8,0,32,0,1,,,,,,,
,,,,,,0,2.168287193,#f3af84,"[""0"",""0.25""]",down_orange.png,down,,,,,,,,left,left_blue.png,down_orange.png,down,right,up,5eba75d1758c7a1cffb62685,2021-09-08_08h59.51.860,arrow_simon_vert,2021.1.2,Win32,95.73958832,,,,,,,,,,,,,,,,,,,,,down,1,1.5245,34,FALSE,FALSE,8,1,33,3,1,,,,,,,
,,,,,,0,1.576939018,#a3d0fb,"[""0.25"",""0""]",left_blue.png,left,,,,,,,,left,left_blue.png,down_orange.png,down,right,up,5eba75d1758c7a1cffb62685,2021-09-08_08h59.51.860,arrow_simon_vert,2021.1.2,Win32,95.73958832,,,,,,,,,,,,,,,,,,,,,left,1,1.5321,35,FALSE,FALSE,8,2,34,3,1,,,,,,,
,,,,,,0,1.676851451,#f3af84,"[""0"",""0.25""]",up_orange.png,up,,,,,,,,right,right_blue.png,up_orange.png,up,right,up,5eba75d1758c7a1cffb62685,2021-09-08_08h59.51.860,arrow_simon_vert,2021.1.2,Win32,95.73958832,,,,,,,,,,,,,,,,,,,,,up,1,1.4964,36,FALSE,FALSE,8,3,35,1,1,,,,,,,
,,,,,,0,2.46997667,#a3d0fb,"[""-0.25"",""0""]",right_blue.png,right,,,,,,,,right,right_blue.png,up_orange.png,up,left,down,5eba75d1758c7a1cffb62685,2021-09-08_08h59.51.860,arrow_simon_vert,2021.1.2,Win32,95.73958832,,,,,,,,,,,,,,,,,,,,,right,1,1.5,37,FALSE,FALSE,9,0,36,0,1,,,,,,,
,,,,,,0,1.688087641,#f3af84,"[""0"",""0.25""]",down_orange.png,down,,,,,,,,left,left_blue.png,down_orange.png,down,right,up,5eba75d1758c7a1cffb62685,2021-09-08_08h59.51.860,arrow_simon_vert,2021.1.2,Win32,95.73958832,,,,,,,,,,,,,,,,,,,,,down,1,1.5351,38,FALSE,FALSE,9,1,37,3,1,,,,,,,
,,,,,,0,1.620177959,#a3d0fb,"[""0.25"",""0""]",left_blue.png,left,,,,,,,,left,left_blue.png,down_orange.png,down,right,up,5eba75d1758c7a1cffb62685,2021-09-08_08h59.51.860,arrow_simon_vert,2021.1.2,Win32,95.73958832,,,,,,,,,,,,,,,,,,,,,left,1,1.571,39,FALSE,FALSE,9,2,38,3,1,,,,,,,
,,,,,,0,2.251694772,#f3af84,"[""0"",""0.25""]",down_orange.png,down,,,,,,,,left,left_blue.png,down_orange.png,down,right,up,5eba75d1758c7a1cffb62685,2021-09-08_08h59.51.860,arrow_simon_vert,2021.1.2,Win32,95.73958832,,,,,,,,,,,,,,,,,,,,,down,1,1.5872,40,FALSE,FALSE,9,3,39,3,1,,,,,,,
,,,,,,1,2.461486572,#a3d0fb,"[""-0.25"",""0""]",right_blue.png,right,,,,,,,,right,right_blue.png,up_orange.png,up,left,down,5eba75d1758c7a1cffb62685,2021-09-08_08h59.51.860,arrow_simon_vert,2021.1.2,Win32,95.73958832,,,,,,,,,,,,,,,,,,,,,left,0,1.4894,41,FALSE,FALSE,10,0,40,0,1,,,,,,,
,,,,,,0,1.523581521,#f3af84,"[""0"",""0.25""]",down_orange.png,down,,,,,,,,left,left_blue.png,down_orange.png,down,right,up,5eba75d1758c7a1cffb62685,2021-09-08_08h59.51.860,arrow_simon_vert,2021.1.2,Win32,95.73958832,,,,,,,,,,,,,,,,,,,,,down,1,1.4795,42,FALSE,FALSE,10,1,41,3,1,,,,,,,
,,,,,,0,1.974834687,#a3d0fb,"[""-0.25"",""0""]",right_blue.png,right,,,,,,,,right,right_blue.png,up_orange.png,up,left,down,5eba75d1758c7a1cffb62685,2021-09-08_08h59.51.860,arrow_simon_vert,2021.1.2,Win32,95.73958832,,,,,,,,,,,,,,,,,,,,,right,1,1.4891,43,FALSE,FALSE,10,2,42,0,1,,,,,,,
,,,,,,0,1.880493665,#f3af84,"[""0"",""-0.25""]",down_orange.png,down,,,,,,,,left,left_blue.png,down_orange.png,down,left,down,5eba75d1758c7a1cffb62685,2021-09-08_08h59.51.860,arrow_simon_vert,2021.1.2,Win32,95.73958832,,,,,,,,,,,,,,,,,,,,,down,1,1.3925,44,FALSE,TRUE,10,3,43,2,1,,,,,,,
,,,,,,0,2.334443868,#a3d0fb,"[""0.25"",""0""]",right_blue.png,right,,,,,,,,right,right_blue.png,up_orange.png,up,right,up,5eba75d1758c7a1cffb62685,2021-09-08_08h59.51.860,arrow_simon_vert,2021.1.2,Win32,95.73958832,,,,,,,,,,,,,,,,,,,,,right,1,1.4933,45,FALSE,FALSE,11,0,44,1,1,,,,,,,
,,,,,,0,2.213231558,#f3af84,"[""0"",""0.25""]",down_orange.png,down,,,,,,,,left,left_blue.png,down_orange.png,down,right,up,5eba75d1758c7a1cffb62685,2021-09-08_08h59.51.860,arrow_simon_vert,2021.1.2,Win32,95.73958832,,,,,,,,,,,,,,,,,,,,,down,1,1.5713,46,FALSE,FALSE,11,1,45,3,1,,,,,,,
,,,,,,0,1.720948912,#a3d0fb,"[""-0.25"",""0""]",right_blue.png,right,,,,,,,,right,right_blue.png,up_orange.png,up,left,down,5eba75d1758c7a1cffb62685,2021-09-08_08h59.51.860,arrow_simon_vert,2021.1.2,Win32,95.73958832,,,,,,,,,,,,,,,,,,,,,right,1,1.485,47,FALSE,FALSE,11,2,46,0,1,,,,,,,
,,,,,,0,1.848986299,#f3af84,"[""0"",""-0.25""]",down_orange.png,down,,,,,,,,left,left_blue.png,down_orange.png,down,left,down,5eba75d1758c7a1cffb62685,2021-09-08_08h59.51.860,arrow_simon_vert,2021.1.2,Win32,95.73958832,,,,,,,,,,,,,,,,,,,,,down,1,1.4591,48,FALSE,FALSE,11,3,47,2,1,,,,,,,
,,,,,,0,1.692007242,#a3d0fb,"[""-0.25"",""0""]",left_blue.png,left,,,,,,,,left,left_blue.png,down_orange.png,down,left,down,5eba75d1758c7a1cffb62685,2021-09-08_08h59.51.860,arrow_simon_vert,2021.1.2,Win32,95.73958832,,,,,,,,,,,,,,,,,,,,,left,1,1.4658,49,FALSE,FALSE,12,0,48,2,1,,,,,,,
,,,,,,0,1.890022789,#f3af84,"[""0"",""0.25""]",down_orange.png,down,,,,,,,,left,left_blue.png,down_orange.png,down,right,up,5eba75d1758c7a1cffb62685,2021-09-08_08h59.51.860,arrow_simon_vert,2021.1.2,Win32,95.73958832,,,,,,,,,,,,,,,,,,,,,down,1,1.4436,50,FALSE,FALSE,12,1,49,3,1,,,,,,,
,,,,,,0,2.081291442,#a3d0fb,"[""0.25"",""0""]",left_blue.png,left,,,,,,,,left,left_blue.png,down_orange.png,down,right,up,5eba75d1758c7a1cffb62685,2021-09-08_08h59.51.860,arrow_simon_vert,2021.1.2,Win32,95.73958832,,,,,,,,,,,,,,,,,,,,,left,1,1.5718,51,FALSE,FALSE,12,2,50,3,1,,,,,,,
,,,,,,0,2.178909035,#f3af84,"[""0"",""-0.25""]",down_orange.png,down,,,,,,,,left,left_blue.png,down_orange.png,down,left,down,5eba75d1758c7a1cffb62685,2021-09-08_08h59.51.860,arrow_simon_vert,2021.1.2,Win32,95.73958832,,,,,,,,,,,,,,,,,,,,,down,1,1.5344,52,FALSE,FALSE,12,3,51,2,1,,,,,,,
,,,,,,0,2.256349183,#a3d0fb,"[""0.25"",""0""]",right_blue.png,right,,,,,,,,right,right_blue.png,up_orange.png,up,right,up,5eba75d1758c7a1cffb62685,2021-09-08_08h59.51.860,arrow_simon_vert,2021.1.2,Win32,95.73958832,,,,,,,,,,,,,,,,,,,,,right,1,1.5132,53,FALSE,FALSE,13,0,52,1,1,,,,,,,
,,,,,,0,1.860896074,#f3af84,"[""0"",""-0.25""]",up_orange.png,up,,,,,,,,right,right_blue.png,up_orange.png,up,left,down,5eba75d1758c7a1cffb62685,2021-09-08_08h59.51.860,arrow_simon_vert,2021.1.2,Win32,95.73958832,,,,,,,,,,,,,,,,,,,,,up,1,1.4344,54,FALSE,FALSE,13,1,53,0,1,,,,,,,
,,,,,,0,2.261340175,#a3d0fb,"[""0.25"",""0""]",right_blue.png,right,,,,,,,,right,right_blue.png,up_orange.png,up,right,up,5eba75d1758c7a1cffb62685,2021-09-08_08h59.51.860,arrow_simon_vert,2021.1.2,Win32,95.73958832,,,,,,,,,,,,,,,,,,,,,right,1,1.4698,55,FALSE,FALSE,13,2,54,1,1,,,,,,,
,,,,,,0,1.901061601,#f3af84,"[""0"",""0.25""]",down_orange.png,down,,,,,,,,left,left_blue.png,down_orange.png,down,right,up,5eba75d1758c7a1cffb62685,2021-09-08_08h59.51.860,arrow_simon_vert,2021.1.2,Win32,95.73958832,,,,,,,,,,,,,,,,,,,,,down,1,1.4901,56,FALSE,FALSE,13,3,55,3,1,,,,,,,
,,,,,,0,2.221917675,#a3d0fb,"[""0.25"",""0""]",right_blue.png,right,,,,,,,,right,right_blue.png,up_orange.png,up,right,up,5eba75d1758c7a1cffb62685,2021-09-08_08h59.51.860,arrow_simon_vert,2021.1.2,Win32,95.73958832,,,,,,,,,,,,,,,,,,,,,right,1,1.4968,57,FALSE,FALSE,14,0,56,1,1,,,,,,,
,,,,,,0,1.511365207,#f3af84,"[""0"",""-0.25""]",down_orange.png,down,,,,,,,,left,left_blue.png,down_orange.png,down,left,down,5eba75d1758c7a1cffb62685,2021-09-08_08h59.51.860,arrow_simon_vert,2021.1.2,Win32,95.73958832,,,,,,,,,,,,,,,,,,,,,down,1,1.5169,58,FALSE,FALSE,14,1,57,2,1,,,,,,,
,,,,,,0,1.546738434,#a3d0fb,"[""0.25"",""0""]",right_blue.png,right,,,,,,,,right,right_blue.png,up_orange.png,up,right,up,5eba75d1758c7a1cffb62685,2021-09-08_08h59.51.860,arrow_simon_vert,2021.1.2,Win32,95.73958832,,,,,,,,,,,,,,,,,,,,,right,1,1.354,59,FALSE,TRUE,14,2,58,1,1,,,,,,,
,,,,,,0,2.084856385,#f3af84,"[""0"",""-0.25""]",down_orange.png,down,,,,,,,,left,left_blue.png,down_orange.png,down,left,down,5eba75d1758c7a1cffb62685,2021-09-08_08h59.51.860,arrow_simon_vert,2021.1.2,Win32,95.73958832,,,,,,,,,,,,,,,,,,,,,down,1,1.4844,60,FALSE,FALSE,14,3,59,2,1,,,,,,,
,,,,,,,,,,,,,,,,,,,,,,,,,5eba75d1758c7a1cffb62685,2021-09-08_08h59.51.860,arrow_simon_vert,2021.1.2,Win32,95.73958832,,,,,,,,,,,,,,,,,,,,,,,,,,,,,,,,space,14.7277,2,0,2,0,1
,,,,,,0,1.724666354,#a3d0fb,"[""-0.25"",""0""]",right_blue.png,right,,,,,,,,right,right_blue.png,up_orange.png,up,left,down,5eba75d1758c7a1cffb62685,2021-09-08_08h59.51.860,arrow_simon_vert,2021.1.2,Win32,95.73958832,,,,,,,,,,,,,,,,,,,,,right,1,1.4694,1,FALSE,FALSE,0,0,0,0,1,,,,,,,
,,,,,,0,1.782841955,#f3af84,"[""0"",""0.25""]",down_orange.png,down,,,,,,,,left,left_blue.png,down_orange.png,down,right,up,5eba75d1758c7a1cffb62685,2021-09-08_08h59.51.860,arrow_simon_vert,2021.1.2,Win32,95.73958832,,,,,,,,,,,,,,,,,,,,,down,1,1.4243,2,FALSE,FALSE,0,1,1,3,1,,,,,,,
,,,,,,0,2.394233648,#a3d0fb,"[""0.25"",""0""]",left_blue.png,left,,,,,,,,left,left_blue.png,down_orange.png,down,right,up,5eba75d1758c7a1cffb62685,2021-09-08_08h59.51.860,arrow_simon_vert,2021.1.2,Win32,95.73958832,,,,,,,,,,,,,,,,,,,,,right,0,1.6615,3,TRUE,FALSE,0,2,2,3,1,,,,,,,
,,,,,,0,2.218618452,#f3af84,"[""0"",""0.25""]",down_orange.png,down,,,,,,,,left,left_blue.png,down_orange.png,down,right,up,5eba75d1758c7a1cffb62685,2021-09-08_08h59.51.860,arrow_simon_vert,2021.1.2,Win32,95.73958832,,,,,,,,,,,,,,,,,,,,,down,1,1.4865,4,FALSE,FALSE,0,3,3,3,1,,,,,,,
,,,,,,0,1.746310147,#a3d0fb,"[""0.25"",""0""]",right_blue.png,right,,,,,,,,right,right_blue.png,up_orange.png,up,right,up,5eba75d1758c7a1cffb62685,2021-09-08_08h59.51.860,arrow_simon_vert,2021.1.2,Win32,95.73958832,,,,,,,,,,,,,,,,,,,,,right,1,1.444,5,FALSE,FALSE,1,0,4,1,1,,,,,,,
,,,,,,1,2.464556978,#f3af84,"[""0"",""0.25""]",up_orange.png,up,,,,,,,,right,right_blue.png,up_orange.png,up,right,up,5eba75d1758c7a1cffb62685,2021-09-08_08h59.51.860,arrow_simon_vert,2021.1.2,Win32,95.73958832,,,,,,,,,,,,,,,,,,,,,down,0,1.4919,6,FALSE,FALSE,1,1,5,1,1,,,,,,,
,,,,,,0,1.821899489,#a3d0fb,"[""-0.25"",""0""]",left_blue.png,left,,,,,,,,left,left_blue.png,down_orange.png,down,left,down,5eba75d1758c7a1cffb62685,2021-09-08_08h59.51.860,arrow_simon_vert,2021.1.2,Win32,95.73958832,,,,,,,,,,,,,,,,,,,,,left,1,1.475,7,FALSE,FALSE,1,2,6,2,1,,,,,,,
,,,,,,0,2.221363663,#f3af84,"[""0"",""0.25""]",up_orange.png,up,,,,,,,,right,right_blue.png,up_orange.png,up,right,up,5eba75d1758c7a1cffb62685,2021-09-08_08h59.51.860,arrow_simon_vert,2021.1.2,Win32,95.73958832,,,,,,,,,,,,,,,,,,,,,up,1,1.5407,8,FALSE,FALSE,1,3,7,1,1,,,,,,,
,,,,,,0,2.194056407,#a3d0fb,"[""-0.25"",""0""]",left_blue.png,left,,,,,,,,left,left_blue.png,down_orange.png,down,left,down,5eba75d1758c7a1cffb62685,2021-09-08_08h59.51.860,arrow_simon_vert,2021.1.2,Win32,95.73958832,,,,,,,,,,,,,,,,,,,,,left,1,1.5589,9,FALSE,FALSE,2,0,8,2,1,,,,,,,
,,,,,,0,2.474361637,#f3af84,"[""0"",""0.25""]",down_orange.png,down,,,,,,,,left,left_blue.png,down_orange.png,down,right,up,5eba75d1758c7a1cffb62685,2021-09-08_08h59.51.860,arrow_simon_vert,2021.1.2,Win32,95.73958832,,,,,,,,,,,,,,,,,,,,,down,1,1.5489,10,FALSE,FALSE,2,1,9,3,1,,,,,,,
,,,,,,0,1.697682148,#a3d0fb,"[""0.25"",""0""]",left_blue.png,left,,,,,,,,left,left_blue.png,down_orange.png,down,right,up,5eba75d1758c7a1cffb62685,2021-09-08_08h59.51.860,arrow_simon_vert,2021.1.2,Win32,95.73958832,,,,,,,,,,,,,,,,,,,,,left,1,1.5217,11,FALSE,FALSE,2,2,10,3,1,,,,,,,
,,,,,,1,2.33344583,#f3af84,"[""0"",""-0.25""]",up_orange.png,up,,,,,,,,right,right_blue.png,up_orange.png,up,left,down,5eba75d1758c7a1cffb62685,2021-09-08_08h59.51.860,arrow_simon_vert,2021.1.2,Win32,95.73958832,,,,,,,,,,,,,,,,,,,,,down,0,1.496,12,FALSE,FALSE,2,3,11,0,1,,,,,,,
,,,,,,0,1.989841848,#a3d0fb,"[""-0.25"",""0""]",right_blue.png,right,,,,,,,,right,right_blue.png,up_orange.png,up,left,down,5eba75d1758c7a1cffb62685,2021-09-08_08h59.51.860,arrow_simon_vert,2021.1.2,Win32,95.73958832,,,,,,,,,,,,,,,,,,,,,right,1,1.4599,13,FALSE,FALSE,3,0,12,0,1,,,,,,,
,,,,,,0,2.069554348,#f3af84,"[""0"",""-0.25""]",up_orange.png,up,,,,,,,,right,right_blue.png,up_orange.png,up,left,down,5eba75d1758c7a1cffb62685,2021-09-08_08h59.51.860,arrow_simon_vert,2021.1.2,Win32,95.73958832,,,,,,,,,,,,,,,,,,,,,up,1,1.5058,14,FALSE,FALSE,3,1,13,0,1,,,,,,,
,,,,,,0,2.04150973,#a3d0fb,"[""-0.25"",""0""]",left_blue.png,left,,,,,,,,left,left_blue.png,down_orange.png,down,left,down,5eba75d1758c7a1cffb62685,2021-09-08_08h59.51.860,arrow_simon_vert,2021.1.2,Win32,95.73958832,,,,,,,,,,,,,,,,,,,,,left,1,1.4818,15,FALSE,FALSE,3,2,14,2,1,,,,,,,
