instruct_resp_simon.keys,instruct_resp_simon.corr,instruct_resp_simon.rt,trial_resp_simon.keys,trial_resp_simon.corr,trial_resp_simon.rt,kerr,target_onset,target_color,target_pos,target_file,target_resp,trials_train_simon.thisRepN,trials_train_simon.thisTrialN,trials_train_simon.thisN,trials_train_simon.thisIndex,trials_train_simon.ran,odd_target_pos,even_target_pos,odd_target_resp,odd_target_file,even_target_file,even_target_resp,odd_target_side,even_target_side,participant,date,expName,psychopyVersion,OS,frameRate,train_block_note_resp.keys,train_block_note_resp.rt,blocks_train.thisRepN,blocks_train.thisTrialN,blocks_train.thisN,blocks_train.thisIndex,blocks_train.ran,instruct_resp_timing.keys,instruct_resp_timing.corr,instruct_resp_timing.rt,trial_resp_timing.keys,trial_resp_timing.rt,trials_train_timing.thisRepN,trials_train_timing.thisTrialN,trials_train_timing.thisN,trials_train_timing.thisIndex,trials_train_timing.ran,instruct_resp.keys,instruct_resp.corr,instruct_resp.rt,trial_resp.keys,trial_resp.corr,trial_resp.rt,trial_num,too_slow,too_soon,trials.thisRepN,trials.thisTrialN,trials.thisN,trials.thisIndex,trials.ran,block_note_resp.keys,block_note_resp.rt,blocks.thisRepN,blocks.thisTrialN,blocks.thisN,blocks.thisIndex,blocks.ran
space,0,138.9489,right,1,1.7315,0,0.505198228,#a3d0fb,"[""0.25"",""0""]",right_blue.png,right,0,0,0,1,1,,,right,right_blue.png,up_orange.png,up,right,up,5f1dea279f4818757f07f087,2021-09-11_17h32.48.145,arrow_simon_vert,2021.1.2,Win32,59.89817311,,,,,,,,,,,,,,,,,,,,,,,,,,,,,,,,,,,,,,
,,,down,1,0.969,0,0.081302255,#f3af84,"[""0"",""-0.25""]",down_orange.png,down,0,1,1,2,1,,,left,left_blue.png,down_orange.png,down,left,down,5f1dea279f4818757f07f087,2021-09-11_17h32.48.145,arrow_simon_vert,2021.1.2,Win32,59.89817311,,,,,,,,,,,,,,,,,,,,,,,,,,,,,,,,,,,,,,
,,,left,1,0.7695,0,0.029623427,#a3d0fb,"[""-0.25"",""0""]",left_blue.png,left,0,2,2,2,1,,,left,left_blue.png,down_orange.png,down,left,down,5f1dea279f4818757f07f087,2021-09-11_17h32.48.145,arrow_simon_vert,2021.1.2,Win32,59.89817311,,,,,,,,,,,,,,,,,,,,,,,,,,,,,,,,,,,,,,
,,,down,1,1.9222,0,0.448235778,#f3af84,"[""0"",""0.25""]",down_orange.png,down,0,3,3,3,1,,,left,left_blue.png,down_orange.png,down,right,up,5f1dea279f4818757f07f087,2021-09-11_17h32.48.145,arrow_simon_vert,2021.1.2,Win32,59.89817311,,,,,,,,,,,,,,,,,,,,,,,,,,,,,,,,,,,,,,
,,,right,1,1.2095,0,0.334517693,#a3d0fb,"[""-0.25"",""0""]",right_blue.png,right,1,0,4,0,1,,,right,right_blue.png,up_orange.png,up,left,down,5f1dea279f4818757f07f087,2021-09-11_17h32.48.145,arrow_simon_vert,2021.1.2,Win32,59.89817311,,,,,,,,,,,,,,,,,,,,,,,,,,,,,,,,,,,,,,
,,,down,1,1.6218,0,0.814554839,#f3af84,"[""0"",""0.25""]",down_orange.png,down,1,1,5,3,1,,,left,left_blue.png,down_orange.png,down,right,up,5f1dea279f4818757f07f087,2021-09-11_17h32.48.145,arrow_simon_vert,2021.1.2,Win32,59.89817311,,,,,,,,,,,,,,,,,,,,,,,,,,,,,,,,,,,,,,
,,,left,1,1.6047,0,0.91435758,#a3d0fb,"[""-0.25"",""0""]",left_blue.png,left,1,2,6,2,1,,,left,left_blue.png,down_orange.png,down,left,down,5f1dea279f4818757f07f087,2021-09-11_17h32.48.145,arrow_simon_vert,2021.1.2,Win32,59.89817311,,,,,,,,,,,,,,,,,,,,,,,,,,,,,,,,,,,,,,
,,,down,1,0.8027,0,0.022673584,#f3af84,"[""0"",""0.25""]",down_orange.png,down,1,3,7,3,1,,,left,left_blue.png,down_orange.png,down,right,up,5f1dea279f4818757f07f087,2021-09-11_17h32.48.145,arrow_simon_vert,2021.1.2,Win32,59.89817311,,,,,,,,,,,,,,,,,,,,,,,,,,,,,,,,,,,,,,
,,,right,1,1.6207,0,0.830331279,#a3d0fb,"[""-0.25"",""0""]",right_blue.png,right,2,0,8,0,1,,,right,right_blue.png,up_orange.png,up,left,down,5f1dea279f4818757f07f087,2021-09-11_17h32.48.145,arrow_simon_vert,2021.1.2,Win32,59.89817311,,,,,,,,,,,,,,,,,,,,,,,,,,,,,,,,,,,,,,
,,,down,1,1.3896,0,0.763845862,#f3af84,"[""0"",""0.25""]",down_orange.png,down,2,1,9,3,1,,,left,left_blue.png,down_orange.png,down,right,up,5f1dea279f4818757f07f087,2021-09-11_17h32.48.145,arrow_simon_vert,2021.1.2,Win32,59.89817311,,,,,,,,,,,,,,,,,,,,,,,,,,,,,,,,,,,,,,
,,,left,1,1.0865,0,0.063468714,#a3d0fb,"[""0.25"",""0""]",left_blue.png,left,2,2,10,3,1,,,left,left_blue.png,down_orange.png,down,right,up,5f1dea279f4818757f07f087,2021-09-11_17h32.48.145,arrow_simon_vert,2021.1.2,Win32,59.89817311,,,,,,,,,,,,,,,,,,,,,,,,,,,,,,,,,,,,,,
,,,down,1,1.3706,0,0.735167061,#f3af84,"[""0"",""-0.25""]",down_orange.png,down,2,3,11,2,1,,,left,left_blue.png,down_orange.png,down,left,down,5f1dea279f4818757f07f087,2021-09-11_17h32.48.145,arrow_simon_vert,2021.1.2,Win32,59.89817311,,,,,,,,,,,,,,,,,,,,,,,,,,,,,,,,,,,,,,
,,,right,1,1.3709,0,0.672062414,#a3d0fb,"[""-0.25"",""0""]",right_blue.png,right,3,0,12,0,1,,,right,right_blue.png,up_orange.png,up,left,down,5f1dea279f4818757f07f087,2021-09-11_17h32.48.145,arrow_simon_vert,2021.1.2,Win32,59.89817311,,,,,,,,,,,,,,,,,,,,,,,,,,,,,,,,,,,,,,
,,,down,1,0.8711,0,0.102764106,#f3af84,"[""0"",""0.25""]",down_orange.png,down,3,1,13,3,1,,,left,left_blue.png,down_orange.png,down,right,up,5f1dea279f4818757f07f087,2021-09-11_17h32.48.145,arrow_simon_vert,2021.1.2,Win32,59.89817311,,,,,,,,,,,,,,,,,,,,,,,,,,,,,,,,,,,,,,
,,,right,1,1.438,0,0.386526312,#a3d0fb,"[""-0.25"",""0""]",right_blue.png,right,3,2,14,0,1,,,right,right_blue.png,up_orange.png,up,left,down,5f1dea279f4818757f07f087,2021-09-11_17h32.48.145,arrow_simon_vert,2021.1.2,Win32,59.89817311,,,,,,,,,,,,,,,,,,,,,,,,,,,,,,,,,,,,,,
,,,down,0,0.902,1,0.239645035,#f3af84,"[""0"",""0.25""]",up_orange.png,up,3,3,15,1,1,,,right,right_blue.png,up_orange.png,up,right,up,5f1dea279f4818757f07f087,2021-09-11_17h32.48.145,arrow_simon_vert,2021.1.2,Win32,59.89817311,,,,,,,,,,,,,,,,,,,,,,,,,,,,,,,,,,,,,,
,,,right,1,1.1024,0,0.078936847,#a3d0fb,"[""-0.25"",""0""]",right_blue.png,right,4,0,16,0,1,,,right,right_blue.png,up_orange.png,up,left,down,5f1dea279f4818757f07f087,2021-09-11_17h32.48.145,arrow_simon_vert,2021.1.2,Win32,59.89817311,,,,,,,,,,,,,,,,,,,,,,,,,,,,,,,,,,,,,,
,,,up,1,1.8213,0,0.718918147,#f3af84,"[""0"",""-0.25""]",up_orange.png,up,4,1,17,0,1,,,right,right_blue.png,up_orange.png,up,left,down,5f1dea279f4818757f07f087,2021-09-11_17h32.48.145,arrow_simon_vert,2021.1.2,Win32,59.89817311,,,,,,,,,,,,,,,,,,,,,,,,,,,,,,,,,,,,,,
,,,left,1,1.5214,0,0.636323053,#a3d0fb,"[""-0.25"",""0""]",left_blue.png,left,4,2,18,2,1,,,left,left_blue.png,down_orange.png,down,left,down,5f1dea279f4818757f07f087,2021-09-11_17h32.48.145,arrow_simon_vert,2021.1.2,Win32,59.89817311,,,,,,,,,,,,,,,,,,,,,,,,,,,,,,,,,,,,,,
,,,up,1,1.5883,0,0.770866377,#f3af84,"[""0"",""0.25""]",up_orange.png,up,4,3,19,1,1,,,right,right_blue.png,up_orange.png,up,right,up,5f1dea279f4818757f07f087,2021-09-11_17h32.48.145,arrow_simon_vert,2021.1.2,Win32,59.89817311,,,,,,,,,,,,,,,,,,,,,,,,,,,,,,,,,,,,,,
,,,right,1,1.2875,0,0.706485796,#a3d0fb,"[""-0.25"",""0""]",right_blue.png,right,5,0,20,0,1,,,right,right_blue.png,up_orange.png,up,left,down,5f1dea279f4818757f07f087,2021-09-11_17h32.48.145,arrow_simon_vert,2021.1.2,Win32,59.89817311,,,,,,,,,,,,,,,,,,,,,,,,,,,,,,,,,,,,,,
,,,down,1,1.9384,0,0.580649803,#f3af84,"[""0"",""0.25""]",down_orange.png,down,5,1,21,3,1,,,left,left_blue.png,down_orange.png,down,right,up,5f1dea279f4818757f07f087,2021-09-11_17h32.48.145,arrow_simon_vert,2021.1.2,Win32,59.89817311,,,,,,,,,,,,,,,,,,,,,,,,,,,,,,,,,,,,,,
,,,right,1,0.9364,0,0.228056174,#a3d0fb,"[""-0.25"",""0""]",right_blue.png,right,5,2,22,0,1,,,right,right_blue.png,up_orange.png,up,left,down,5f1dea279f4818757f07f087,2021-09-11_17h32.48.145,arrow_simon_vert,2021.1.2,Win32,59.89817311,,,,,,,,,,,,,,,,,,,,,,,,,,,,,,,,,,,,,,
,,,up,1,1.8896,0,0.270062858,#f3af84,"[""0"",""-0.25""]",up_orange.png,up,5,3,23,0,1,,,right,right_blue.png,up_orange.png,up,left,down,5f1dea279f4818757f07f087,2021-09-11_17h32.48.145,arrow_simon_vert,2021.1.2,Win32,59.89817311,,,,,,,,,,,,,,,,,,,,,,,,,,,,,,,,,,,,,,
,,,right,1,1.3893,0,0.837529377,#a3d0fb,"[""0.25"",""0""]",right_blue.png,right,6,0,24,1,1,,,right,right_blue.png,up_orange.png,up,right,up,5f1dea279f4818757f07f087,2021-09-11_17h32.48.145,arrow_simon_vert,2021.1.2,Win32,59.89817311,,,,,,,,,,,,,,,,,,,,,,,,,,,,,,,,,,,,,,
,,,up,1,1.36,0,0.401595596,#f3af84,"[""0"",""0.25""]",up_orange.png,up,6,1,25,1,1,,,right,right_blue.png,up_orange.png,up,right,up,5f1dea279f4818757f07f087,2021-09-11_17h32.48.145,arrow_simon_vert,2021.1.2,Win32,59.89817311,,,,,,,,,,,,,,,,,,,,,,,,,,,,,,,,,,,,,,
,,,right,1,1.4213,0,0.514918288,#a3d0fb,"[""-0.25"",""0""]",right_blue.png,right,6,2,26,0,1,,,right,right_blue.png,up_orange.png,up,left,down,5f1dea279f4818757f07f087,2021-09-11_17h32.48.145,arrow_simon_vert,2021.1.2,Win32,59.89817311,,,,,,,,,,,,,,,,,,,,,,,,,,,,,,,,,,,,,,
,,,up,1,1.205,0,0.363876376,#f3af84,"[""0"",""-0.25""]",up_orange.png,up,6,3,27,0,1,,,right,right_blue.png,up_orange.png,up,left,down,5f1dea279f4818757f07f087,2021-09-11_17h32.48.145,arrow_simon_vert,2021.1.2,Win32,59.89817311,,,,,,,,,,,,,,,,,,,,,,,,,,,,,,,,,,,,,,
,,,right,1,0.7862,0,0.150076426,#a3d0fb,"[""0.25"",""0""]",right_blue.png,right,7,0,28,1,1,,,right,right_blue.png,up_orange.png,up,right,up,5f1dea279f4818757f07f087,2021-09-11_17h32.48.145,arrow_simon_vert,2021.1.2,Win32,59.89817311,,,,,,,,,,,,,,,,,,,,,,,,,,,,,,,,,,,,,,
,,,up,1,1.1381,0,0.434298809,#f3af84,"[""0"",""0.25""]",up_orange.png,up,7,1,29,1,1,,,right,right_blue.png,up_orange.png,up,right,up,5f1dea279f4818757f07f087,2021-09-11_17h32.48.145,arrow_simon_vert,2021.1.2,Win32,59.89817311,,,,,,,,,,,,,,,,,,,,,,,,,,,,,,,,,,,,,,
,,,left,1,1.4878,0,0.602843125,#a3d0fb,"[""0.25"",""0""]",left_blue.png,left,7,2,30,3,1,,,left,left_blue.png,down_orange.png,down,right,up,5f1dea279f4818757f07f087,2021-09-11_17h32.48.145,arrow_simon_vert,2021.1.2,Win32,59.89817311,,,,,,,,,,,,,,,,,,,,,,,,,,,,,,,,,,,,,,
,,,down,1,1.876,0,0.525065528,#f3af84,"[""0"",""-0.25""]",down_orange.png,down,7,3,31,2,1,,,left,left_blue.png,down_orange.png,down,left,down,5f1dea279f4818757f07f087,2021-09-11_17h32.48.145,arrow_simon_vert,2021.1.2,Win32,59.89817311,,,,,,,,,,,,,,,,,,,,,,,,,,,,,,,,,,,,,,
,,,left,1,1.7421,0,0.955123645,#a3d0fb,"[""-0.25"",""0""]",left_blue.png,left,8,0,32,2,1,,,left,left_blue.png,down_orange.png,down,left,down,5f1dea279f4818757f07f087,2021-09-11_17h32.48.145,arrow_simon_vert,2021.1.2,Win32,59.89817311,,,,,,,,,,,,,,,,,,,,,,,,,,,,,,,,,,,,,,
,,,up,1,0.8356,0,0.12571738,#f3af84,"[""0"",""0.25""]",up_orange.png,up,8,1,33,1,1,,,right,right_blue.png,up_orange.png,up,right,up,5f1dea279f4818757f07f087,2021-09-11_17h32.48.145,arrow_simon_vert,2021.1.2,Win32,59.89817311,,,,,,,,,,,,,,,,,,,,,,,,,,,,,,,,,,,,,,
,,,left,1,1.0868,0,0.329167473,#a3d0fb,"[""0.25"",""0""]",left_blue.png,left,8,2,34,3,1,,,left,left_blue.png,down_orange.png,down,right,up,5f1dea279f4818757f07f087,2021-09-11_17h32.48.145,arrow_simon_vert,2021.1.2,Win32,59.89817311,,,,,,,,,,,,,,,,,,,,,,,,,,,,,,,,,,,,,,
,,,down,1,2.1395,0,0.591663164,#f3af84,"[""0"",""0.25""]",down_orange.png,down,8,3,35,3,1,,,left,left_blue.png,down_orange.png,down,right,up,5f1dea279f4818757f07f087,2021-09-11_17h32.48.145,arrow_simon_vert,2021.1.2,Win32,59.89817311,,,,,,,,,,,,,,,,,,,,,,,,,,,,,,,,,,,,,,
,,,right,1,0.7363,0,0.113718174,#a3d0fb,"[""0.25"",""0""]",right_blue.png,right,9,0,36,1,1,,,right,right_blue.png,up_orange.png,up,right,up,5f1dea279f4818757f07f087,2021-09-11_17h32.48.145,arrow_simon_vert,2021.1.2,Win32,59.89817311,,,,,,,,,,,,,,,,,,,,,,,,,,,,,,,,,,,,,,
,,,down,0,1.8905,1,0.589151843,#f3af84,"[""0"",""-0.25""]",up_orange.png,up,9,1,37,0,1,,,right,right_blue.png,up_orange.png,up,left,down,5f1dea279f4818757f07f087,2021-09-11_17h32.48.145,arrow_simon_vert,2021.1.2,Win32,59.89817311,,,,,,,,,,,,,,,,,,,,,,,,,,,,,,,,,,,,,,
,,,right,1,1.0075,0,0.342011696,#a3d0fb,"[""-0.25"",""0""]",right_blue.png,right,9,2,38,0,1,,,right,right_blue.png,up_orange.png,up,left,down,5f1dea279f4818757f07f087,2021-09-11_17h32.48.145,arrow_simon_vert,2021.1.2,Win32,59.89817311,,,,,,,,,,,,,,,,,,,,,,,,,,,,,,,,,,,,,,
,,,up,1,1.6223,0,0.93294673,#f3af84,"[""0"",""0.25""]",up_orange.png,up,9,3,39,1,1,,,right,right_blue.png,up_orange.png,up,right,up,5f1dea279f4818757f07f087,2021-09-11_17h32.48.145,arrow_simon_vert,2021.1.2,Win32,59.89817311,,,,,,,,,,,,,,,,,,,,,,,,,,,,,,,,,,,,,,
,,,right,1,1.0093,0,0.326414256,#a3d0fb,"[""0.25"",""0""]",right_blue.png,right,10,0,40,1,1,,,right,right_blue.png,up_orange.png,up,right,up,5f1dea279f4818757f07f087,2021-09-11_17h32.48.145,arrow_simon_vert,2021.1.2,Win32,59.89817311,,,,,,,,,,,,,,,,,,,,,,,,,,,,,,,,,,,,,,
,,,down,1,2.0405,0,0.896347055,#f3af84,"[""0"",""-0.25""]",down_orange.png,down,10,1,41,2,1,,,left,left_blue.png,down_orange.png,down,left,down,5f1dea279f4818757f07f087,2021-09-11_17h32.48.145,arrow_simon_vert,2021.1.2,Win32,59.89817311,,,,,,,,,,,,,,,,,,,,,,,,,,,,,,,,,,,,,,
,,,left,1,1.7558,0,0.882437408,#a3d0fb,"[""-0.25"",""0""]",left_blue.png,left,10,2,42,2,1,,,left,left_blue.png,down_orange.png,down,left,down,5f1dea279f4818757f07f087,2021-09-11_17h32.48.145,arrow_simon_vert,2021.1.2,Win32,59.89817311,,,,,,,,,,,,,,,,,,,,,,,,,,,,,,,,,,,,,,
,,,down,1,1.8362,0,0.866290709,#f3af84,"[""0"",""0.25""]",down_orange.png,down,10,3,43,3,1,,,left,left_blue.png,down_orange.png,down,right,up,5f1dea279f4818757f07f087,2021-09-11_17h32.48.145,arrow_simon_vert,2021.1.2,Win32,59.89817311,,,,,,,,,,,,,,,,,,,,,,,,,,,,,,,,,,,,,,
,,,left,1,1.5884,0,0.69987029,#a3d0fb,"[""0.25"",""0""]",left_blue.png,left,11,0,44,3,1,,,left,left_blue.png,down_orange.png,down,right,up,5f1dea279f4818757f07f087,2021-09-11_17h32.48.145,arrow_simon_vert,2021.1.2,Win32,59.89817311,,,,,,,,,,,,,,,,,,,,,,,,,,,,,,,,,,,,,,
,,,down,1,1.8226,0,0.947346571,#f3af84,"[""0"",""-0.25""]",down_orange.png,down,11,1,45,2,1,,,left,left_blue.png,down_orange.png,down,left,down,5f1dea279f4818757f07f087,2021-09-11_17h32.48.145,arrow_simon_vert,2021.1.2,Win32,59.89817311,,,,,,,,,,,,,,,,,,,,,,,,,,,,,,,,,,,,,,
,,,right,1,1.8054,0,0.936330289,#a3d0fb,"[""-0.25"",""0""]",right_blue.png,right,11,2,46,0,1,,,right,right_blue.png,up_orange.png,up,left,down,5f1dea279f4818757f07f087,2021-09-11_17h32.48.145,arrow_simon_vert,2021.1.2,Win32,59.89817311,,,,,,,,,,,,,,,,,,,,,,,,,,,,,,,,,,,,,,
,,,down,1,1.5438,0,0.655285901,#f3af84,"[""0"",""-0.25""]",down_orange.png,down,11,3,47,2,1,,,left,left_blue.png,down_orange.png,down,left,down,5f1dea279f4818757f07f087,2021-09-11_17h32.48.145,arrow_simon_vert,2021.1.2,Win32,59.89817311,,,,,,,,,,,,,,,,,,,,,,,,,,,,,,,,,,,,,,
,,,left,1,1.1368,0,0.390315273,#a3d0fb,"[""-0.25"",""0""]",left_blue.png,left,12,0,48,2,1,,,left,left_blue.png,down_orange.png,down,left,down,5f1dea279f4818757f07f087,2021-09-11_17h32.48.145,arrow_simon_vert,2021.1.2,Win32,59.89817311,,,,,,,,,,,,,,,,,,,,,,,,,,,,,,,,,,,,,,
,,,down,1,1.5056,0,0.700699194,#f3af84,"[""0"",""-0.25""]",down_orange.png,down,12,1,49,2,1,,,left,left_blue.png,down_orange.png,down,left,down,5f1dea279f4818757f07f087,2021-09-11_17h32.48.145,arrow_simon_vert,2021.1.2,Win32,59.89817311,,,,,,,,,,,,,,,,,,,,,,,,,,,,,,,,,,,,,,
,,,left,1,1.5549,0,0.903894117,#a3d0fb,"[""-0.25"",""0""]",left_blue.png,left,12,2,50,2,1,,,left,left_blue.png,down_orange.png,down,left,down,5f1dea279f4818757f07f087,2021-09-11_17h32.48.145,arrow_simon_vert,2021.1.2,Win32,59.89817311,,,,,,,,,,,,,,,,,,,,,,,,,,,,,,,,,,,,,,
,,,left,0,1.338,1,0.532733463,#f3af84,"[""0"",""0.25""]",up_orange.png,up,12,3,51,1,1,,,right,right_blue.png,up_orange.png,up,right,up,5f1dea279f4818757f07f087,2021-09-11_17h32.48.145,arrow_simon_vert,2021.1.2,Win32,59.89817311,,,,,,,,,,,,,,,,,,,,,,,,,,,,,,,,,,,,,,
,,,right,1,0.8371,0,0.003553938,#a3d0fb,"[""0.25"",""0""]",right_blue.png,right,13,0,52,1,1,,,right,right_blue.png,up_orange.png,up,right,up,5f1dea279f4818757f07f087,2021-09-11_17h32.48.145,arrow_simon_vert,2021.1.2,Win32,59.89817311,,,,,,,,,,,,,,,,,,,,,,,,,,,,,,,,,,,,,,
,,,down,1,1.1044,0,0.086821877,#f3af84,"[""0"",""0.25""]",down_orange.png,down,13,1,53,3,1,,,left,left_blue.png,down_orange.png,down,right,up,5f1dea279f4818757f07f087,2021-09-11_17h32.48.145,arrow_simon_vert,2021.1.2,Win32,59.89817311,,,,,,,,,,,,,,,,,,,,,,,,,,,,,,,,,,,,,,
,,,left,1,1.6387,0,0.947540678,#a3d0fb,"[""-0.25"",""0""]",left_blue.png,left,13,2,54,2,1,,,left,left_blue.png,down_orange.png,down,left,down,5f1dea279f4818757f07f087,2021-09-11_17h32.48.145,arrow_simon_vert,2021.1.2,Win32,59.89817311,,,,,,,,,,,,,,,,,,,,,,,,,,,,,,,,,,,,,,
,,,down,1,1.5714,0,0.691785066,#f3af84,"[""0"",""0.25""]",down_orange.png,down,13,3,55,3,1,,,left,left_blue.png,down_orange.png,down,right,up,5f1dea279f4818757f07f087,2021-09-11_17h32.48.145,arrow_simon_vert,2021.1.2,Win32,59.89817311,,,,,,,,,,,,,,,,,,,,,,,,,,,,,,,,,,,,,,
,,,left,1,1.3602,0,0.596391427,#a3d0fb,"[""0.25"",""0""]",left_blue.png,left,14,0,56,3,1,,,left,left_blue.png,down_orange.png,down,right,up,5f1dea279f4818757f07f087,2021-09-11_17h32.48.145,arrow_simon_vert,2021.1.2,Win32,59.89817311,,,,,,,,,,,,,,,,,,,,,,,,,,,,,,,,,,,,,,
,,,left,0,1.1214,1,0.62233401,#f3af84,"[""0"",""0.25""]",up_orange.png,up,14,1,57,1,1,,,right,right_blue.png,up_orange.png,up,right,up,5f1dea279f4818757f07f087,2021-09-11_17h32.48.145,arrow_simon_vert,2021.1.2,Win32,59.89817311,,,,,,,,,,,,,,,,,,,,,,,,,,,,,,,,,,,,,,
,,,right,1,1.5554,0,0.853877662,#a3d0fb,"[""0.25"",""0""]",right_blue.png,right,14,2,58,1,1,,,right,right_blue.png,up_orange.png,up,right,up,5f1dea279f4818757f07f087,2021-09-11_17h32.48.145,arrow_simon_vert,2021.1.2,Win32,59.89817311,,,,,,,,,,,,,,,,,,,,,,,,,,,,,,,,,,,,,,
,,,up,1,1.5214,0,0.433134678,#f3af84,"[""0"",""-0.25""]",up_orange.png,up,14,3,59,0,1,,,right,right_blue.png,up_orange.png,up,left,down,5f1dea279f4818757f07f087,2021-09-11_17h32.48.145,arrow_simon_vert,2021.1.2,Win32,59.89817311,,,,,,,,,,,,,,,,,,,,,,,,,,,,,,,,,,,,,,
,,,,,,,,,,,,,,,,,,,,,,,,,5f1dea279f4818757f07f087,2021-09-11_17h32.48.145,arrow_simon_vert,2021.1.2,Win32,59.89817311,space,54.3427,0,0,0,0,1,,,,,,,,,,,,,,,,,,,,,,,,,,,,,,,
,,,right,1,1.8302,0,0.565624744,#a3d0fb,"[""-0.25"",""0""]",right_blue.png,right,0,0,0,0,1,,,right,right_blue.png,up_orange.png,up,left,down,5f1dea279f4818757f07f087,2021-09-11_17h32.48.145,arrow_simon_vert,2021.1.2,Win32,59.89817311,,,,,,,,,,,,,,,,,,,,,,,,,,,,,,,,,,,,,,
,,,up,1,1.7737,0,0.441178214,#f3af84,"[""0"",""-0.25""]",up_orange.png,up,0,1,1,0,1,,,right,right_blue.png,up_orange.png,up,left,down,5f1dea279f4818757f07f087,2021-09-11_17h32.48.145,arrow_simon_vert,2021.1.2,Win32,59.89817311,,,,,,,,,,,,,,,,,,,,,,,,,,,,,,,,,,,,,,
,,,left,1,8.521,0,0.710978287,#a3d0fb,"[""0.25"",""0""]",left_blue.png,left,0,2,2,3,1,,,left,left_blue.png,down_orange.png,down,right,up,5f1dea279f4818757f07f087,2021-09-11_17h32.48.145,arrow_simon_vert,2021.1.2,Win32,59.89817311,,,,,,,,,,,,,,,,,,,,,,,,,,,,,,,,,,,,,,
,,,down,1,1.3202,0,0.326767448,#f3af84,"[""0"",""0.25""]",down_orange.png,down,0,3,3,3,1,,,left,left_blue.png,down_orange.png,down,right,up,5f1dea279f4818757f07f087,2021-09-11_17h32.48.145,arrow_simon_vert,2021.1.2,Win32,59.89817311,,,,,,,,,,,,,,,,,,,,,,,,,,,,,,,,,,,,,,
,,,left,1,5.5494,0,0.204681487,#a3d0fb,"[""-0.25"",""0""]",left_blue.png,left,1,0,4,2,1,,,left,left_blue.png,down_orange.png,down,left,down,5f1dea279f4818757f07f087,2021-09-11_17h32.48.145,arrow_simon_vert,2021.1.2,Win32,59.89817311,,,,,,,,,,,,,,,,,,,,,,,,,,,,,,,,,,,,,,
,,,down,1,1.4712,0,0.472063408,#f3af84,"[""0"",""0.25""]",down_orange.png,down,1,1,5,3,1,,,left,left_blue.png,down_orange.png,down,right,up,5f1dea279f4818757f07f087,2021-09-11_17h32.48.145,arrow_simon_vert,2021.1.2,Win32,59.89817311,,,,,,,,,,,,,,,,,,,,,,,,,,,,,,,,,,,,,,
,,,left,1,1.4892,0,0.746115721,#a3d0fb,"[""-0.25"",""0""]",left_blue.png,left,1,2,6,2,1,,,left,left_blue.png,down_orange.png,down,left,down,5f1dea279f4818757f07f087,2021-09-11_17h32.48.145,arrow_simon_vert,2021.1.2,Win32,59.89817311,,,,,,,,,,,,,,,,,,,,,,,,,,,,,,,,,,,,,,
,,,up,1,1.1075,0,0.260936326,#f3af84,"[""0"",""0.25""]",up_orange.png,up,1,3,7,1,1,,,right,right_blue.png,up_orange.png,up,right,up,5f1dea279f4818757f07f087,2021-09-11_17h32.48.145,arrow_simon_vert,2021.1.2,Win32,59.89817311,,,,,,,,,,,,,,,,,,,,,,,,,,,,,,,,,,,,,,
,,,left,1,1.2042,0,0.497138638,#a3d0fb,"[""-0.25"",""0""]",left_blue.png,left,2,0,8,2,1,,,left,left_blue.png,down_orange.png,down,left,down,5f1dea279f4818757f07f087,2021-09-11_17h32.48.145,arrow_simon_vert,2021.1.2,Win32,59.89817311,,,,,,,,,,,,,,,,,,,,,,,,,,,,,,,,,,,,,,
,,,down,1,1.4714,0,0.659742893,#f3af84,"[""0"",""-0.25""]",down_orange.png,down,2,1,9,2,1,,,left,left_blue.png,down_orange.png,down,left,down,5f1dea279f4818757f07f087,2021-09-11_17h32.48.145,arrow_simon_vert,2021.1.2,Win32,59.89817311,,,,,,,,,,,,,,,,,,,,,,,,,,,,,,,,,,,,,,
,,,right,1,1.7719,0,0.495101254,#a3d0fb,"[""-0.25"",""0""]",right_blue.png,right,2,2,10,0,1,,,right,right_blue.png,up_orange.png,up,left,down,5f1dea279f4818757f07f087,2021-09-11_17h32.48.145,arrow_simon_vert,2021.1.2,Win32,59.89817311,,,,,,,,,,,,,,,,,,,,,,,,,,,,,,,,,,,,,,
,,,up,1,2.1066,0,0.988258989,#f3af84,"[""0"",""-0.25""]",up_orange.png,up,2,3,11,0,1,,,right,right_blue.png,up_orange.png,up,left,down,5f1dea279f4818757f07f087,2021-09-11_17h32.48.145,arrow_simon_vert,2021.1.2,Win32,59.89817311,,,,,,,,,,,,,,,,,,,,,,,,,,,,,,,,,,,,,,
,,,right,1,1.3042,0,0.551985124,#a3d0fb,"[""0.25"",""0""]",right_blue.png,right,3,0,12,1,1,,,right,right_blue.png,up_orange.png,up,right,up,5f1dea279f4818757f07f087,2021-09-11_17h32.48.145,arrow_simon_vert,2021.1.2,Win32,59.89817311,,,,,,,,,,,,,,,,,,,,,,,,,,,,,,,,,,,,,,
,,,up,1,1.6548,0,0.484412802,#f3af84,"[""0"",""-0.25""]",up_orange.png,up,3,1,13,0,1,,,right,right_blue.png,up_orange.png,up,left,down,5f1dea279f4818757f07f087,2021-09-11_17h32.48.145,arrow_simon_vert,2021.1.2,Win32,59.89817311,,,,,,,,,,,,,,,,,,,,,,,,,,,,,,,,,,,,,,
,,,right,1,1.0208,0,0.208988369,#a3d0fb,"[""-0.25"",""0""]",right_blue.png,right,3,2,14,0,1,,,right,right_blue.png,up_orange.png,up,left,down,5f1dea279f4818757f07f087,2021-09-11_17h32.48.145,arrow_simon_vert,2021.1.2,Win32,59.89817311,,,,,,,,,,,,,,,,,,,,,,,,,,,,,,,,,,,,,,
,,,up,1,1.5376,0,0.494924251,#f3af84,"[""0"",""-0.25""]",up_orange.png,up,3,3,15,0,1,,,right,right_blue.png,up_orange.png,up,left,down,5f1dea279f4818757f07f087,2021-09-11_17h32.48.145,arrow_simon_vert,2021.1.2,Win32,59.89817311,,,,,,,,,,,,,,,,,,,,,,,,,,,,,,,,,,,,,,
,,,left,1,1.421,0,0.644362407,#a3d0fb,"[""-0.25"",""0""]",left_blue.png,left,4,0,16,2,1,,,left,left_blue.png,down_orange.png,down,left,down,5f1dea279f4818757f07f087,2021-09-11_17h32.48.145,arrow_simon_vert,2021.1.2,Win32,59.89817311,,,,,,,,,,,,,,,,,,,,,,,,,,,,,,,,,,,,,,
,,,down,1,1.3046,0,0.423719598,#f3af84,"[""0"",""0.25""]",down_orange.png,down,4,1,17,3,1,,,left,left_blue.png,down_orange.png,down,right,up,5f1dea279f4818757f07f087,2021-09-11_17h32.48.145,arrow_simon_vert,2021.1.2,Win32,59.89817311,,,,,,,,,,,,,,,,,,,,,,,,,,,,,,,,,,,,,,
,,,right,1,1.4213,0,0.724736389,#a3d0fb,"[""0.25"",""0""]",right_blue.png,right,4,2,18,1,1,,,right,right_blue.png,up_orange.png,up,right,up,5f1dea279f4818757f07f087,2021-09-11_17h32.48.145,arrow_simon_vert,2021.1.2,Win32,59.89817311,,,,,,,,,,,,,,,,,,,,,,,,,,,,,,,,,,,,,,
,,,down,1,1.5033,0,0.554435979,#f3af84,"[""0"",""0.25""]",down_orange.png,down,4,3,19,3,1,,,left,left_blue.png,down_orange.png,down,right,up,5f1dea279f4818757f07f087,2021-09-11_17h32.48.145,arrow_simon_vert,2021.1.2,Win32,59.89817311,,,,,,,,,,,,,,,,,,,,,,,,,,,,,,,,,,,,,,
,,,left,1,1.5383,0,0.010125217,#a3d0fb,"[""0.25"",""0""]",left_blue.png,left,5,0,20,3,1,,,left,left_blue.png,down_orange.png,down,right,up,5f1dea279f4818757f07f087,2021-09-11_17h32.48.145,arrow_simon_vert,2021.1.2,Win32,59.89817311,,,,,,,,,,,,,,,,,,,,,,,,,,,,,,,,,,,,,,
,,,up,1,1.6382,0,0.78791026,#f3af84,"[""0"",""0.25""]",up_orange.png,up,5,1,21,1,1,,,right,right_blue.png,up_orange.png,up,right,up,5f1dea279f4818757f07f087,2021-09-11_17h32.48.145,arrow_simon_vert,2021.1.2,Win32,59.89817311,,,,,,,,,,,,,,,,,,,,,,,,,,,,,,,,,,,,,,
,,,left,1,1.0875,0,0.216563453,#a3d0fb,"[""-0.25"",""0""]",left_blue.png,left,5,2,22,2,1,,,left,left_blue.png,down_orange.png,down,left,down,5f1dea279f4818757f07f087,2021-09-11_17h32.48.145,arrow_simon_vert,2021.1.2,Win32,59.89817311,,,,,,,,,,,,,,,,,,,,,,,,,,,,,,,,,,,,,,
,,,down,1,1.0199,0,0.294396397,#f3af84,"[""0"",""-0.25""]",down_orange.png,down,5,3,23,2,1,,,left,left_blue.png,down_orange.png,down,left,down,5f1dea279f4818757f07f087,2021-09-11_17h32.48.145,arrow_simon_vert,2021.1.2,Win32,59.89817311,,,,,,,,,,,,,,,,,,,,,,,,,,,,,,,,,,,,,,
,,,right,1,1.5526,0,0.856180957,#a3d0fb,"[""0.25"",""0""]",right_blue.png,right,6,0,24,1,1,,,right,right_blue.png,up_orange.png,up,right,up,5f1dea279f4818757f07f087,2021-09-11_17h32.48.145,arrow_simon_vert,2021.1.2,Win32,59.89817311,,,,,,,,,,,,,,,,,,,,,,,,,,,,,,,,,,,,,,
,,,up,1,1.5376,0,0.739208207,#f3af84,"[""0"",""0.25""]",up_orange.png,up,6,1,25,1,1,,,right,right_blue.png,up_orange.png,up,right,up,5f1dea279f4818757f07f087,2021-09-11_17h32.48.145,arrow_simon_vert,2021.1.2,Win32,59.89817311,,,,,,,,,,,,,,,,,,,,,,,,,,,,,,,,,,,,,,
,,,right,1,0.8028,0,0.167765471,#a3d0fb,"[""0.25"",""0""]",right_blue.png,right,6,2,26,1,1,,,right,right_blue.png,up_orange.png,up,right,up,5f1dea279f4818757f07f087,2021-09-11_17h32.48.145,arrow_simon_vert,2021.1.2,Win32,59.89817311,,,,,,,,,,,,,,,,,,,,,,,,,,,,,,,,,,,,,,
,,,down,1,0.9196,0,0.160631321,#f3af84,"[""0"",""-0.25""]",down_orange.png,down,6,3,27,2,1,,,left,left_blue.png,down_orange.png,down,left,down,5f1dea279f4818757f07f087,2021-09-11_17h32.48.145,arrow_simon_vert,2021.1.2,Win32,59.89817311,,,,,,,,,,,,,,,,,,,,,,,,,,,,,,,,,,,,,,
,,,left,1,1.2373,0,0.122526839,#a3d0fb,"[""-0.25"",""0""]",left_blue.png,left,7,0,28,2,1,,,left,left_blue.png,down_orange.png,down,left,down,5f1dea279f4818757f07f087,2021-09-11_17h32.48.145,arrow_simon_vert,2021.1.2,Win32,59.89817311,,,,,,,,,,,,,,,,,,,,,,,,,,,,,,,,,,,,,,
,,,down,1,1.1205,0,0.333436684,#f3af84,"[""0"",""-0.25""]",down_orange.png,down,7,1,29,2,1,,,left,left_blue.png,down_orange.png,down,left,down,5f1dea279f4818757f07f087,2021-09-11_17h32.48.145,arrow_simon_vert,2021.1.2,Win32,59.89817311,,,,,,,,,,,,,,,,,,,,,,,,,,,,,,,,,,,,,,
,,,left,1,1.2552,0,0.556895534,#a3d0fb,"[""-0.25"",""0""]",left_blue.png,left,7,2,30,2,1,,,left,left_blue.png,down_orange.png,down,left,down,5f1dea279f4818757f07f087,2021-09-11_17h32.48.145,arrow_simon_vert,2021.1.2,Win32,59.89817311,,,,,,,,,,,,,,,,,,,,,,,,,,,,,,,,,,,,,,
,,,down,1,1.0367,0,0.171915252,#f3af84,"[""0"",""0.25""]",down_orange.png,down,7,3,31,3,1,,,left,left_blue.png,down_orange.png,down,right,up,5f1dea279f4818757f07f087,2021-09-11_17h32.48.145,arrow_simon_vert,2021.1.2,Win32,59.89817311,,,,,,,,,,,,,,,,,,,,,,,,,,,,,,,,,,,,,,
,,,right,1,1.3102,0,0.370429865,#a3d0fb,"[""-0.25"",""0""]",right_blue.png,right,8,0,32,0,1,,,right,right_blue.png,up_orange.png,up,left,down,5f1dea279f4818757f07f087,2021-09-11_17h32.48.145,arrow_simon_vert,2021.1.2,Win32,59.89817311,,,,,,,,,,,,,,,,,,,,,,,,,,,,,,,,,,,,,,
,,,down,1,1.7552,0,0.379620921,#f3af84,"[""0"",""0.25""]",down_orange.png,down,8,1,33,3,1,,,left,left_blue.png,down_orange.png,down,right,up,5f1dea279f4818757f07f087,2021-09-11_17h32.48.145,arrow_simon_vert,2021.1.2,Win32,59.89817311,,,,,,,,,,,,,,,,,,,,,,,,,,,,,,,,,,,,,,
,,,right,1,1.0544,0,0.507986063,#a3d0fb,"[""0.25"",""0""]",right_blue.png,right,8,2,34,1,1,,,right,right_blue.png,up_orange.png,up,right,up,5f1dea279f4818757f07f087,2021-09-11_17h32.48.145,arrow_simon_vert,2021.1.2,Win32,59.89817311,,,,,,,,,,,,,,,,,,,,,,,,,,,,,,,,,,,,,,
,,,up,1,1.4732,0,0.424565076,#f3af84,"[""0"",""0.25""]",up_orange.png,up,8,3,35,1,1,,,right,right_blue.png,up_orange.png,up,right,up,5f1dea279f4818757f07f087,2021-09-11_17h32.48.145,arrow_simon_vert,2021.1.2,Win32,59.89817311,,,,,,,,,,,,,,,,,,,,,,,,,,,,,,,,,,,,,,
,,,left,1,1.689,0,0.856713494,#a3d0fb,"[""-0.25"",""0""]",left_blue.png,left,9,0,36,2,1,,,left,left_blue.png,down_orange.png,down,left,down,5f1dea279f4818757f07f087,2021-09-11_17h32.48.145,arrow_simon_vert,2021.1.2,Win32,59.89817311,,,,,,,,,,,,,,,,,,,,,,,,,,,,,,,,,,,,,,
,,,up,1,1.6891,0,0.816751277,#f3af84,"[""0"",""-0.25""]",up_orange.png,up,9,1,37,0,1,,,right,right_blue.png,up_orange.png,up,left,down,5f1dea279f4818757f07f087,2021-09-11_17h32.48.145,arrow_simon_vert,2021.1.2,Win32,59.89817311,,,,,,,,,,,,,,,,,,,,,,,,,,,,,,,,,,,,,,
,,,right,0,1.774,1,0.809573466,#a3d0fb,"[""0.25"",""0""]",left_blue.png,left,9,2,38,3,1,,,left,left_blue.png,down_orange.png,down,right,up,5f1dea279f4818757f07f087,2021-09-11_17h32.48.145,arrow_simon_vert,2021.1.2,Win32,59.89817311,,,,,,,,,,,,,,,,,,,,,,,,,,,,,,,,,,,,,,
,,,up,1,1.3878,0,0.539442125,#f3af84,"[""0"",""0.25""]",up_orange.png,up,9,3,39,1,1,,,right,right_blue.png,up_orange.png,up,right,up,5f1dea279f4818757f07f087,2021-09-11_17h32.48.145,arrow_simon_vert,2021.1.2,Win32,59.89817311,,,,,,,,,,,,,,,,,,,,,,,,,,,,,,,,,,,,,,
,,,right,1,1.2539,0,0.602566562,#a3d0fb,"[""0.25"",""0""]",right_blue.png,right,10,0,40,1,1,,,right,right_blue.png,up_orange.png,up,right,up,5f1dea279f4818757f07f087,2021-09-11_17h32.48.145,arrow_simon_vert,2021.1.2,Win32,59.89817311,,,,,,,,,,,,,,,,,,,,,,,,,,,,,,,,,,,,,,
,,,up,1,1.1419,0,0.15429483,#f3af84,"[""0"",""-0.25""]",up_orange.png,up,10,1,41,0,1,,,right,right_blue.png,up_orange.png,up,left,down,5f1dea279f4818757f07f087,2021-09-11_17h32.48.145,arrow_simon_vert,2021.1.2,Win32,59.89817311,,,,,,,,,,,,,,,,,,,,,,,,,,,,,,,,,,,,,,
,,,left,1,1.7397,0,0.742813045,#a3d0fb,"[""0.25"",""0""]",left_blue.png,left,10,2,42,3,1,,,left,left_blue.png,down_orange.png,down,right,up,5f1dea279f4818757f07f087,2021-09-11_17h32.48.145,arrow_simon_vert,2021.1.2,Win32,59.89817311,,,,,,,,,,,,,,,,,,,,,,,,,,,,,,,,,,,,,,
,,,down,1,1.6714,0,0.128016421,#f3af84,"[""0"",""0.25""]",down_orange.png,down,10,3,43,3,1,,,left,left_blue.png,down_orange.png,down,right,up,5f1dea279f4818757f07f087,2021-09-11_17h32.48.145,arrow_simon_vert,2021.1.2,Win32,59.89817311,,,,,,,,,,,,,,,,,,,,,,,,,,,,,,,,,,,,,,
,,,right,1,1.169,0,0.399899786,#a3d0fb,"[""-0.25"",""0""]",right_blue.png,right,11,0,44,0,1,,,right,right_blue.png,up_orange.png,up,left,down,5f1dea279f4818757f07f087,2021-09-11_17h32.48.145,arrow_simon_vert,2021.1.2,Win32,59.89817311,,,,,,,,,,,,,,,,,,,,,,,,,,,,,,,,,,,,,,
,,,down,1,1.8385,0,0.666448173,#f3af84,"[""0"",""0.25""]",down_orange.png,down,11,1,45,3,1,,,left,left_blue.png,down_orange.png,down,right,up,5f1dea279f4818757f07f087,2021-09-11_17h32.48.145,arrow_simon_vert,2021.1.2,Win32,59.89817311,,,,,,,,,,,,,,,,,,,,,,,,,,,,,,,,,,,,,,
,,,left,1,1.2538,0,0.320179171,#a3d0fb,"[""-0.25"",""0""]",left_blue.png,left,11,2,46,2,1,,,left,left_blue.png,down_orange.png,down,left,down,5f1dea279f4818757f07f087,2021-09-11_17h32.48.145,arrow_simon_vert,2021.1.2,Win32,59.89817311,,,,,,,,,,,,,,,,,,,,,,,,,,,,,,,,,,,,,,
,,,up,1,1.7718,0,0.754739087,#f3af84,"[""0"",""-0.25""]",up_orange.png,up,11,3,47,0,1,,,right,right_blue.png,up_orange.png,up,left,down,5f1dea279f4818757f07f087,2021-09-11_17h32.48.145,arrow_simon_vert,2021.1.2,Win32,59.89817311,,,,,,,,,,,,,,,,,,,,,,,,,,,,,,,,,,,,,,
,,,left,1,1.1043,0,0.436276146,#a3d0fb,"[""-0.25"",""0""]",left_blue.png,left,12,0,48,2,1,,,left,left_blue.png,down_orange.png,down,left,down,5f1dea279f4818757f07f087,2021-09-11_17h32.48.145,arrow_simon_vert,2021.1.2,Win32,59.89817311,,,,,,,,,,,,,,,,,,,,,,,,,,,,,,,,,,,,,,
,,,up,1,1.7566,0,0.808551299,#f3af84,"[""0"",""0.25""]",up_orange.png,up,12,1,49,1,1,,,right,right_blue.png,up_orange.png,up,right,up,5f1dea279f4818757f07f087,2021-09-11_17h32.48.145,arrow_simon_vert,2021.1.2,Win32,59.89817311,,,,,,,,,,,,,,,,,,,,,,,,,,,,,,,,,,,,,,
,,,right,1,1.2204,0,0.373332095,#a3d0fb,"[""0.25"",""0""]",right_blue.png,right,12,2,50,1,1,,,right,right_blue.png,up_orange.png,up,right,up,5f1dea279f4818757f07f087,2021-09-11_17h32.48.145,arrow_simon_vert,2021.1.2,Win32,59.89817311,,,,,,,,,,,,,,,,,,,,,,,,,,,,,,,,,,,,,,
,,,up,1,1.3206,0,0.380041265,#f3af84,"[""0"",""-0.25""]",up_orange.png,up,12,3,51,0,1,,,right,right_blue.png,up_orange.png,up,left,down,5f1dea279f4818757f07f087,2021-09-11_17h32.48.145,arrow_simon_vert,2021.1.2,Win32,59.89817311,,,,,,,,,,,,,,,,,,,,,,,,,,,,,,,,,,,,,,
,,,right,1,1.3098,0,0.597658684,#a3d0fb,"[""0.25"",""0""]",right_blue.png,right,13,0,52,1,1,,,right,right_blue.png,up_orange.png,up,right,up,5f1dea279f4818757f07f087,2021-09-11_17h32.48.145,arrow_simon_vert,2021.1.2,Win32,59.89817311,,,,,,,,,,,,,,,,,,,,,,,,,,,,,,,,,,,,,,
,,,down,1,1.405,0,0.529896099,#f3af84,"[""0"",""0.25""]",down_orange.png,down,13,1,53,3,1,,,left,left_blue.png,down_orange.png,down,right,up,5f1dea279f4818757f07f087,2021-09-11_17h32.48.145,arrow_simon_vert,2021.1.2,Win32,59.89817311,,,,,,,,,,,,,,,,,,,,,,,,,,,,,,,,,,,,,,
,,,right,1,1.0202,0,0.143585046,#a3d0fb,"[""-0.25"",""0""]",right_blue.png,right,13,2,54,0,1,,,right,right_blue.png,up_orange.png,up,left,down,5f1dea279f4818757f07f087,2021-09-11_17h32.48.145,arrow_simon_vert,2021.1.2,Win32,59.89817311,,,,,,,,,,,,,,,,,,,,,,,,,,,,,,,,,,,,,,
,,,up,1,1.0875,0,0.094782576,#f3af84,"[""0"",""-0.25""]",up_orange.png,up,13,3,55,0,1,,,right,right_blue.png,up_orange.png,up,left,down,5f1dea279f4818757f07f087,2021-09-11_17h32.48.145,arrow_simon_vert,2021.1.2,Win32,59.89817311,,,,,,,,,,,,,,,,,,,,,,,,,,,,,,,,,,,,,,
,,,right,1,1.289,0,0.585854781,#a3d0fb,"[""0.25"",""0""]",right_blue.png,right,14,0,56,1,1,,,right,right_blue.png,up_orange.png,up,right,up,5f1dea279f4818757f07f087,2021-09-11_17h32.48.145,arrow_simon_vert,2021.1.2,Win32,59.89817311,,,,,,,,,,,,,,,,,,,,,,,,,,,,,,,,,,,,,,
,,,down,1,1.7382,0,0.798196558,#f3af84,"[""0"",""0.25""]",down_orange.png,down,14,1,57,3,1,,,left,left_blue.png,down_orange.png,down,right,up,5f1dea279f4818757f07f087,2021-09-11_17h32.48.145,arrow_simon_vert,2021.1.2,Win32,59.89817311,,,,,,,,,,,,,,,,,,,,,,,,,,,,,,,,,,,,,,
,,,left,1,1.6889,0,0.682331663,#a3d0fb,"[""0.25"",""0""]",left_blue.png,left,14,2,58,3,1,,,left,left_blue.png,down_orange.png,down,right,up,5f1dea279f4818757f07f087,2021-09-11_17h32.48.145,arrow_simon_vert,2021.1.2,Win32,59.89817311,,,,,,,,,,,,,,,,,,,,,,,,,,,,,,,,,,,,,,
,,,down,1,0.8866,0,0.001195008,#f3af84,"[""0"",""-0.25""]",down_orange.png,down,14,3,59,2,1,,,left,left_blue.png,down_orange.png,down,left,down,5f1dea279f4818757f07f087,2021-09-11_17h32.48.145,arrow_simon_vert,2021.1.2,Win32,59.89817311,,,,,,,,,,,,,,,,,,,,,,,,,,,,,,,,,,,,,,
,,,,,,,,,,,,,,,,,,,,,,,,,5f1dea279f4818757f07f087,2021-09-11_17h32.48.145,arrow_simon_vert,2021.1.2,Win32,59.89817311,space,7.9252,1,0,1,0,1,,,,,,,,,,,,,,,,,,,,,,,,,,,,,,,
,,,,,,,,,,,,,,,,,,,,,,,,,5f1dea279f4818757f07f087,2021-09-11_17h32.48.145,arrow_simon_vert,2021.1.2,Win32,59.89817311,,,,,,,,space,0,76.74,right,4.0169,0,0,0,0,1,,,,,,,,,,,,,,,,,,,,,
,,,,,,,,,,,,,,,,,,,,,,,,,5f1dea279f4818757f07f087,2021-09-11_17h32.48.145,arrow_simon_vert,2021.1.2,Win32,59.89817311,,,,,,,,,,,down,4.211,1,0,1,0,1,,,,,,,,,,,,,,,,,,,,,
,,,,,,,,,,,,,,,,,,,,,,,,,5f1dea279f4818757f07f087,2021-09-11_17h32.48.145,arrow_simon_vert,2021.1.2,Win32,59.89817311,,,,,,,,,,,left,3.1412,2,0,2,0,1,,,,,,,,,,,,,,,,,,,,,
,,,,,,,,,,,,,,,,,,,,,,,,,5f1dea279f4818757f07f087,2021-09-11_17h32.48.145,arrow_simon_vert,2021.1.2,Win32,59.89817311,,,,,,,,,,,up,2.8575,3,0,3,0,1,,,,,,,,,,,,,,,,,,,,,
,,,,,,,,,,,,,,,,,,,,,,,,,5f1dea279f4818757f07f087,2021-09-11_17h32.48.145,arrow_simon_vert,2021.1.2,Win32,59.89817311,,,,,,,,,,,up,2.1717,4,0,4,0,1,,,,,,,,,,,,,,,,,,,,,
,,,,,,,,,,,,,,,,,,,,,,,,,5f1dea279f4818757f07f087,2021-09-11_17h32.48.145,arrow_simon_vert,2021.1.2,Win32,59.89817311,,,,,,,,,,,left,3.1584,5,0,5,0,1,,,,,,,,,,,,,,,,,,,,,
,,,,,,,,,,,,,,,,,,,,,,,,,5f1dea279f4818757f07f087,2021-09-11_17h32.48.145,arrow_simon_vert,2021.1.2,Win32,59.89817311,,,,,,,,,,,down,3.0919,6,0,6,0,1,,,,,,,,,,,,,,,,,,,,,
,,,,,,,,,,,,,,,,,,,,,,,,,5f1dea279f4818757f07f087,2021-09-11_17h32.48.145,arrow_simon_vert,2021.1.2,Win32,59.89817311,,,,,,,,,,,left,3.1585,7,0,7,0,1,,,,,,,,,,,,,,,,,,,,,
,,,,,,,,,,,,,,,,,,,,,,,,,5f1dea279f4818757f07f087,2021-09-11_17h32.48.145,arrow_simon_vert,2021.1.2,Win32,59.89817311,,,,,,,,,,,right,3.1103,8,0,8,0,1,,,,,,,,,,,,,,,,,,,,,
,,,,,,,,,,,,,,,,,,,,,,,,,5f1dea279f4818757f07f087,2021-09-11_17h32.48.145,arrow_simon_vert,2021.1.2,Win32,59.89817311,,,,,,,,,,,left,2.9077,9,0,9,0,1,,,,,,,,,,,,,,,,,,,,,
,,,,,,,,,,,,,,,,,,,,,,,,,5f1dea279f4818757f07f087,2021-09-11_17h32.48.145,arrow_simon_vert,2021.1.2,Win32,59.89817311,,,,,,,,,,,up,3.1769,10,0,10,0,1,,,,,,,,,,,,,,,,,,,,,
,,,,,,,,,,,,,,,,,,,,,,,,,5f1dea279f4818757f07f087,2021-09-11_17h32.48.145,arrow_simon_vert,2021.1.2,Win32,59.89817311,,,,,,,,,,,up,2.5293,11,0,11,0,1,,,,,,,,,,,,,,,,,,,,,
,,,,,,,,,,,,,,,,,,,,,,,,,5f1dea279f4818757f07f087,2021-09-11_17h32.48.145,arrow_simon_vert,2021.1.2,Win32,59.89817311,,,,,,,,,,,up,2.5406,12,0,12,0,1,,,,,,,,,,,,,,,,,,,,,
,,,,,,,,,,,,,,,,,,,,,,,,,5f1dea279f4818757f07f087,2021-09-11_17h32.48.145,arrow_simon_vert,2021.1.2,Win32,59.89817311,,,,,,,,,,,down,2.1222,13,0,13,0,1,,,,,,,,,,,,,,,,,,,,,
,,,,,,,,,,,,,,,,,,,,,,,,,5f1dea279f4818757f07f087,2021-09-11_17h32.48.145,arrow_simon_vert,2021.1.2,Win32,59.89817311,,,,,,,,,,,down,2.4726,14,0,14,0,1,,,,,,,,,,,,,,,,,,,,,
,,,,,,,,,,,,,,,,,,,,,,,,,5f1dea279f4818757f07f087,2021-09-11_17h32.48.145,arrow_simon_vert,2021.1.2,Win32,59.89817311,,,,,,,,,,,up,2.7303,15,0,15,0,1,,,,,,,,,,,,,,,,,,,,,
,,,,,,,,,,,,,,,,,,,,,,,,,5f1dea279f4818757f07f087,2021-09-11_17h32.48.145,arrow_simon_vert,2021.1.2,Win32,59.89817311,,,,,,,,,,,right,2.9472,16,0,16,0,1,,,,,,,,,,,,,,,,,,,,,
,,,,,,,,,,,,,,,,,,,,,,,,,5f1dea279f4818757f07f087,2021-09-11_17h32.48.145,arrow_simon_vert,2021.1.2,Win32,59.89817311,,,,,,,,,,,left,2.3395,17,0,17,0,1,,,,,,,,,,,,,,,,,,,,,
,,,,,,,,,,,,,,,,,,,,,,,,,5f1dea279f4818757f07f087,2021-09-11_17h32.48.145,arrow_simon_vert,2021.1.2,Win32,59.89817311,,,,,,,,,,,left,2.8416,18,0,18,0,1,,,,,,,,,,,,,,,,,,,,,
,,,,,,,,,,,,,,,,,,,,,,,,,5f1dea279f4818757f07f087,2021-09-11_17h32.48.145,arrow_simon_vert,2021.1.2,Win32,59.89817311,,,,,,,,,,,left,2.8408,19,0,19,0,1,,,,,,,,,,,,,,,,,,,,,
,,,,,,,,,,,,,,,,,,,,,,,,,5f1dea279f4818757f07f087,2021-09-11_17h32.48.145,arrow_simon_vert,2021.1.2,Win32,59.89817311,,,,,,,,,,,right,2.6365,20,0,20,0,1,,,,,,,,,,,,,,,,,,,,,
,,,,,,,,,,,,,,,,,,,,,,,,,5f1dea279f4818757f07f087,2021-09-11_17h32.48.145,arrow_simon_vert,2021.1.2,Win32,59.89817311,,,,,,,,,,,left,2.7239,21,0,21,0,1,,,,,,,,,,,,,,,,,,,,,
,,,,,,,,,,,,,,,,,,,,,,,,,5f1dea279f4818757f07f087,2021-09-11_17h32.48.145,arrow_simon_vert,2021.1.2,Win32,59.89817311,,,,,,,,,,,down,2.876,22,0,22,0,1,,,,,,,,,,,,,,,,,,,,,
,,,,,,,,,,,,,,,,,,,,,,,,,5f1dea279f4818757f07f087,2021-09-11_17h32.48.145,arrow_simon_vert,2021.1.2,Win32,59.89817311,,,,,,,,,,,left,2.9579,23,0,23,0,1,,,,,,,,,,,,,,,,,,,,,
,,,,,,,,,,,,,,,,,,,,,,,,,5f1dea279f4818757f07f087,2021-09-11_17h32.48.145,arrow_simon_vert,2021.1.2,Win32,59.89817311,,,,,,,,,,,right,2.3555,24,0,24,0,1,,,,,,,,,,,,,,,,,,,,,
,,,,,,,,,,,,,,,,,,,,,,,,,5f1dea279f4818757f07f087,2021-09-11_17h32.48.145,arrow_simon_vert,2021.1.2,Win32,59.89817311,,,,,,,,,,,down,1.8544,25,0,25,0,1,,,,,,,,,,,,,,,,,,,,,
,,,,,,,,,,,,,,,,,,,,,,,,,5f1dea279f4818757f07f087,2021-09-11_17h32.48.145,arrow_simon_vert,2021.1.2,Win32,59.89817311,,,,,,,,,,,up,2.7408,26,0,26,0,1,,,,,,,,,,,,,,,,,,,,,
,,,,,,,,,,,,,,,,,,,,,,,,,5f1dea279f4818757f07f087,2021-09-11_17h32.48.145,arrow_simon_vert,2021.1.2,Win32,59.89817311,,,,,,,,,,,left,2.1723,27,0,27,0,1,,,,,,,,,,,,,,,,,,,,,
,,,,,,,,,,,,,,,,,,,,,,,,,5f1dea279f4818757f07f087,2021-09-11_17h32.48.145,arrow_simon_vert,2021.1.2,Win32,59.89817311,,,,,,,,,,,right,1.7379,28,0,28,0,1,,,,,,,,,,,,,,,,,,,,,
,,,,,,,,,,,,,,,,,,,,,,,,,5f1dea279f4818757f07f087,2021-09-11_17h32.48.145,arrow_simon_vert,2021.1.2,Win32,59.89817311,,,,,,,,,,,down,2.607,29,0,29,0,1,,,,,,,,,,,,,,,,,,,,,
,,,,,,,,,,,,,,,,,,,,,,,,,5f1dea279f4818757f07f087,2021-09-11_17h32.48.145,arrow_simon_vert,2021.1.2,Win32,59.89817311,,,,,,,,,,,up,2.8243,30,0,30,0,1,,,,,,,,,,,,,,,,,,,,,
,,,,,,,,,,,,,,,,,,,,,,,,,5f1dea279f4818757f07f087,2021-09-11_17h32.48.145,arrow_simon_vert,2021.1.2,Win32,59.89817311,,,,,,,,,,,right,3.1088,31,0,31,0,1,,,,,,,,,,,,,,,,,,,,,
,,,,,,,,,,,,,,,,,,,,,,,,,5f1dea279f4818757f07f087,2021-09-11_17h32.48.145,arrow_simon_vert,2021.1.2,Win32,59.89817311,,,,,,,,,,,left,2.1888,32,0,32,0,1,,,,,,,,,,,,,,,,,,,,,
,,,,,,,,,,,,,,,,,,,,,,,,,5f1dea279f4818757f07f087,2021-09-11_17h32.48.145,arrow_simon_vert,2021.1.2,Win32,59.89817311,,,,,,,,,,,down,2.9416,33,0,33,0,1,,,,,,,,,,,,,,,,,,,,,
,,,,,,,,,,,,,,,,,,,,,,,,,5f1dea279f4818757f07f087,2021-09-11_17h32.48.145,arrow_simon_vert,2021.1.2,Win32,59.89817311,,,,,,,,,,,up,2.9581,34,0,34,0,1,,,,,,,,,,,,,,,,,,,,,
,,,,,,,,,,,,,,,,,,,,,,,,,5f1dea279f4818757f07f087,2021-09-11_17h32.48.145,arrow_simon_vert,2021.1.2,Win32,59.89817311,,,,,,,,,,,down,3.1092,35,0,35,0,1,,,,,,,,,,,,,,,,,,,,,
,,,,,,,,,,,,,,,,,,,,,,,,,5f1dea279f4818757f07f087,2021-09-11_17h32.48.145,arrow_simon_vert,2021.1.2,Win32,59.89817311,,,,,,,,,,,up,2.8745,36,0,36,0,1,,,,,,,,,,,,,,,,,,,,,
,,,,,,,,,,,,,,,,,,,,,,,,,5f1dea279f4818757f07f087,2021-09-11_17h32.48.145,arrow_simon_vert,2021.1.2,Win32,59.89817311,,,,,,,,,,,down,3.0423,37,0,37,0,1,,,,,,,,,,,,,,,,,,,,,
,,,,,,,,,,,,,,,,,,,,,,,,,5f1dea279f4818757f07f087,2021-09-11_17h32.48.145,arrow_simon_vert,2021.1.2,Win32,59.89817311,,,,,,,,,,,right,2.9411,38,0,38,0,1,,,,,,,,,,,,,,,,,,,,,
,,,,,,,,,,,,,,,,,,,,,,,,,5f1dea279f4818757f07f087,2021-09-11_17h32.48.145,arrow_simon_vert,2021.1.2,Win32,59.89817311,,,,,,,,,,,left,2.7073,39,0,39,0,1,,,,,,,,,,,,,,,,,,,,,
,,,,,,,,,,,,,,,,,,,,,,,,,5f1dea279f4818757f07f087,2021-09-11_17h32.48.145,arrow_simon_vert,2021.1.2,Win32,59.89817311,,,,,,,,,,,right,2.1224,40,0,40,0,1,,,,,,,,,,,,,,,,,,,,,
,,,,,,,,,,,,,,,,,,,,,,,,,5f1dea279f4818757f07f087,2021-09-11_17h32.48.145,arrow_simon_vert,2021.1.2,Win32,59.89817311,,,,,,,,,,,down,2.1061,41,0,41,0,1,,,,,,,,,,,,,,,,,,,,,
,,,,,,,,,,,,,,,,,,,,,,,,,5f1dea279f4818757f07f087,2021-09-11_17h32.48.145,arrow_simon_vert,2021.1.2,Win32,59.89817311,,,,,,,,,,,up,2.2891,42,0,42,0,1,,,,,,,,,,,,,,,,,,,,,
,,,,,,,,,,,,,,,,,,,,,,,,,5f1dea279f4818757f07f087,2021-09-11_17h32.48.145,arrow_simon_vert,2021.1.2,Win32,59.89817311,,,,,,,,,,,right,2.7261,43,0,43,0,1,,,,,,,,,,,,,,,,,,,,,
,,,,,,,,,,,,,,,,,,,,,,,,,5f1dea279f4818757f07f087,2021-09-11_17h32.48.145,arrow_simon_vert,2021.1.2,Win32,59.89817311,,,,,,,,,,,right,2.5414,44,0,44,0,1,,,,,,,,,,,,,,,,,,,,,
,,,,,,,,,,,,,,,,,,,,,,,,,5f1dea279f4818757f07f087,2021-09-11_17h32.48.145,arrow_simon_vert,2021.1.2,Win32,59.89817311,,,,,,,,,,,right,2.8916,45,0,45,0,1,,,,,,,,,,,,,,,,,,,,,
,,,,,,,,,,,,,,,,,,,,,,,,,5f1dea279f4818757f07f087,2021-09-11_17h32.48.145,arrow_simon_vert,2021.1.2,Win32,59.89817311,,,,,,,,,,,right,2.641,46,0,46,0,1,,,,,,,,,,,,,,,,,,,,,
,,,,,,,,,,,,,,,,,,,,,,,,,5f1dea279f4818757f07f087,2021-09-11_17h32.48.145,arrow_simon_vert,2021.1.2,Win32,59.89817311,,,,,,,,,,,left,2.9911,47,0,47,0,1,,,,,,,,,,,,,,,,,,,,,
,,,,,,,,,,,,,,,,,,,,,,,,,5f1dea279f4818757f07f087,2021-09-11_17h32.48.145,arrow_simon_vert,2021.1.2,Win32,59.89817311,,,,,,,,,,,right,2.9079,48,0,48,0,1,,,,,,,,,,,,,,,,,,,,,
,,,,,,,,,,,,,,,,,,,,,,,,,5f1dea279f4818757f07f087,2021-09-11_17h32.48.145,arrow_simon_vert,2021.1.2,Win32,59.89817311,,,,,,,,,,,down,2.7634,49,0,49,0,1,,,,,,,,,,,,,,,,,,,,,
,,,,,,,,,,,,,,,,,,,,,,,,,5f1dea279f4818757f07f087,2021-09-11_17h32.48.145,arrow_simon_vert,2021.1.2,Win32,59.89817311,,,,,,,,,,,left,2.7747,50,0,50,0,1,,,,,,,,,,,,,,,,,,,,,
,,,,,,,,,,,,,,,,,,,,,,,,,5f1dea279f4818757f07f087,2021-09-11_17h32.48.145,arrow_simon_vert,2021.1.2,Win32,59.89817311,,,,,,,,,,,right,2.8584,51,0,51,0,1,,,,,,,,,,,,,,,,,,,,,
,,,,,,,,,,,,,,,,,,,,,,,,,5f1dea279f4818757f07f087,2021-09-11_17h32.48.145,arrow_simon_vert,2021.1.2,Win32,59.89817311,,,,,,,,,,,left,2.9314,52,0,52,0,1,,,,,,,,,,,,,,,,,,,,,
,,,,,,,,,,,,,,,,,,,,,,,,,5f1dea279f4818757f07f087,2021-09-11_17h32.48.145,arrow_simon_vert,2021.1.2,Win32,59.89817311,,,,,,,,,,,left,2.2121,53,0,53,0,1,,,,,,,,,,,,,,,,,,,,,
,,,,,,,,,,,,,,,,,,,,,,,,,5f1dea279f4818757f07f087,2021-09-11_17h32.48.145,arrow_simon_vert,2021.1.2,Win32,59.89817311,,,,,,,,,,,right,2.7582,54,0,54,0,1,,,,,,,,,,,,,,,,,,,,,
,,,,,,,,,,,,,,,,,,,,,,,,,5f1dea279f4818757f07f087,2021-09-11_17h32.48.145,arrow_simon_vert,2021.1.2,Win32,59.89817311,,,,,,,,,,,right,2.4568,55,0,55,0,1,,,,,,,,,,,,,,,,,,,,,
,,,,,,,,,,,,,,,,,,,,,,,,,5f1dea279f4818757f07f087,2021-09-11_17h32.48.145,arrow_simon_vert,2021.1.2,Win32,59.89817311,,,,,,,,,,,left,2.9076,56,0,56,0,1,,,,,,,,,,,,,,,,,,,,,
,,,,,,,,,,,,,,,,,,,,,,,,,5f1dea279f4818757f07f087,2021-09-11_17h32.48.145,arrow_simon_vert,2021.1.2,Win32,59.89817311,,,,,,,,,,,up,2.8917,57,0,57,0,1,,,,,,,,,,,,,,,,,,,,,
,,,,,,,,,,,,,,,,,,,,,,,,,5f1dea279f4818757f07f087,2021-09-11_17h32.48.145,arrow_simon_vert,2021.1.2,Win32,59.89817311,,,,,,,,,,,right,2.2053,58,0,58,0,1,,,,,,,,,,,,,,,,,,,,,
,,,,,,,,,,,,,,,,,,,,,,,,,5f1dea279f4818757f07f087,2021-09-11_17h32.48.145,arrow_simon_vert,2021.1.2,Win32,59.89817311,,,,,,,,,,,down,2.8625,59,0,59,0,1,,,,,,,,,,,,,,,,,,,,,
,,,,,,0,1.898538464,#a3d0fb,"[""-0.25"",""0""]",right_blue.png,right,,,,,,,,right,right_blue.png,up_orange.png,up,left,down,5f1dea279f4818757f07f087,2021-09-11_17h32.48.145,arrow_simon_vert,2021.1.2,Win32,59.89817311,,,,,,,,,,,,,,,,,,space,0,96.4645,right,1,2.0274,1,TRUE,FALSE,0,0,0,0,1,,,,,,,
,,,,,,0,1.94514241,#f3af84,"[""0"",""0.25""]",down_orange.png,down,,,,,,,,left,left_blue.png,down_orange.png,down,right,up,5f1dea279f4818757f07f087,2021-09-11_17h32.48.145,arrow_simon_vert,2021.1.2,Win32,59.89817311,,,,,,,,,,,,,,,,,,,,,down,1,1.8392,2,TRUE,FALSE,0,1,1,3,1,,,,,,,
,,,,,,0,1.591688556,#a3d0fb,"[""-0.25"",""0""]",right_blue.png,right,,,,,,,,right,right_blue.png,up_orange.png,up,left,down,5f1dea279f4818757f07f087,2021-09-11_17h32.48.145,arrow_simon_vert,2021.1.2,Win32,59.89817311,,,,,,,,,,,,,,,,,,,,,right,1,1.1711,3,FALSE,TRUE,0,2,2,0,1,,,,,,,
,,,,,,0,1.926117592,#f3af84,"[""0"",""0.25""]",up_orange.png,up,,,,,,,,right,right_blue.png,up_orange.png,up,right,up,5f1dea279f4818757f07f087,2021-09-11_17h32.48.145,arrow_simon_vert,2021.1.2,Win32,59.89817311,,,,,,,,,,,,,,,,,,,,,up,1,1.6061,4,TRUE,FALSE,0,3,3,1,1,,,,,,,
,,,,,,0,1.522500433,#a3d0fb,"[""0.25"",""0""]",left_blue.png,left,,,,,,,,left,left_blue.png,down_orange.png,down,right,up,5f1dea279f4818757f07f087,2021-09-11_17h32.48.145,arrow_simon_vert,2021.1.2,Win32,59.89817311,,,,,,,,,,,,,,,,,,,,,left,1,1.2888,5,FALSE,TRUE,1,0,4,3,1,,,,,,,
,,,,,,0,1.787920936,#f3af84,"[""0"",""0.25""]",up_orange.png,up,,,,,,,,right,right_blue.png,up_orange.png,up,right,up,5f1dea279f4818757f07f087,2021-09-11_17h32.48.145,arrow_simon_vert,2021.1.2,Win32,59.89817311,,,,,,,,,,,,,,,,,,,,,up,1,1.4052,6,FALSE,FALSE,1,1,5,1,1,,,,,,,
,,,,,,0,2.320419096,#a3d0fb,"[""-0.25"",""0""]",left_blue.png,left,,,,,,,,left,left_blue.png,down_orange.png,down,left,down,5f1dea279f4818757f07f087,2021-09-11_17h32.48.145,arrow_simon_vert,2021.1.2,Win32,59.89817311,,,,,,,,,,,,,,,,,,,,,left,1,1.9562,7,TRUE,FALSE,1,2,6,2,1,,,,,,,
,,,,,,0,2.013547316,#f3af84,"[""0"",""0.25""]",up_orange.png,up,,,,,,,,right,right_blue.png,up_orange.png,up,right,up,5f1dea279f4818757f07f087,2021-09-11_17h32.48.145,arrow_simon_vert,2021.1.2,Win32,59.89817311,,,,,,,,,,,,,,,,,,,,,up,1,1.6551,8,TRUE,FALSE,1,3,7,1,1,,,,,,,
,,,,,,0,1.881611205,#a3d0fb,"[""0.25"",""0""]",right_blue.png,right,,,,,,,,right,right_blue.png,up_orange.png,up,right,up,5f1dea279f4818757f07f087,2021-09-11_17h32.48.145,arrow_simon_vert,2021.1.2,Win32,59.89817311,,,,,,,,,,,,,,,,,,,,,right,1,1.2879,9,FALSE,TRUE,2,0,8,1,1,,,,,,,
,,,,,,0,1.660581406,#f3af84,"[""0"",""0.25""]",up_orange.png,up,,,,,,,,right,right_blue.png,up_orange.png,up,right,up,5f1dea279f4818757f07f087,2021-09-11_17h32.48.145,arrow_simon_vert,2021.1.2,Win32,59.89817311,,,,,,,,,,,,,,,,,,,,,up,1,1.4381,10,FALSE,FALSE,2,1,9,1,1,,,,,,,
,,,,,,0,2.457757141,#a3d0fb,"[""-0.25"",""0""]",right_blue.png,right,,,,,,,,right,right_blue.png,up_orange.png,up,left,down,5f1dea279f4818757f07f087,2021-09-11_17h32.48.145,arrow_simon_vert,2021.1.2,Win32,59.89817311,,,,,,,,,,,,,,,,,,,,,right,1,2.3237,11,TRUE,FALSE,2,2,10,0,1,,,,,,,
,,,,,,0,2.223264896,#f3af84,"[""0"",""-0.25""]",down_orange.png,down,,,,,,,,left,left_blue.png,down_orange.png,down,left,down,5f1dea279f4818757f07f087,2021-09-11_17h32.48.145,arrow_simon_vert,2021.1.2,Win32,59.89817311,,,,,,,,,,,,,,,,,,,,,down,1,1.8069,12,TRUE,FALSE,2,3,11,2,1,,,,,,,
,,,,,,0,2.214051234,#a3d0fb,"[""-0.25"",""0""]",left_blue.png,left,,,,,,,,left,left_blue.png,down_orange.png,down,left,down,5f1dea279f4818757f07f087,2021-09-11_17h32.48.145,arrow_simon_vert,2021.1.2,Win32,59.89817311,,,,,,,,,,,,,,,,,,,,,left,1,1.6234,13,TRUE,FALSE,3,0,12,2,1,,,,,,,
,,,,,,0,2.269902168,#f3af84,"[""0"",""0.25""]",down_orange.png,down,,,,,,,,left,left_blue.png,down_orange.png,down,right,up,5f1dea279f4818757f07f087,2021-09-11_17h32.48.145,arrow_simon_vert,2021.1.2,Win32,59.89817311,,,,,,,,,,,,,,,,,,,,,up,0,1.8228,14,TRUE,FALSE,3,1,13,3,1,,,,,,,
,,,,,,0,2.329845615,#a3d0fb,"[""0.25"",""0""]",left_blue.png,left,,,,,,,,left,left_blue.png,down_orange.png,down,right,up,5f1dea279f4818757f07f087,2021-09-11_17h32.48.145,arrow_simon_vert,2021.1.2,Win32,59.89817311,,,,,,,,,,,,,,,,,,,,,right,0,1.7392,15,TRUE,FALSE,3,2,14,3,1,,,,,,,
,,,,,,0,2.087855779,#f3af84,"[""0"",""0.25""]",down_orange.png,down,,,,,,,,left,left_blue.png,down_orange.png,down,right,up,5f1dea279f4818757f07f087,2021-09-11_17h32.48.145,arrow_simon_vert,2021.1.2,Win32,59.89817311,,,,,,,,,,,,,,,,,,,,,down,1,1.8392,16,TRUE,FALSE,3,3,15,3,1,,,,,,,
,,,,,,0,1.626822555,#a3d0fb,"[""-0.25"",""0""]",right_blue.png,right,,,,,,,,right,right_blue.png,up_orange.png,up,left,down,5f1dea279f4818757f07f087,2021-09-11_17h32.48.145,arrow_simon_vert,2021.1.2,Win32,59.89817311,,,,,,,,,,,,,,,,,,,,,right,1,1.1939,17,FALSE,TRUE,4,0,16,0,1,,,,,,,
,,,,,,0,2.125095466,#f3af84,"[""0"",""0.25""]",up_orange.png,up,,,,,,,,right,right_blue.png,up_orange.png,up,right,up,5f1dea279f4818757f07f087,2021-09-11_17h32.48.145,arrow_simon_vert,2021.1.2,Win32,59.89817311,,,,,,,,,,,,,,,,,,,,,up,1,1.7335,18,TRUE,FALSE,4,1,17,1,1,,,,,,,
,,,,,,0,1.837932023,#a3d0fb,"[""0.25"",""0""]",right_blue.png,right,,,,,,,,right,right_blue.png,up_orange.png,up,right,up,5f1dea279f4818757f07f087,2021-09-11_17h32.48.145,arrow_simon_vert,2021.1.2,Win32,59.89817311,,,,,,,,,,,,,,,,,,,,,right,1,1.4215,19,FALSE,FALSE,4,2,18,1,1,,,,,,,
,,,,,,0,1.582438426,#f3af84,"[""0"",""-0.25""]",down_orange.png,down,,,,,,,,left,left_blue.png,down_orange.png,down,left,down,5f1dea279f4818757f07f087,2021-09-11_17h32.48.145,arrow_simon_vert,2021.1.2,Win32,59.89817311,,,,,,,,,,,,,,,,,,,,,down,1,1.0729,20,FALSE,TRUE,4,3,19,2,1,,,,,,,
,,,,,,0,2.225336326,#a3d0fb,"[""-0.25"",""0""]",left_blue.png,left,,,,,,,,left,left_blue.png,down_orange.png,down,left,down,5f1dea279f4818757f07f087,2021-09-11_17h32.48.145,arrow_simon_vert,2021.1.2,Win32,59.89817311,,,,,,,,,,,,,,,,,,,,,left,1,1.6559,21,TRUE,FALSE,5,0,20,2,1,,,,,,,
,,,,,,0,2.076764386,#f3af84,"[""0"",""-0.25""]",down_orange.png,down,,,,,,,,left,left_blue.png,down_orange.png,down,left,down,5f1dea279f4818757f07f087,2021-09-11_17h32.48.145,arrow_simon_vert,2021.1.2,Win32,59.89817311,,,,,,,,,,,,,,,,,,,,,down,1,1.5217,22,FALSE,FALSE,5,1,21,2,1,,,,,,,
,,,,,,0,1.867322877,#a3d0fb,"[""0.25"",""0""]",right_blue.png,right,,,,,,,,right,right_blue.png,up_orange.png,up,right,up,5f1dea279f4818757f07f087,2021-09-11_17h32.48.145,arrow_simon_vert,2021.1.2,Win32,59.89817311,,,,,,,,,,,,,,,,,,,,,right,1,1.3546,23,FALSE,TRUE,5,2,22,1,1,,,,,,,
,,,,,,0,1.753614311,#f3af84,"[""0"",""-0.25""]",down_orange.png,down,,,,,,,,left,left_blue.png,down_orange.png,down,left,down,5f1dea279f4818757f07f087,2021-09-11_17h32.48.145,arrow_simon_vert,2021.1.2,Win32,59.89817311,,,,,,,,,,,,,,,,,,,,,down,1,1.1708,24,FALSE,TRUE,5,3,23,2,1,,,,,,,
,,,,,,0,2.440984475,#a3d0fb,"[""-0.25"",""0""]",left_blue.png,left,,,,,,,,left,left_blue.png,down_orange.png,down,left,down,5f1dea279f4818757f07f087,2021-09-11_17h32.48.145,arrow_simon_vert,2021.1.2,Win32,59.89817311,,,,,,,,,,,,,,,,,,,,,left,1,1.8787,25,TRUE,FALSE,6,0,24,2,1,,,,,,,
,,,,,,0,2.373575296,#f3af84,"[""0"",""0.25""]",down_orange.png,down,,,,,,,,left,left_blue.png,down_orange.png,down,right,up,5f1dea279f4818757f07f087,2021-09-11_17h32.48.145,arrow_simon_vert,2021.1.2,Win32,59.89817311,,,,,,,,,,,,,,,,,,,,,up,0,1.7054,26,TRUE,FALSE,6,1,25,3,1,,,,,,,
,,,,,,0,2.406008174,#a3d0fb,"[""0.25"",""0""]",left_blue.png,left,,,,,,,,left,left_blue.png,down_orange.png,down,right,up,5f1dea279f4818757f07f087,2021-09-11_17h32.48.145,arrow_simon_vert,2021.1.2,Win32,59.89817311,,,,,,,,,,,,,,,,,,,,,right,0,2.2125,27,TRUE,FALSE,6,2,26,3,1,,,,,,,
,,,,,,0,1.677263599,#f3af84,"[""0"",""0.25""]",up_orange.png,up,,,,,,,,right,right_blue.png,up_orange.png,up,right,up,5f1dea279f4818757f07f087,2021-09-11_17h32.48.145,arrow_simon_vert,2021.1.2,Win32,59.89817311,,,,,,,,,,,,,,,,,,,,,up,1,1.2916,28,FALSE,TRUE,6,3,27,1,1,,,,,,,
,,,,,,0,2.240973291,#a3d0fb,"[""0.25"",""0""]",right_blue.png,right,,,,,,,,right,right_blue.png,up_orange.png,up,right,up,5f1dea279f4818757f07f087,2021-09-11_17h32.48.145,arrow_simon_vert,2021.1.2,Win32,59.89817311,,,,,,,,,,,,,,,,,,,,,right,1,1.7565,29,TRUE,FALSE,7,0,28,1,1,,,,,,,
,,,,,,0,1.919435078,#f3af84,"[""0"",""-0.25""]",down_orange.png,down,,,,,,,,left,left_blue.png,down_orange.png,down,left,down,5f1dea279f4818757f07f087,2021-09-11_17h32.48.145,arrow_simon_vert,2021.1.2,Win32,59.89817311,,,,,,,,,,,,,,,,,,,,,down,1,1.4553,30,FALSE,FALSE,7,1,29,2,1,,,,,,,
,,,,,,0,1.719868103,#a3d0fb,"[""-0.25"",""0""]",left_blue.png,left,,,,,,,,left,left_blue.png,down_orange.png,down,left,down,5f1dea279f4818757f07f087,2021-09-11_17h32.48.145,arrow_simon_vert,2021.1.2,Win32,59.89817311,,,,,,,,,,,,,,,,,,,,,left,1,1.1885,31,FALSE,TRUE,7,2,30,2,1,,,,,,,
,,,,,,0,2.33997556,#f3af84,"[""0"",""-0.25""]",down_orange.png,down,,,,,,,,left,left_blue.png,down_orange.png,down,left,down,5f1dea279f4818757f07f087,2021-09-11_17h32.48.145,arrow_simon_vert,2021.1.2,Win32,59.89817311,,,,,,,,,,,,,,,,,,,,,down,1,1.8475,32,TRUE,FALSE,7,3,31,2,1,,,,,,,
,,,,,,0,1.926097763,#a3d0fb,"[""-0.25"",""0""]",left_blue.png,left,,,,,,,,left,left_blue.png,down_orange.png,down,left,down,5f1dea279f4818757f07f087,2021-09-11_17h32.48.145,arrow_simon_vert,2021.1.2,Win32,59.89817311,,,,,,,,,,,,,,,,,,,,,left,1,1.2894,33,FALSE,TRUE,8,0,32,2,1,,,,,,,
,,,,,,0,2.317664462,#f3af84,"[""0"",""-0.25""]",up_orange.png,up,,,,,,,,right,right_blue.png,up_orange.png,up,left,down,5f1dea279f4818757f07f087,2021-09-11_17h32.48.145,arrow_simon_vert,2021.1.2,Win32,59.89817311,,,,,,,,,,,,,,,,,,,,,down,0,1.8239,34,TRUE,FALSE,8,1,33,0,1,,,,,,,
,,,,,,0,1.838445555,#a3d0fb,"[""-0.25"",""0""]",right_blue.png,right,,,,,,,,right,right_blue.png,up_orange.png,up,left,down,5f1dea279f4818757f07f087,2021-09-11_17h32.48.145,arrow_simon_vert,2021.1.2,Win32,59.89817311,,,,,,,,,,,,,,,,,,,,,right,1,1.4732,35,FALSE,FALSE,8,2,34,0,1,,,,,,,
,,,,,,0,1.865003901,#f3af84,"[""0"",""-0.25""]",up_orange.png,up,,,,,,,,right,right_blue.png,up_orange.png,up,left,down,5f1dea279f4818757f07f087,2021-09-11_17h32.48.145,arrow_simon_vert,2021.1.2,Win32,59.89817311,,,,,,,,,,,,,,,,,,,,,up,1,1.6406,36,TRUE,FALSE,8,3,35,0,1,,,,,,,
,,,,,,0,2.037397442,#a3d0fb,"[""-0.25"",""0""]",right_blue.png,right,,,,,,,,right,right_blue.png,up_orange.png,up,left,down,5f1dea279f4818757f07f087,2021-09-11_17h32.48.145,arrow_simon_vert,2021.1.2,Win32,59.89817311,,,,,,,,,,,,,,,,,,,,,right,1,1.6401,37,TRUE,FALSE,9,0,36,0,1,,,,,,,
,,,,,,0,1.774819711,#f3af84,"[""0"",""0.25""]",up_orange.png,up,,,,,,,,right,right_blue.png,up_orange.png,up,right,up,5f1dea279f4818757f07f087,2021-09-11_17h32.48.145,arrow_simon_vert,2021.1.2,Win32,59.89817311,,,,,,,,,,,,,,,,,,,,,up,1,1.3569,38,FALSE,TRUE,9,1,37,1,1,,,,,,,
,,,,,,0,1.764456167,#a3d0fb,"[""0.25"",""0""]",left_blue.png,left,,,,,,,,left,left_blue.png,down_orange.png,down,right,up,5f1dea279f4818757f07f087,2021-09-11_17h32.48.145,arrow_simon_vert,2021.1.2,Win32,59.89817311,,,,,,,,,,,,,,,,,,,,,left,1,1.3778,39,FALSE,TRUE,9,2,38,3,1,,,,,,,
,,,,,,0,1.723238417,#f3af84,"[""0"",""-0.25""]",down_orange.png,down,,,,,,,,left,left_blue.png,down_orange.png,down,left,down,5f1dea279f4818757f07f087,2021-09-11_17h32.48.145,arrow_simon_vert,2021.1.2,Win32,59.89817311,,,,,,,,,,,,,,,,,,,,,down,1,1.3546,40,FALSE,TRUE,9,3,39,2,1,,,,,,,
,,,,,,0,1.659552083,#a3d0fb,"[""0.25"",""0""]",left_blue.png,left,,,,,,,,left,left_blue.png,down_orange.png,down,right,up,5f1dea279f4818757f07f087,2021-09-11_17h32.48.145,arrow_simon_vert,2021.1.2,Win32,59.89817311,,,,,,,,,,,,,,,,,,,,,right,0,1.1047,41,FALSE,TRUE,10,0,40,3,1,,,,,,,
,,,,,,0,1.746707429,#f3af84,"[""0"",""0.25""]",up_orange.png,up,,,,,,,,right,right_blue.png,up_orange.png,up,right,up,5f1dea279f4818757f07f087,2021-09-11_17h32.48.145,arrow_simon_vert,2021.1.2,Win32,59.89817311,,,,,,,,,,,,,,,,,,,,,up,1,1.3132,42,FALSE,TRUE,10,1,41,1,1,,,,,,,
,,,,,,0,1.563500306,#a3d0fb,"[""-0.25"",""0""]",left_blue.png,left,,,,,,,,left,left_blue.png,down_orange.png,down,left,down,5f1dea279f4818757f07f087,2021-09-11_17h32.48.145,arrow_simon_vert,2021.1.2,Win32,59.89817311,,,,,,,,,,,,,,,,,,,,,left,1,1.1055,43,FALSE,TRUE,10,2,42,2,1,,,,,,,
,,,,,,0,2.111660224,#f3af84,"[""0"",""-0.25""]",up_orange.png,up,,,,,,,,right,right_blue.png,up_orange.png,up,left,down,5f1dea279f4818757f07f087,2021-09-11_17h32.48.145,arrow_simon_vert,2021.1.2,Win32,59.89817311,,,,,,,,,,,,,,,,,,,,,down,0,1.8565,44,TRUE,FALSE,10,3,43,0,1,,,,,,,
,,,,,,0,1.838623456,#a3d0fb,"[""-0.25"",""0""]",right_blue.png,right,,,,,,,,right,right_blue.png,up_orange.png,up,left,down,5f1dea279f4818757f07f087,2021-09-11_17h32.48.145,arrow_simon_vert,2021.1.2,Win32,59.89817311,,,,,,,,,,,,,,,,,,,,,left,0,1.2885,45,FALSE,TRUE,11,0,44,0,1,,,,,,,
,,,,,,0,1.91803972,#f3af84,"[""0"",""-0.25""]",up_orange.png,up,,,,,,,,right,right_blue.png,up_orange.png,up,left,down,5f1dea279f4818757f07f087,2021-09-11_17h32.48.145,arrow_simon_vert,2021.1.2,Win32,59.89817311,,,,,,,,,,,,,,,,,,,,,up,1,2.2742,46,TRUE,FALSE,11,1,45,0,1,,,,,,,
,,,,,,0,2.301608221,#a3d0fb,"[""-0.25"",""0""]",right_blue.png,right,,,,,,,,right,right_blue.png,up_orange.png,up,left,down,5f1dea279f4818757f07f087,2021-09-11_17h32.48.145,arrow_simon_vert,2021.1.2,Win32,59.89817311,,,,,,,,,,,,,,,,,,,,,right,1,1.9231,47,TRUE,FALSE,11,2,46,0,1,,,,,,,
,,,,,,0,1.870514101,#f3af84,"[""0"",""-0.25""]",up_orange.png,up,,,,,,,,right,right_blue.png,up_orange.png,up,left,down,5f1dea279f4818757f07f087,2021-09-11_17h32.48.145,arrow_simon_vert,2021.1.2,Win32,59.89817311,,,,,,,,,,,,,,,,,,,,,down,0,1.3884,48,FALSE,TRUE,11,3,47,0,1,,,,,,,
,,,,,,0,1.634201683,#a3d0fb,"[""0.25"",""0""]",right_blue.png,right,,,,,,,,right,right_blue.png,up_orange.png,up,right,up,5f1dea279f4818757f07f087,2021-09-11_17h32.48.145,arrow_simon_vert,2021.1.2,Win32,59.89817311,,,,,,,,,,,,,,,,,,,,,right,1,1.2677,49,FALSE,TRUE,12,0,48,1,1,,,,,,,
,,,,,,0,1.514026884,#f3af84,"[""0"",""0.25""]",down_orange.png,down,,,,,,,,left,left_blue.png,down_orange.png,down,right,up,5f1dea279f4818757f07f087,2021-09-11_17h32.48.145,arrow_simon_vert,2021.1.2,Win32,59.89817311,,,,,,,,,,,,,,,,,,,,,down,1,1.3386,50,FALSE,TRUE,12,1,49,3,1,,,,,,,
,,,,,,0,2.153395308,#a3d0fb,"[""-0.25"",""0""]",right_blue.png,right,,,,,,,,right,right_blue.png,up_orange.png,up,left,down,5f1dea279f4818757f07f087,2021-09-11_17h32.48.145,arrow_simon_vert,2021.1.2,Win32,59.89817311,,,,,,,,,,,,,,,,,,,,,right,1,1.8281,51,TRUE,FALSE,12,2,50,0,1,,,,,,,
,,,,,,0,1.830833428,#f3af84,"[""0"",""-0.25""]",up_orange.png,up,,,,,,,,right,right_blue.png,up_orange.png,up,left,down,5f1dea279f4818757f07f087,2021-09-11_17h32.48.145,arrow_simon_vert,2021.1.2,Win32,59.89817311,,,,,,,,,,,,,,,,,,,,,up,1,1.7892,52,TRUE,FALSE,12,3,51,0,1,,,,,,,
,,,,,,0,1.792690052,#a3d0fb,"[""0.25"",""0""]",left_blue.png,left,,,,,,,,left,left_blue.png,down_orange.png,down,right,up,5f1dea279f4818757f07f087,2021-09-11_17h32.48.145,arrow_simon_vert,2021.1.2,Win32,59.89817311,,,,,,,,,,,,,,,,,,,,,left,1,1.5611,53,FALSE,FALSE,13,0,52,3,1,,,,,,,
,,,,,,0,1.510857812,#f3af84,"[""0"",""0.25""]",up_orange.png,up,,,,,,,,right,right_blue.png,up_orange.png,up,right,up,5f1dea279f4818757f07f087,2021-09-11_17h32.48.145,arrow_simon_vert,2021.1.2,Win32,59.89817311,,,,,,,,,,,,,,,,,,,,,up,1,1.4718,54,FALSE,FALSE,13,1,53,1,1,,,,,,,
,,,,,,0,2.398704146,#a3d0fb,"[""0.25"",""0""]",right_blue.png,right,,,,,,,,right,right_blue.png,up_orange.png,up,right,up,5f1dea279f4818757f07f087,2021-09-11_17h32.48.145,arrow_simon_vert,2021.1.2,Win32,59.89817311,,,,,,,,,,,,,,,,,,,,,right,1,1.8982,55,TRUE,FALSE,13,2,54,1,1,,,,,,,
,,,,,,0,1.708348372,#f3af84,"[""0"",""0.25""]",down_orange.png,down,,,,,,,,left,left_blue.png,down_orange.png,down,right,up,5f1dea279f4818757f07f087,2021-09-11_17h32.48.145,arrow_simon_vert,2021.1.2,Win32,59.89817311,,,,,,,,,,,,,,,,,,,,,down,1,1.6226,56,TRUE,FALSE,13,3,55,3,1,,,,,,,
,,,,,,0,2.282254915,#a3d0fb,"[""-0.25"",""0""]",left_blue.png,left,,,,,,,,left,left_blue.png,down_orange.png,down,left,down,5f1dea279f4818757f07f087,2021-09-11_17h32.48.145,arrow_simon_vert,2021.1.2,Win32,59.89817311,,,,,,,,,,,,,,,,,,,,,left,1,1.8225,57,TRUE,FALSE,14,0,56,2,1,,,,,,,
,,,,,,0,2.16400632,#f3af84,"[""0"",""0.25""]",down_orange.png,down,,,,,,,,left,left_blue.png,down_orange.png,down,right,up,5f1dea279f4818757f07f087,2021-09-11_17h32.48.145,arrow_simon_vert,2021.1.2,Win32,59.89817311,,,,,,,,,,,,,,,,,,,,,down,1,1.9398,58,TRUE,FALSE,14,1,57,3,1,,,,,,,
,,,,,,0,1.512910065,#a3d0fb,"[""0.25"",""0""]",left_blue.png,left,,,,,,,,left,left_blue.png,down_orange.png,down,right,up,5f1dea279f4818757f07f087,2021-09-11_17h32.48.145,arrow_simon_vert,2021.1.2,Win32,59.89817311,,,,,,,,,,,,,,,,,,,,,left,1,1.2713,59,FALSE,TRUE,14,2,58,3,1,,,,,,,
,,,,,,0,2.188405937,#f3af84,"[""0"",""0.25""]",down_orange.png,down,,,,,,,,left,left_blue.png,down_orange.png,down,right,up,5f1dea279f4818757f07f087,2021-09-11_17h32.48.145,arrow_simon_vert,2021.1.2,Win32,59.89817311,,,,,,,,,,,,,,,,,,,,,down,1,2.0733,60,TRUE,FALSE,14,3,59,3,1,,,,,,,
,,,,,,,,,,,,,,,,,,,,,,,,,5f1dea279f4818757f07f087,2021-09-11_17h32.48.145,arrow_simon_vert,2021.1.2,Win32,59.89817311,,,,,,,,,,,,,,,,,,,,,,,,,,,,,,,,space,47.8332,0,0,0,0,1
,,,,,,0,1.921019291,#a3d0fb,"[""0.25"",""0""]",right_blue.png,right,,,,,,,,right,right_blue.png,up_orange.png,up,right,up,5f1dea279f4818757f07f087,2021-09-11_17h32.48.145,arrow_simon_vert,2021.1.2,Win32,59.89817311,,,,,,,,,,,,,,,,,,,,,right,1,1.6404,1,TRUE,FALSE,0,0,0,1,1,,,,,,,
,,,,,,0,1.977490614,#f3af84,"[""0"",""-0.25""]",up_orange.png,up,,,,,,,,right,right_blue.png,up_orange.png,up,left,down,5f1dea279f4818757f07f087,2021-09-11_17h32.48.145,arrow_simon_vert,2021.1.2,Win32,59.89817311,,,,,,,,,,,,,,,,,,,,,up,1,2.055,2,TRUE,FALSE,0,1,1,0,1,,,,,,,
,,,,,,0,2.031462389,#a3d0fb,"[""-0.25"",""0""]",right_blue.png,right,,,,,,,,right,right_blue.png,up_orange.png,up,left,down,5f1dea279f4818757f07f087,2021-09-11_17h32.48.145,arrow_simon_vert,2021.1.2,Win32,59.89817311,,,,,,,,,,,,,,,,,,,,,right,1,1.6054,3,TRUE,FALSE,0,2,2,0,1,,,,,,,
,,,,,,0,1.685550439,#f3af84,"[""0"",""0.25""]",up_orange.png,up,,,,,,,,right,right_blue.png,up_orange.png,up,right,up,5f1dea279f4818757f07f087,2021-09-11_17h32.48.145,arrow_simon_vert,2021.1.2,Win32,59.89817311,,,,,,,,,,,,,,,,,,,,,up,1,1.4221,4,FALSE,FALSE,0,3,3,1,1,,,,,,,
,,,,,,0,1.750863113,#a3d0fb,"[""0.25"",""0""]",right_blue.png,right,,,,,,,,right,right_blue.png,up_orange.png,up,right,up,5f1dea279f4818757f07f087,2021-09-11_17h32.48.145,arrow_simon_vert,2021.1.2,Win32,59.89817311,,,,,,,,,,,,,,,,,,,,,right,1,1.1563,5,FALSE,TRUE,1,0,4,1,1,,,,,,,
,,,,,,0,2.081603944,#f3af84,"[""0"",""-0.25""]",up_orange.png,up,,,,,,,,right,right_blue.png,up_orange.png,up,left,down,5f1dea279f4818757f07f087,2021-09-11_17h32.48.145,arrow_simon_vert,2021.1.2,Win32,59.89817311,,,,,,,,,,,,,,,,,,,,,down,0,1.673,6,TRUE,FALSE,1,1,5,0,1,,,,,,,
,,,,,,0,1.939917829,#a3d0fb,"[""-0.25"",""0""]",right_blue.png,right,,,,,,,,right,right_blue.png,up_orange.png,up,left,down,5f1dea279f4818757f07f087,2021-09-11_17h32.48.145,arrow_simon_vert,2021.1.2,Win32,59.89817311,,,,,,,,,,,,,,,,,,,,,right,1,1.4888,7,FALSE,FALSE,1,2,6,0,1,,,,,,,
,,,,,,0,1.590462371,#f3af84,"[""0"",""-0.25""]",up_orange.png,up,,,,,,,,right,right_blue.png,up_orange.png,up,left,down,5f1dea279f4818757f07f087,2021-09-11_17h32.48.145,arrow_simon_vert,2021.1.2,Win32,59.89817311,,,,,,,,,,,,,,,,,,,,,up,1,1.3572,8,FALSE,TRUE,1,3,7,0,1,,,,,,,
,,,,,,0,1.820594054,#a3d0fb,"[""0.25"",""0""]",left_blue.png,left,,,,,,,,left,left_blue.png,down_orange.png,down,right,up,5f1dea279f4818757f07f087,2021-09-11_17h32.48.145,arrow_simon_vert,2021.1.2,Win32,59.89817311,,,,,,,,,,,,,,,,,,,,,left,1,1.7889,9,TRUE,FALSE,2,0,8,3,1,,,,,,,
,,,,,,0,1.500019421,#f3af84,"[""0"",""-0.25""]",down_orange.png,down,,,,,,,,left,left_blue.png,down_orange.png,down,left,down,5f1dea279f4818757f07f087,2021-09-11_17h32.48.145,arrow_simon_vert,2021.1.2,Win32,59.89817311,,,,,,,,,,,,,,,,,,,,,down,1,1.1707,10,FALSE,TRUE,2,1,9,2,1,,,,,,,
,,,,,,0,1.65786423,#a3d0fb,"[""-0.25"",""0""]",right_blue.png,right,,,,,,,,right,right_blue.png,up_orange.png,up,left,down,5f1dea279f4818757f07f087,2021-09-11_17h32.48.145,arrow_simon_vert,2021.1.2,Win32,59.89817311,,,,,,,,,,,,,,,,,,,,,right,1,1.2217,11,FALSE,TRUE,2,2,10,0,1,,,,,,,
,,,,,,0,2.320049516,#f3af84,"[""0"",""-0.25""]",up_orange.png,up,,,,,,,,right,right_blue.png,up_orange.png,up,left,down,5f1dea279f4818757f07f087,2021-09-11_17h32.48.145,arrow_simon_vert,2021.1.2,Win32,59.89817311,,,,,,,,,,,,,,,,,,,,,up,1,1.9398,12,TRUE,FALSE,2,3,11,0,1,,,,,,,
,,,,,,0,1.624305132,#a3d0fb,"[""-0.25"",""0""]",left_blue.png,left,,,,,,,,left,left_blue.png,down_orange.png,down,left,down,5f1dea279f4818757f07f087,2021-09-11_17h32.48.145,arrow_simon_vert,2021.1.2,Win32,59.89817311,,,,,,,,,,,,,,,,,,,,,left,1,1.3716,13,FALSE,TRUE,3,0,12,2,1,,,,,,,
,,,,,,0,1.609452377,#f3af84,"[""0"",""0.25""]",down_orange.png,down,,,,,,,,left,left_blue.png,down_orange.png,down,right,up,5f1dea279f4818757f07f087,2021-09-11_17h32.48.145,arrow_simon_vert,2021.1.2,Win32,59.89817311,,,,,,,,,,,,,,,,,,,,,down,1,1.4056,14,FALSE,FALSE,3,1,13,3,1,,,,,,,
,,,,,,0,1.970861948,#a3d0fb,"[""-0.25"",""0""]",right_blue.png,right,,,,,,,,right,right_blue.png,up_orange.png,up,left,down,5f1dea279f4818757f07f087,2021-09-11_17h32.48.145,arrow_simon_vert,2021.1.2,Win32,59.89817311,,,,,,,,,,,,,,,,,,,,,right,1,2.3734,15,TRUE,FALSE,3,2,14,0,1,,,,,,,
,,,,,,0,2.443272225,#f3af84,"[""0"",""0.25""]",down_orange.png,down,,,,,,,,left,left_blue.png,down_orange.png,down,right,up,5f1dea279f4818757f07f087,2021-09-11_17h32.48.145,arrow_simon_vert,2021.1.2,Win32,59.89817311,,,,,,,,,,,,,,,,,,,,,down,1,2.2068,16,TRUE,FALSE,3,3,15,3,1,,,,,,,
,,,,,,0,1.727305126,#a3d0fb,"[""-0.25"",""0""]",left_blue.png,left,,,,,,,,left,left_blue.png,down_orange.png,down,left,down,5f1dea279f4818757f07f087,2021-09-11_17h32.48.145,arrow_simon_vert,2021.1.2,Win32,59.89817311,,,,,,,,,,,,,,,,,,,,,left,1,1.2877,17,FALSE,TRUE,4,0,16,2,1,,,,,,,
,,,,,,0,2.429441589,#f3af84,"[""0"",""-0.25""]",up_orange.png,up,,,,,,,,right,right_blue.png,up_orange.png,up,left,down,5f1dea279f4818757f07f087,2021-09-11_17h32.48.145,arrow_simon_vert,2021.1.2,Win32,59.89817311,,,,,,,,,,,,,,,,,,,,,up,1,3.3604,18,TRUE,FALSE,4,1,17,0,1,,,,,,,
,,,,,,0,2.150751611,#a3d0fb,"[""0.25"",""0""]",right_blue.png,right,,,,,,,,right,right_blue.png,up_orange.png,up,right,up,5f1dea279f4818757f07f087,2021-09-11_17h32.48.145,arrow_simon_vert,2021.1.2,Win32,59.89817311,,,,,,,,,,,,,,,,,,,,,right,1,1.6888,19,TRUE,FALSE,4,2,18,1,1,,,,,,,
,,,,,,0,1.916032212,#f3af84,"[""0"",""-0.25""]",down_orange.png,down,,,,,,,,left,left_blue.png,down_orange.png,down,left,down,5f1dea279f4818757f07f087,2021-09-11_17h32.48.145,arrow_simon_vert,2021.1.2,Win32,59.89817311,,,,,,,,,,,,,,,,,,,,,down,1,1.6722,20,TRUE,FALSE,4,3,19,2,1,,,,,,,
,,,,,,0,1.92040596,#a3d0fb,"[""0.25"",""0""]",left_blue.png,left,,,,,,,,left,left_blue.png,down_orange.png,down,right,up,5f1dea279f4818757f07f087,2021-09-11_17h32.48.145,arrow_simon_vert,2021.1.2,Win32,59.89817311,,,,,,,,,,,,,,,,,,,,,left,1,1.6557,21,TRUE,FALSE,5,0,20,3,1,,,,,,,
,,,,,,0,2.143691195,#f3af84,"[""0"",""0.25""]",down_orange.png,down,,,,,,,,left,left_blue.png,down_orange.png,down,right,up,5f1dea279f4818757f07f087,2021-09-11_17h32.48.145,arrow_simon_vert,2021.1.2,Win32,59.89817311,,,,,,,,,,,,,,,,,,,,,down,1,1.8891,22,TRUE,FALSE,5,1,21,3,1,,,,,,,
,,,,,,0,2.141832786,#a3d0fb,"[""0.25"",""0""]",right_blue.png,right,,,,,,,,right,right_blue.png,up_orange.png,up,right,up,5f1dea279f4818757f07f087,2021-09-11_17h32.48.145,arrow_simon_vert,2021.1.2,Win32,59.89817311,,,,,,,,,,,,,,,,,,,,,right,1,1.6784,23,TRUE,FALSE,5,2,22,1,1,,,,,,,
,,,,,,0,2.287082112,#f3af84,"[""0"",""-0.25""]",down_orange.png,down,,,,,,,,left,left_blue.png,down_orange.png,down,left,down,5f1dea279f4818757f07f087,2021-09-11_17h32.48.145,arrow_simon_vert,2021.1.2,Win32,59.89817311,,,,,,,,,,,,,,,,,,,,,down,1,1.7388,24,TRUE,FALSE,5,3,23,2,1,,,,,,,
,,,,,,0,2.385106237,#a3d0fb,"[""0.25"",""0""]",right_blue.png,right,,,,,,,,right,right_blue.png,up_orange.png,up,right,up,5f1dea279f4818757f07f087,2021-09-11_17h32.48.145,arrow_simon_vert,2021.1.2,Win32,59.89817311,,,,,,,,,,,,,,,,,,,,,right,1,1.8391,25,TRUE,FALSE,6,0,24,1,1,,,,,,,
,,,,,,0,2.494676496,#f3af84,"[""0"",""0.25""]",down_orange.png,down,,,,,,,,left,left_blue.png,down_orange.png,down,right,up,5f1dea279f4818757f07f087,2021-09-11_17h32.48.145,arrow_simon_vert,2021.1.2,Win32,59.89817311,,,,,,,,,,,,,,,,,,,,,down,1,2.1565,26,TRUE,FALSE,6,1,25,3,1,,,,,,,
,,,,,,0,2.384708968,#a3d0fb,"[""-0.25"",""0""]",left_blue.png,left,,,,,,,,left,left_blue.png,down_orange.png,down,left,down,5f1dea279f4818757f07f087,2021-09-11_17h32.48.145,arrow_simon_vert,2021.1.2,Win32,59.89817311,,,,,,,,,,,,,,,,,,,,,left,1,2.107,27,TRUE,FALSE,6,2,26,2,1,,,,,,,
,,,,,,0,1.795797256,#f3af84,"[""0"",""0.25""]",down_orange.png,down,,,,,,,,left,left_blue.png,down_orange.png,down,right,up,5f1dea279f4818757f07f087,2021-09-11_17h32.48.145,arrow_simon_vert,2021.1.2,Win32,59.89817311,,,,,,,,,,,,,,,,,,,,,down,1,1.6449,28,TRUE,FALSE,6,3,27,3,1,,,,,,,
,,,,,,0,2.008479479,#a3d0fb,"[""-0.25"",""0""]",left_blue.png,left,,,,,,,,left,left_blue.png,down_orange.png,down,left,down,5f1dea279f4818757f07f087,2021-09-11_17h32.48.145,arrow_simon_vert,2021.1.2,Win32,59.89817311,,,,,,,,,,,,,,,,,,,,,left,1,1.7729,29,TRUE,FALSE,7,0,28,2,1,,,,,,,
,,,,,,0,1.621509177,#f3af84,"[""0"",""-0.25""]",up_orange.png,up,,,,,,,,right,right_blue.png,up_orange.png,up,left,down,5f1dea279f4818757f07f087,2021-09-11_17h32.48.145,arrow_simon_vert,2021.1.2,Win32,59.89817311,,,,,,,,,,,,,,,,,,,,,up,1,1.9091,30,TRUE,FALSE,7,1,29,0,1,,,,,,,
,,,,,,0,1.554551239,#a3d0fb,"[""0.25"",""0""]",left_blue.png,left,,,,,,,,left,left_blue.png,down_orange.png,down,right,up,5f1dea279f4818757f07f087,2021-09-11_17h32.48.145,arrow_simon_vert,2021.1.2,Win32,59.89817311,,,,,,,,,,,,,,,,,,,,,left,1,1.1549,31,FALSE,TRUE,7,2,30,3,1,,,,,,,
,,,,,,0,2.141351738,#f3af84,"[""0"",""-0.25""]",down_orange.png,down,,,,,,,,left,left_blue.png,down_orange.png,down,left,down,5f1dea279f4818757f07f087,2021-09-11_17h32.48.145,arrow_simon_vert,2021.1.2,Win32,59.89817311,,,,,,,,,,,,,,,,,,,,,down,1,1.7724,32,TRUE,FALSE,7,3,31,2,1,,,,,,,
,,,,,,0,2.286776758,#a3d0fb,"[""0.25"",""0""]",right_blue.png,right,,,,,,,,right,right_blue.png,up_orange.png,up,right,up,5f1dea279f4818757f07f087,2021-09-11_17h32.48.145,arrow_simon_vert,2021.1.2,Win32,59.89817311,,,,,,,,,,,,,,,,,,,,,right,1,1.8243,33,TRUE,FALSE,8,0,32,1,1,,,,,,,
,,,,,,0,2.476982798,#f3af84,"[""0"",""-0.25""]",down_orange.png,down,,,,,,,,left,left_blue.png,down_orange.png,down,left,down,5f1dea279f4818757f07f087,2021-09-11_17h32.48.145,arrow_simon_vert,2021.1.2,Win32,59.89817311,,,,,,,,,,,,,,,,,,,,,down,1,1.8606,34,TRUE,FALSE,8,1,33,2,1,,,,,,,
,,,,,,0,2.233329512,#a3d0fb,"[""0.25"",""0""]",right_blue.png,right,,,,,,,,right,right_blue.png,up_orange.png,up,right,up,5f1dea279f4818757f07f087,2021-09-11_17h32.48.145,arrow_simon_vert,2021.1.2,Win32,59.89817311,,,,,,,,,,,,,,,,,,,,,right,1,1.6114,35,TRUE,FALSE,8,2,34,1,1,,,,,,,
,,,,,,0,2.163394971,#f3af84,"[""0"",""-0.25""]",down_orange.png,down,,,,,,,,left,left_blue.png,down_orange.png,down,left,down,5f1dea279f4818757f07f087,2021-09-11_17h32.48.145,arrow_simon_vert,2021.1.2,Win32,59.89817311,,,,,,,,,,,,,,,,,,,,,down,1,1.7728,36,TRUE,FALSE,8,3,35,2,1,,,,,,,
,,,,,,0,2.075689096,#a3d0fb,"[""0.25"",""0""]",left_blue.png,left,,,,,,,,left,left_blue.png,down_orange.png,down,right,up,5f1dea279f4818757f07f087,2021-09-11_17h32.48.145,arrow_simon_vert,2021.1.2,Win32,59.89817311,,,,,,,,,,,,,,,,,,,,,left,1,1.6556,37,TRUE,FALSE,9,0,36,3,1,,,,,,,
,,,,,,0,2.166376639,#f3af84,"[""0"",""-0.25""]",up_orange.png,up,,,,,,,,right,right_blue.png,up_orange.png,up,left,down,5f1dea279f4818757f07f087,2021-09-11_17h32.48.145,arrow_simon_vert,2021.1.2,Win32,59.89817311,,,,,,,,,,,,,,,,,,,,,up,1,2.1567,38,TRUE,FALSE,9,1,37,0,1,,,,,,,
,,,,,,0,2.390143182,#a3d0fb,"[""0.25"",""0""]",left_blue.png,left,,,,,,,,left,left_blue.png,down_orange.png,down,right,up,5f1dea279f4818757f07f087,2021-09-11_17h32.48.145,arrow_simon_vert,2021.1.2,Win32,59.89817311,,,,,,,,,,,,,,,,,,,,,left,1,2.4578,39,TRUE,FALSE,9,2,38,3,1,,,,,,,
,,,,,,0,1.759796422,#f3af84,"[""0"",""0.25""]",down_orange.png,down,,,,,,,,left,left_blue.png,down_orange.png,down,right,up,5f1dea279f4818757f07f087,2021-09-11_17h32.48.145,arrow_simon_vert,2021.1.2,Win32,59.89817311,,,,,,,,,,,,,,,,,,,,,down,1,1.8395,40,TRUE,FALSE,9,3,39,3,1,,,,,,,
,,,,,,0,1.744647449,#a3d0fb,"[""0.25"",""0""]",right_blue.png,right,,,,,,,,right,right_blue.png,up_orange.png,up,right,up,5f1dea279f4818757f07f087,2021-09-11_17h32.48.145,arrow_simon_vert,2021.1.2,Win32,59.89817311,,,,,,,,,,,,,,,,,,,,,right,1,3.7608,41,TRUE,FALSE,10,0,40,1,1,,,,,,,
,,,,,,0,2.14920079,#f3af84,"[""0"",""-0.25""]",down_orange.png,down,,,,,,,,left,left_blue.png,down_orange.png,down,left,down,5f1dea279f4818757f07f087,2021-09-11_17h32.48.145,arrow_simon_vert,2021.1.2,Win32,59.89817311,,,,,,,,,,,,,,,,,,,,,left,0,1.8678,42,TRUE,FALSE,10,1,41,2,1,,,,,,,
,,,,,,0,1.533846876,#a3d0fb,"[""-0.25"",""0""]",left_blue.png,left,,,,,,,,left,left_blue.png,down_orange.png,down,left,down,5f1dea279f4818757f07f087,2021-09-11_17h32.48.145,arrow_simon_vert,2021.1.2,Win32,59.89817311,,,,,,,,,,,,,,,,,,,,,left,1,1.6389,43,TRUE,FALSE,10,2,42,2,1,,,,,,,
,,,,,,0,2.097037693,#f3af84,"[""0"",""-0.25""]",up_orange.png,up,,,,,,,,right,right_blue.png,up_orange.png,up,left,down,5f1dea279f4818757f07f087,2021-09-11_17h32.48.145,arrow_simon_vert,2021.1.2,Win32,59.89817311,,,,,,,,,,,,,,,,,,,,,up,1,2.4741,44,TRUE,FALSE,10,3,43,0,1,,,,,,,
,,,,,,0,2.298729741,#a3d0fb,"[""0.25"",""0""]",left_blue.png,left,,,,,,,,left,left_blue.png,down_orange.png,down,right,up,5f1dea279f4818757f07f087,2021-09-11_17h32.48.145,arrow_simon_vert,2021.1.2,Win32,59.89817311,,,,,,,,,,,,,,,,,,,,,left,1,2.7428,45,TRUE,FALSE,11,0,44,3,1,,,,,,,
,,,,,,0,2.147335477,#f3af84,"[""0"",""-0.25""]",down_orange.png,down,,,,,,,,left,left_blue.png,down_orange.png,down,left,down,5f1dea279f4818757f07f087,2021-09-11_17h32.48.145,arrow_simon_vert,2021.1.2,Win32,59.89817311,,,,,,,,,,,,,,,,,,,,,down,1,2.0064,46,TRUE,FALSE,11,1,45,2,1,,,,,,,
,,,,,,0,2.30433116,#a3d0fb,"[""-0.25"",""0""]",right_blue.png,right,,,,,,,,right,right_blue.png,up_orange.png,up,left,down,5f1dea279f4818757f07f087,2021-09-11_17h32.48.145,arrow_simon_vert,2021.1.2,Win32,59.89817311,,,,,,,,,,,,,,,,,,,,,right,1,2.5077,47,TRUE,FALSE,11,2,46,0,1,,,,,,,
,,,,,,0,2.277081332,#f3af84,"[""0"",""-0.25""]",up_orange.png,up,,,,,,,,right,right_blue.png,up_orange.png,up,left,down,5f1dea279f4818757f07f087,2021-09-11_17h32.48.145,arrow_simon_vert,2021.1.2,Win32,59.89817311,,,,,,,,,,,,,,,,,,,,,up,1,3.2989,48,TRUE,FALSE,11,3,47,0,1,,,,,,,
,,,,,,0,2.282114488,#a3d0fb,"[""0.25"",""0""]",right_blue.png,right,,,,,,,,right,right_blue.png,up_orange.png,up,right,up,5f1dea279f4818757f07f087,2021-09-11_17h32.48.145,arrow_simon_vert,2021.1.2,Win32,59.89817311,,,,,,,,,,,,,,,,,,,,,right,1,2.0746,49,TRUE,FALSE,12,0,48,1,1,,,,,,,
,,,,,,0,1.713120713,#f3af84,"[""0"",""0.25""]",down_orange.png,down,,,,,,,,left,left_blue.png,down_orange.png,down,right,up,5f1dea279f4818757f07f087,2021-09-11_17h32.48.145,arrow_simon_vert,2021.1.2,Win32,59.89817311,,,,,,,,,,,,,,,,,,,,,down,1,1.6386,50,TRUE,FALSE,12,1,49,3,1,,,,,,,
,,,,,,0,2.213705356,#a3d0fb,"[""-0.25"",""0""]",left_blue.png,left,,,,,,,,left,left_blue.png,down_orange.png,down,left,down,5f1dea279f4818757f07f087,2021-09-11_17h32.48.145,arrow_simon_vert,2021.1.2,Win32,59.89817311,,,,,,,,,,,,,,,,,,,,,left,1,2.6578,51,TRUE,FALSE,12,2,50,2,1,,,,,,,
,,,,,,0,1.614772065,#f3af84,"[""0"",""0.25""]",up_orange.png,up,,,,,,,,right,right_blue.png,up_orange.png,up,right,up,5f1dea279f4818757f07f087,2021-09-11_17h32.48.145,arrow_simon_vert,2021.1.2,Win32,59.89817311,,,,,,,,,,,,,,,,,,,,,up,1,1.789,52,TRUE,FALSE,12,3,51,1,1,,,,,,,
,,,,,,0,1.696976668,#a3d0fb,"[""0.25"",""0""]",right_blue.png,right,,,,,,,,right,right_blue.png,up_orange.png,up,right,up,5f1dea279f4818757f07f087,2021-09-11_17h32.48.145,arrow_simon_vert,2021.1.2,Win32,59.89817311,,,,,,,,,,,,,,,,,,,,,right,1,1.3434,53,FALSE,TRUE,13,0,52,1,1,,,,,,,
,,,,,,0,2.069215567,#f3af84,"[""0"",""0.25""]",down_orange.png,down,,,,,,,,left,left_blue.png,down_orange.png,down,right,up,5f1dea279f4818757f07f087,2021-09-11_17h32.48.145,arrow_simon_vert,2021.1.2,Win32,59.89817311,,,,,,,,,,,,,,,,,,,,,down,1,1.9227,54,TRUE,FALSE,13,1,53,3,1,,,,,,,
,,,,,,0,1.864410245,#a3d0fb,"[""0.25"",""0""]",right_blue.png,right,,,,,,,,right,right_blue.png,up_orange.png,up,right,up,5f1dea279f4818757f07f087,2021-09-11_17h32.48.145,arrow_simon_vert,2021.1.2,Win32,59.89817311,,,,,,,,,,,,,,,,,,,,,right,1,2.1066,55,TRUE,FALSE,13,2,54,1,1,,,,,,,
,,,,,,0,2.39684314,#f3af84,"[""0"",""-0.25""]",up_orange.png,up,,,,,,,,right,right_blue.png,up_orange.png,up,left,down,5f1dea279f4818757f07f087,2021-09-11_17h32.48.145,arrow_simon_vert,2021.1.2,Win32,59.89817311,,,,,,,,,,,,,,,,,,,,,up,1,2.6253,56,TRUE,FALSE,13,3,55,0,1,,,,,,,
,,,,,,0,2.118122107,#a3d0fb,"[""0.25"",""0""]",right_blue.png,right,,,,,,,,right,right_blue.png,up_orange.png,up,right,up,5f1dea279f4818757f07f087,2021-09-11_17h32.48.145,arrow_simon_vert,2021.1.2,Win32,59.89817311,,,,,,,,,,,,,,,,,,,,,right,1,2.5593,57,TRUE,FALSE,14,0,56,1,1,,,,,,,
,,,,,,0,1.831054779,#f3af84,"[""0"",""0.25""]",up_orange.png,up,,,,,,,,right,right_blue.png,up_orange.png,up,right,up,5f1dea279f4818757f07f087,2021-09-11_17h32.48.145,arrow_simon_vert,2021.1.2,Win32,59.89817311,,,,,,,,,,,,,,,,,,,,,up,1,1.7726,58,TRUE,FALSE,14,1,57,1,1,,,,,,,
,,,,,,0,1.518254112,#a3d0fb,"[""-0.25"",""0""]",left_blue.png,left,,,,,,,,left,left_blue.png,down_orange.png,down,left,down,5f1dea279f4818757f07f087,2021-09-11_17h32.48.145,arrow_simon_vert,2021.1.2,Win32,59.89817311,,,,,,,,,,,,,,,,,,,,,left,1,1.4723,59,FALSE,FALSE,14,2,58,2,1,,,,,,,
,,,,,,0,2.192772196,#f3af84,"[""0"",""0.25""]",down_orange.png,down,,,,,,,,left,left_blue.png,down_orange.png,down,right,up,5f1dea279f4818757f07f087,2021-09-11_17h32.48.145,arrow_simon_vert,2021.1.2,Win32,59.89817311,,,,,,,,,,,,,,,,,,,,,down,1,2.0285,60,TRUE,FALSE,14,3,59,3,1,,,,,,,
,,,,,,,,,,,,,,,,,,,,,,,,,5f1dea279f4818757f07f087,2021-09-11_17h32.48.145,arrow_simon_vert,2021.1.2,Win32,59.89817311,,,,,,,,,,,,,,,,,,,,,,,,,,,,,,,,space,79.6225,1,0,1,0,1
,,,,,,0,1.892007139,#a3d0fb,"[""0.25"",""0""]",right_blue.png,right,,,,,,,,right,right_blue.png,up_orange.png,up,right,up,5f1dea279f4818757f07f087,2021-09-11_17h32.48.145,arrow_simon_vert,2021.1.2,Win32,59.89817311,,,,,,,,,,,,,,,,,,,,,right,1,1.8894,1,TRUE,FALSE,0,0,0,1,1,,,,,,,
,,,,,,0,1.623244856,#f3af84,"[""0"",""0.25""]",up_orange.png,up,,,,,,,,right,right_blue.png,up_orange.png,up,right,up,5f1dea279f4818757f07f087,2021-09-11_17h32.48.145,arrow_simon_vert,2021.1.2,Win32,59.89817311,,,,,,,,,,,,,,,,,,,,,up,1,1.522,2,FALSE,FALSE,0,1,1,1,1,,,,,,,
,,,,,,0,2.079296122,#a3d0fb,"[""0.25"",""0""]",right_blue.png,right,,,,,,,,right,right_blue.png,up_orange.png,up,right,up,5f1dea279f4818757f07f087,2021-09-11_17h32.48.145,arrow_simon_vert,2021.1.2,Win32,59.89817311,,,,,,,,,,,,,,,,,,,,,right,1,1.5597,3,FALSE,FALSE,0,2,2,1,1,,,,,,,
,,,,,,0,1.756015281,#f3af84,"[""0"",""-0.25""]",up_orange.png,up,,,,,,,,right,right_blue.png,up_orange.png,up,left,down,5f1dea279f4818757f07f087,2021-09-11_17h32.48.145,arrow_simon_vert,2021.1.2,Win32,59.89817311,,,,,,,,,,,,,,,,,,,,,up,1,1.6387,4,TRUE,FALSE,0,3,3,0,1,,,,,,,
,,,,,,0,2.254480485,#a3d0fb,"[""0.25"",""0""]",right_blue.png,right,,,,,,,,right,right_blue.png,up_orange.png,up,right,up,5f1dea279f4818757f07f087,2021-09-11_17h32.48.145,arrow_simon_vert,2021.1.2,Win32,59.89817311,,,,,,,,,,,,,,,,,,,,,right,1,1.7726,5,TRUE,FALSE,1,0,4,1,1,,,,,,,
,,,,,,0,2.255018949,#f3af84,"[""0"",""-0.25""]",up_orange.png,up,,,,,,,,right,right_blue.png,up_orange.png,up,left,down,5f1dea279f4818757f07f087,2021-09-11_17h32.48.145,arrow_simon_vert,2021.1.2,Win32,59.89817311,,,,,,,,,,,,,,,,,,,,,up,1,2.0063,6,TRUE,FALSE,1,1,5,0,1,,,,,,,
,,,,,,0,2.207954738,#a3d0fb,"[""0.25"",""0""]",left_blue.png,left,,,,,,,,left,left_blue.png,down_orange.png,down,right,up,5f1dea279f4818757f07f087,2021-09-11_17h32.48.145,arrow_simon_vert,2021.1.2,Win32,59.89817311,,,,,,,,,,,,,,,,,,,,,left,1,2.2068,7,TRUE,FALSE,1,2,6,3,1,,,,,,,
,,,,,,0,1.776217655,#f3af84,"[""0"",""-0.25""]",down_orange.png,down,,,,,,,,left,left_blue.png,down_orange.png,down,left,down,5f1dea279f4818757f07f087,2021-09-11_17h32.48.145,arrow_simon_vert,2021.1.2,Win32,59.89817311,,,,,,,,,,,,,,,,,,,,,down,1,1.4381,8,FALSE,FALSE,1,3,7,2,1,,,,,,,
,,,,,,0,2.165597975,#a3d0fb,"[""-0.25"",""0""]",right_blue.png,right,,,,,,,,right,right_blue.png,up_orange.png,up,left,down,5f1dea279f4818757f07f087,2021-09-11_17h32.48.145,arrow_simon_vert,2021.1.2,Win32,59.89817311,,,,,,,,,,,,,,,,,,,,,right,1,1.812,9,TRUE,FALSE,2,0,8,0,1,,,,,,,
,,,,,,0,1.582805458,#f3af84,"[""0"",""0.25""]",up_orange.png,up,,,,,,,,right,right_blue.png,up_orange.png,up,right,up,5f1dea279f4818757f07f087,2021-09-11_17h32.48.145,arrow_simon_vert,2021.1.2,Win32,59.89817311,,,,,,,,,,,,,,,,,,,,,up,1,1.3884,10,FALSE,TRUE,2,1,9,1,1,,,,,,,
,,,,,,0,2.271435695,#a3d0fb,"[""0.25"",""0""]",left_blue.png,left,,,,,,,,left,left_blue.png,down_orange.png,down,right,up,5f1dea279f4818757f07f087,2021-09-11_17h32.48.145,arrow_simon_vert,2021.1.2,Win32,59.89817311,,,,,,,,,,,,,,,,,,,,,left,1,2.173,11,TRUE,FALSE,2,2,10,3,1,,,,,,,
,,,,,,0,2.471475799,#f3af84,"[""0"",""0.25""]",down_orange.png,down,,,,,,,,left,left_blue.png,down_orange.png,down,right,up,5f1dea279f4818757f07f087,2021-09-11_17h32.48.145,arrow_simon_vert,2021.1.2,Win32,59.89817311,,,,,,,,,,,,,,,,,,,,,down,1,2.1909,12,TRUE,FALSE,2,3,11,3,1,,,,,,,
,,,,,,0,2.002966915,#a3d0fb,"[""-0.25"",""0""]",left_blue.png,left,,,,,,,,left,left_blue.png,down_orange.png,down,left,down,5f1dea279f4818757f07f087,2021-09-11_17h32.48.145,arrow_simon_vert,2021.1.2,Win32,59.89817311,,,,,,,,,,,,,,,,,,,,,left,1,1.6386,13,TRUE,FALSE,3,0,12,2,1,,,,,,,
,,,,,,0,2.270467733,#f3af84,"[""0"",""0.25""]",down_orange.png,down,,,,,,,,left,left_blue.png,down_orange.png,down,right,up,5f1dea279f4818757f07f087,2021-09-11_17h32.48.145,arrow_simon_vert,2021.1.2,Win32,59.89817311,,,,,,,,,,,,,,,,,,,,,down,1,1.9282,14,TRUE,FALSE,3,1,13,3,1,,,,,,,
,,,,,,0,2.013310127,#a3d0fb,"[""0.25"",""0""]",right_blue.png,right,,,,,,,,right,right_blue.png,up_orange.png,up,right,up,5f1dea279f4818757f07f087,2021-09-11_17h32.48.145,arrow_simon_vert,2021.1.2,Win32,59.89817311,,,,,,,,,,,,,,,,,,,,,right,1,1.6616,15,TRUE,FALSE,3,2,14,1,1,,,,,,,
,,,,,,0,1.631947201,#f3af84,"[""0"",""0.25""]",down_orange.png,down,,,,,,,,left,left_blue.png,down_orange.png,down,right,up,5f1dea279f4818757f07f087,2021-09-11_17h32.48.145,arrow_simon_vert,2021.1.2,Win32,59.89817311,,,,,,,,,,,,,,,,,,,,,down,1,1.2544,16,FALSE,TRUE,3,3,15,3,1,,,,,,,
,,,,,,0,2.24229201,#a3d0fb,"[""-0.25"",""0""]",right_blue.png,right,,,,,,,,right,right_blue.png,up_orange.png,up,left,down,5f1dea279f4818757f07f087,2021-09-11_17h32.48.145,arrow_simon_vert,2021.1.2,Win32,59.89817311,,,,,,,,,,,,,,,,,,,,,right,1,2.0395,17,TRUE,FALSE,4,0,16,0,1,,,,,,,
,,,,,,0,2.482432553,#f3af84,"[""0"",""0.25""]",up_orange.png,up,,,,,,,,right,right_blue.png,up_orange.png,up,right,up,5f1dea279f4818757f07f087,2021-09-11_17h32.48.145,arrow_simon_vert,2021.1.2,Win32,59.89817311,,,,,,,,,,,,,,,,,,,,,up,1,2.3802,18,TRUE,FALSE,4,1,17,1,1,,,,,,,
,,,,,,0,2.362196012,#a3d0fb,"[""-0.25"",""0""]",left_blue.png,left,,,,,,,,left,left_blue.png,down_orange.png,down,left,down,5f1dea279f4818757f07f087,2021-09-11_17h32.48.145,arrow_simon_vert,2021.1.2,Win32,59.89817311,,,,,,,,,,,,,,,,,,,,,left,1,2.1399,19,TRUE,FALSE,4,2,18,2,1,,,,,,,
,,,,,,0,1.895103858,#f3af84,"[""0"",""-0.25""]",down_orange.png,down,,,,,,,,left,left_blue.png,down_orange.png,down,left,down,5f1dea279f4818757f07f087,2021-09-11_17h32.48.145,arrow_simon_vert,2021.1.2,Win32,59.89817311,,,,,,,,,,,,,,,,,,,,,down,1,1.6567,20,TRUE,FALSE,4,3,19,2,1,,,,,,,
,,,,,,0,2.069887732,#a3d0fb,"[""0.25"",""0""]",left_blue.png,left,,,,,,,,left,left_blue.png,down_orange.png,down,right,up,5f1dea279f4818757f07f087,2021-09-11_17h32.48.145,arrow_simon_vert,2021.1.2,Win32,59.89817311,,,,,,,,,,,,,,,,,,,,,left,1,2.0125,21,TRUE,FALSE,5,0,20,3,1,,,,,,,
,,,,,,0,2.2544586,#f3af84,"[""0"",""0.25""]",up_orange.png,up,,,,,,,,right,right_blue.png,up_orange.png,up,right,up,5f1dea279f4818757f07f087,2021-09-11_17h32.48.145,arrow_simon_vert,2021.1.2,Win32,59.89817311,,,,,,,,,,,,,,,,,,,,,up,1,2.0562,22,TRUE,FALSE,5,1,21,1,1,,,,,,,
,,,,,,0,1.522125659,#a3d0fb,"[""0.25"",""0""]",right_blue.png,right,,,,,,,,right,right_blue.png,up_orange.png,up,right,up,5f1dea279f4818757f07f087,2021-09-11_17h32.48.145,arrow_simon_vert,2021.1.2,Win32,59.89817311,,,,,,,,,,,,,,,,,,,,,right,1,1.1051,23,FALSE,TRUE,5,2,22,1,1,,,,,,,
,,,,,,0,2.242500203,#f3af84,"[""0"",""-0.25""]",up_orange.png,up,,,,,,,,right,right_blue.png,up_orange.png,up,left,down,5f1dea279f4818757f07f087,2021-09-11_17h32.48.145,arrow_simon_vert,2021.1.2,Win32,59.89817311,,,,,,,,,,,,,,,,,,,,,up,1,2.2302,24,TRUE,FALSE,5,3,23,0,1,,,,,,,
,,,,,,0,1.528705141,#a3d0fb,"[""0.25"",""0""]",left_blue.png,left,,,,,,,,left,left_blue.png,down_orange.png,down,right,up,5f1dea279f4818757f07f087,2021-09-11_17h32.48.145,arrow_simon_vert,2021.1.2,Win32,59.89817311,,,,,,,,,,,,,,,,,,,,,left,1,1.3214,25,FALSE,TRUE,6,0,24,3,1,,,,,,,
,,,,,,0,1.982418966,#f3af84,"[""0"",""-0.25""]",up_orange.png,up,,,,,,,,right,right_blue.png,up_orange.png,up,left,down,5f1dea279f4818757f07f087,2021-09-11_17h32.48.145,arrow_simon_vert,2021.1.2,Win32,59.89817311,,,,,,,,,,,,,,,,,,,,,up,1,1.6897,26,TRUE,FALSE,6,1,25,0,1,,,,,,,
,,,,,,0,1.602608429,#a3d0fb,"[""-0.25"",""0""]",right_blue.png,right,,,,,,,,right,right_blue.png,up_orange.png,up,left,down,5f1dea279f4818757f07f087,2021-09-11_17h32.48.145,arrow_simon_vert,2021.1.2,Win32,59.89817311,,,,,,,,,,,,,,,,,,,,,right,1,1.255,27,FALSE,TRUE,6,2,26,0,1,,,,,,,
,,,,,,0,2.012303195,#f3af84,"[""0"",""0.25""]",down_orange.png,down,,,,,,,,left,left_blue.png,down_orange.png,down,right,up,5f1dea279f4818757f07f087,2021-09-11_17h32.48.145,arrow_simon_vert,2021.1.2,Win32,59.89817311,,,,,,,,,,,,,,,,,,,,,down,1,1.7394,28,TRUE,FALSE,6,3,27,3,1,,,,,,,
,,,,,,0,1.952552816,#a3d0fb,"[""-0.25"",""0""]",right_blue.png,right,,,,,,,,right,right_blue.png,up_orange.png,up,left,down,5f1dea279f4818757f07f087,2021-09-11_17h32.48.145,arrow_simon_vert,2021.1.2,Win32,59.89817311,,,,,,,,,,,,,,,,,,,,,right,1,1.7393,29,TRUE,FALSE,7,0,28,0,1,,,,,,,
,,,,,,0,1.956821935,#f3af84,"[""0"",""0.25""]",up_orange.png,up,,,,,,,,right,right_blue.png,up_orange.png,up,right,up,5f1dea279f4818757f07f087,2021-09-11_17h32.48.145,arrow_simon_vert,2021.1.2,Win32,59.89817311,,,,,,,,,,,,,,,,,,,,,up,1,1.6391,30,TRUE,FALSE,7,1,29,1,1,,,,,,,
,,,,,,0,1.724268525,#a3d0fb,"[""0.25"",""0""]",right_blue.png,right,,,,,,,,right,right_blue.png,up_orange.png,up,right,up,5f1dea279f4818757f07f087,2021-09-11_17h32.48.145,arrow_simon_vert,2021.1.2,Win32,59.89817311,,,,,,,,,,,,,,,,,,,,,right,1,1.3383,31,FALSE,TRUE,7,2,30,1,1,,,,,,,
,,,,,,0,2.382018061,#f3af84,"[""0"",""0.25""]",up_orange.png,up,,,,,,,,right,right_blue.png,up_orange.png,up,right,up,5f1dea279f4818757f07f087,2021-09-11_17h32.48.145,arrow_simon_vert,2021.1.2,Win32,59.89817311,,,,,,,,,,,,,,,,,,,,,up,1,2.0235,32,TRUE,FALSE,7,3,31,1,1,,,,,,,
,,,,,,0,1.544299627,#a3d0fb,"[""-0.25"",""0""]",left_blue.png,left,,,,,,,,left,left_blue.png,down_orange.png,down,left,down,5f1dea279f4818757f07f087,2021-09-11_17h32.48.145,arrow_simon_vert,2021.1.2,Win32,59.89817311,,,,,,,,,,,,,,,,,,,,,left,1,1.4252,33,FALSE,FALSE,8,0,32,2,1,,,,,,,
,,,,,,0,1.713286294,#f3af84,"[""0"",""0.25""]",up_orange.png,up,,,,,,,,right,right_blue.png,up_orange.png,up,right,up,5f1dea279f4818757f07f087,2021-09-11_17h32.48.145,arrow_simon_vert,2021.1.2,Win32,59.89817311,,,,,,,,,,,,,,,,,,,,,up,1,1.5225,34,FALSE,FALSE,8,1,33,1,1,,,,,,,
,,,,,,0,1.639204404,#a3d0fb,"[""-0.25"",""0""]",left_blue.png,left,,,,,,,,left,left_blue.png,down_orange.png,down,left,down,5f1dea279f4818757f07f087,2021-09-11_17h32.48.145,arrow_simon_vert,2021.1.2,Win32,59.89817311,,,,,,,,,,,,,,,,,,,,,left,1,1.338,35,FALSE,TRUE,8,2,34,2,1,,,,,,,
,,,,,,0,2.323248749,#f3af84,"[""0"",""-0.25""]",down_orange.png,down,,,,,,,,left,left_blue.png,down_orange.png,down,left,down,5f1dea279f4818757f07f087,2021-09-11_17h32.48.145,arrow_simon_vert,2021.1.2,Win32,59.89817311,,,,,,,,,,,,,,,,,,,,,down,1,1.9395,36,TRUE,FALSE,8,3,35,2,1,,,,,,,
,,,,,,0,1.680760334,#a3d0fb,"[""-0.25"",""0""]",right_blue.png,right,,,,,,,,right,right_blue.png,up_orange.png,up,left,down,5f1dea279f4818757f07f087,2021-09-11_17h32.48.145,arrow_simon_vert,2021.1.2,Win32,59.89817311,,,,,,,,,,,,,,,,,,,,,right,1,1.322,37,FALSE,TRUE,9,0,36,0,1,,,,,,,
,,,,,,0,2.105382205,#f3af84,"[""0"",""-0.25""]",up_orange.png,up,,,,,,,,right,right_blue.png,up_orange.png,up,left,down,5f1dea279f4818757f07f087,2021-09-11_17h32.48.145,arrow_simon_vert,2021.1.2,Win32,59.89817311,,,,,,,,,,,,,,,,,,,,,up,1,1.9412,38,TRUE,FALSE,9,1,37,0,1,,,,,,,
,,,,,,0,1.593418018,#a3d0fb,"[""-0.25"",""0""]",right_blue.png,right,,,,,,,,right,right_blue.png,up_orange.png,up,left,down,5f1dea279f4818757f07f087,2021-09-11_17h32.48.145,arrow_simon_vert,2021.1.2,Win32,59.89817311,,,,,,,,,,,,,,,,,,,,,right,1,1.2548,39,FALSE,TRUE,9,2,38,0,1,,,,,,,
,,,,,,0,2.227708269,#f3af84,"[""0"",""0.25""]",down_orange.png,down,,,,,,,,left,left_blue.png,down_orange.png,down,right,up,5f1dea279f4818757f07f087,2021-09-11_17h32.48.145,arrow_simon_vert,2021.1.2,Win32,59.89817311,,,,,,,,,,,,,,,,,,,,,down,1,2.0406,40,TRUE,FALSE,9,3,39,3,1,,,,,,,
,,,,,,0,2.491943574,#a3d0fb,"[""-0.25"",""0""]",left_blue.png,left,,,,,,,,left,left_blue.png,down_orange.png,down,left,down,5f1dea279f4818757f07f087,2021-09-11_17h32.48.145,arrow_simon_vert,2021.1.2,Win32,59.89817311,,,,,,,,,,,,,,,,,,,,,left,1,2.19,41,TRUE,FALSE,10,0,40,2,1,,,,,,,
,,,,,,0,2.494234057,#f3af84,"[""0"",""0.25""]",down_orange.png,down,,,,,,,,left,left_blue.png,down_orange.png,down,right,up,5f1dea279f4818757f07f087,2021-09-11_17h32.48.145,arrow_simon_vert,2021.1.2,Win32,59.89817311,,,,,,,,,,,,,,,,,,,,,down,1,2.3072,42,TRUE,FALSE,10,1,41,3,1,,,,,,,
,,,,,,0,1.758786277,#a3d0fb,"[""-0.25"",""0""]",left_blue.png,left,,,,,,,,left,left_blue.png,down_orange.png,down,left,down,5f1dea279f4818757f07f087,2021-09-11_17h32.48.145,arrow_simon_vert,2021.1.2,Win32,59.89817311,,,,,,,,,,,,,,,,,,,,,left,1,1.3548,43,FALSE,TRUE,10,2,42,2,1,,,,,,,
,,,,,,0,1.886951152,#f3af84,"[""0"",""-0.25""]",down_orange.png,down,,,,,,,,left,left_blue.png,down_orange.png,down,left,down,5f1dea279f4818757f07f087,2021-09-11_17h32.48.145,arrow_simon_vert,2021.1.2,Win32,59.89817311,,,,,,,,,,,,,,,,,,,,,down,1,1.8058,44,TRUE,FALSE,10,3,43,2,1,,,,,,,
,,,,,,0,1.596428535,#a3d0fb,"[""-0.25"",""0""]",left_blue.png,left,,,,,,,,left,left_blue.png,down_orange.png,down,left,down,5f1dea279f4818757f07f087,2021-09-11_17h32.48.145,arrow_simon_vert,2021.1.2,Win32,59.89817311,,,,,,,,,,,,,,,,,,,,,left,1,1.4384,45,FALSE,FALSE,11,0,44,2,1,,,,,,,
,,,,,,0,2.358401576,#f3af84,"[""0"",""-0.25""]",up_orange.png,up,,,,,,,,right,right_blue.png,up_orange.png,up,left,down,5f1dea279f4818757f07f087,2021-09-11_17h32.48.145,arrow_simon_vert,2021.1.2,Win32,59.89817311,,,,,,,,,,,,,,,,,,,,,up,1,2.2916,46,TRUE,FALSE,11,1,45,0,1,,,,,,,
,,,,,,0,1.685334734,#a3d0fb,"[""-0.25"",""0""]",right_blue.png,right,,,,,,,,right,right_blue.png,up_orange.png,up,left,down,5f1dea279f4818757f07f087,2021-09-11_17h32.48.145,arrow_simon_vert,2021.1.2,Win32,59.89817311,,,,,,,,,,,,,,,,,,,,,right,1,1.4723,47,FALSE,FALSE,11,2,46,0,1,,,,,,,
,,,,,,0,2.370724757,#f3af84,"[""0"",""0.25""]",up_orange.png,up,,,,,,,,right,right_blue.png,up_orange.png,up,right,up,5f1dea279f4818757f07f087,2021-09-11_17h32.48.145,arrow_simon_vert,2021.1.2,Win32,59.89817311,,,,,,,,,,,,,,,,,,,,,up,1,2.207,48,TRUE,FALSE,11,3,47,1,1,,,,,,,
,,,,,,0,2.05667157,#a3d0fb,"[""0.25"",""0""]",left_blue.png,left,,,,,,,,left,left_blue.png,down_orange.png,down,right,up,5f1dea279f4818757f07f087,2021-09-11_17h32.48.145,arrow_simon_vert,2021.1.2,Win32,59.89817311,,,,,,,,,,,,,,,,,,,,,left,1,2.0069,49,TRUE,FALSE,12,0,48,3,1,,,,,,,
,,,,,,0,2.17673843,#f3af84,"[""0"",""-0.25""]",down_orange.png,down,,,,,,,,left,left_blue.png,down_orange.png,down,left,down,5f1dea279f4818757f07f087,2021-09-11_17h32.48.145,arrow_simon_vert,2021.1.2,Win32,59.89817311,,,,,,,,,,,,,,,,,,,,,down,1,1.8394,50,TRUE,FALSE,12,1,49,2,1,,,,,,,
,,,,,,0,2.262309017,#a3d0fb,"[""-0.25"",""0""]",left_blue.png,left,,,,,,,,left,left_blue.png,down_orange.png,down,left,down,5f1dea279f4818757f07f087,2021-09-11_17h32.48.145,arrow_simon_vert,2021.1.2,Win32,59.89817311,,,,,,,,,,,,,,,,,,,,,left,1,2.1806,51,TRUE,FALSE,12,2,50,2,1,,,,,,,
,,,,,,0,2.474472787,#f3af84,"[""0"",""-0.25""]",down_orange.png,down,,,,,,,,left,left_blue.png,down_orange.png,down,left,down,5f1dea279f4818757f07f087,2021-09-11_17h32.48.145,arrow_simon_vert,2021.1.2,Win32,59.89817311,,,,,,,,,,,,,,,,,,,,,down,1,1.9904,52,TRUE,FALSE,12,3,51,2,1,,,,,,,
,,,,,,0,1.928401353,#a3d0fb,"[""-0.25"",""0""]",left_blue.png,left,,,,,,,,left,left_blue.png,down_orange.png,down,left,down,5f1dea279f4818757f07f087,2021-09-11_17h32.48.145,arrow_simon_vert,2021.1.2,Win32,59.89817311,,,,,,,,,,,,,,,,,,,,,left,1,1.7225,53,TRUE,FALSE,13,0,52,2,1,,,,,,,
,,,,,,0,2.093793447,#f3af84,"[""0"",""0.25""]",down_orange.png,down,,,,,,,,left,left_blue.png,down_orange.png,down,right,up,5f1dea279f4818757f07f087,2021-09-11_17h32.48.145,arrow_simon_vert,2021.1.2,Win32,59.89817311,,,,,,,,,,,,,,,,,,,,,down,1,1.9275,54,TRUE,FALSE,13,1,53,3,1,,,,,,,
,,,,,,0,2.356250497,#a3d0fb,"[""0.25"",""0""]",left_blue.png,left,,,,,,,,left,left_blue.png,down_orange.png,down,right,up,5f1dea279f4818757f07f087,2021-09-11_17h32.48.145,arrow_simon_vert,2021.1.2,Win32,59.89817311,,,,,,,,,,,,,,,,,,,,,left,1,2.113,55,TRUE,FALSE,13,2,54,3,1,,,,,,,
,,,,,,0,1.624867323,#f3af84,"[""0"",""0.25""]",down_orange.png,down,,,,,,,,left,left_blue.png,down_orange.png,down,right,up,5f1dea279f4818757f07f087,2021-09-11_17h32.48.145,arrow_simon_vert,2021.1.2,Win32,59.89817311,,,,,,,,,,,,,,,,,,,,,down,1,1.4565,56,FALSE,FALSE,13,3,55,3,1,,,,,,,
,,,,,,0,2.264537736,#a3d0fb,"[""-0.25"",""0""]",right_blue.png,right,,,,,,,,right,right_blue.png,up_orange.png,up,left,down,5f1dea279f4818757f07f087,2021-09-11_17h32.48.145,arrow_simon_vert,2021.1.2,Win32,59.89817311,,,,,,,,,,,,,,,,,,,,,right,1,1.8722,57,TRUE,FALSE,14,0,56,0,1,,,,,,,
,,,,,,0,1.612526394,#f3af84,"[""0"",""-0.25""]",up_orange.png,up,,,,,,,,right,right_blue.png,up_orange.png,up,left,down,5f1dea279f4818757f07f087,2021-09-11_17h32.48.145,arrow_simon_vert,2021.1.2,Win32,59.89817311,,,,,,,,,,,,,,,,,,,,,up,1,1.5552,58,FALSE,FALSE,14,1,57,0,1,,,,,,,
,,,,,,0,2.386212785,#a3d0fb,"[""0.25"",""0""]",right_blue.png,right,,,,,,,,right,right_blue.png,up_orange.png,up,right,up,5f1dea279f4818757f07f087,2021-09-11_17h32.48.145,arrow_simon_vert,2021.1.2,Win32,59.89817311,,,,,,,,,,,,,,,,,,,,,right,1,1.8897,59,TRUE,FALSE,14,2,58,1,1,,,,,,,
,,,,,,0,1.688793441,#f3af84,"[""0"",""0.25""]",down_orange.png,down,,,,,,,,left,left_blue.png,down_orange.png,down,right,up,5f1dea279f4818757f07f087,2021-09-11_17h32.48.145,arrow_simon_vert,2021.1.2,Win32,59.89817311,,,,,,,,,,,,,,,,,,,,,down,1,1.3716,60,FALSE,TRUE,14,3,59,3,1,,,,,,,
,,,,,,,,,,,,,,,,,,,,,,,,,5f1dea279f4818757f07f087,2021-09-11_17h32.48.145,arrow_simon_vert,2021.1.2,Win32,59.89817311,,,,,,,,,,,,,,,,,,,,,,,,,,,,,,,,space,48.362,2,0,2,0,1
,,,,,,0,1.7185035,#a3d0fb,"[""-0.25"",""0""]",right_blue.png,right,,,,,,,,right,right_blue.png,up_orange.png,up,left,down,5f1dea279f4818757f07f087,2021-09-11_17h32.48.145,arrow_simon_vert,2021.1.2,Win32,59.89817311,,,,,,,,,,,,,,,,,,,,,right,1,1.355,1,FALSE,TRUE,0,0,0,0,1,,,,,,,
,,,,,,0,2.460233552,#f3af84,"[""0"",""-0.25""]",down_orange.png,down,,,,,,,,left,left_blue.png,down_orange.png,down,left,down,5f1dea279f4818757f07f087,2021-09-11_17h32.48.145,arrow_simon_vert,2021.1.2,Win32,59.89817311,,,,,,,,,,,,,,,,,,,,,down,1,2.525,2,TRUE,FALSE,0,1,1,2,1,,,,,,,
,,,,,,0,2.066803843,#a3d0fb,"[""-0.25"",""0""]",left_blue.png,left,,,,,,,,left,left_blue.png,down_orange.png,down,left,down,5f1dea279f4818757f07f087,2021-09-11_17h32.48.145,arrow_simon_vert,2021.1.2,Win32,59.89817311,,,,,,,,,,,,,,,,,,,,,left,1,2.2402,3,TRUE,FALSE,0,2,2,2,1,,,,,,,
,,,,,,0,1.950310058,#f3af84,"[""0"",""0.25""]",down_orange.png,down,,,,,,,,left,left_blue.png,down_orange.png,down,right,up,5f1dea279f4818757f07f087,2021-09-11_17h32.48.145,arrow_simon_vert,2021.1.2,Win32,59.89817311,,,,,,,,,,,,,,,,,,,,,down,1,1.722,4,TRUE,FALSE,0,3,3,3,1,,,,,,,
,,,,,,0,1.643214315,#a3d0fb,"[""-0.25"",""0""]",right_blue.png,right,,,,,,,,right,right_blue.png,up_orange.png,up,left,down,5f1dea279f4818757f07f087,2021-09-11_17h32.48.145,arrow_simon_vert,2021.1.2,Win32,59.89817311,,,,,,,,,,,,,,,,,,,,,right,1,1.2217,5,FALSE,TRUE,1,0,4,0,1,,,,,,,
,,,,,,0,1.783815109,#f3af84,"[""0"",""-0.25""]",down_orange.png,down,,,,,,,,left,left_blue.png,down_orange.png,down,left,down,5f1dea279f4818757f07f087,2021-09-11_17h32.48.145,arrow_simon_vert,2021.1.2,Win32,59.89817311,,,,,,,,,,,,,,,,,,,,,down,1,1.4217,6,FALSE,FALSE,1,1,5,2,1,,,,,,,
,,,,,,0,2.226552161,#a3d0fb,"[""0.25"",""0""]",left_blue.png,left,,,,,,,,left,left_blue.png,down_orange.png,down,right,up,5f1dea279f4818757f07f087,2021-09-11_17h32.48.145,arrow_simon_vert,2021.1.2,Win32,59.89817311,,,,,,,,,,,,,,,,,,,,,left,1,2.309,7,TRUE,FALSE,1,2,6,3,1,,,,,,,
,,,,,,0,1.841746946,#f3af84,"[""0"",""-0.25""]",up_orange.png,up,,,,,,,,right,right_blue.png,up_orange.png,up,left,down,5f1dea279f4818757f07f087,2021-09-11_17h32.48.145,arrow_simon_vert,2021.1.2,Win32,59.89817311,,,,,,,,,,,,,,,,,,,,,up,1,1.6402,8,TRUE,FALSE,1,3,7,0,1,,,,,,,
,,,,,,0,1.714941299,#a3d0fb,"[""-0.25"",""0""]",left_blue.png,left,,,,,,,,left,left_blue.png,down_orange.png,down,left,down,5f1dea279f4818757f07f087,2021-09-11_17h32.48.145,arrow_simon_vert,2021.1.2,Win32,59.89817311,,,,,,,,,,,,,,,,,,,,,left,1,1.4215,9,FALSE,FALSE,2,0,8,2,1,,,,,,,
,,,,,,0,1.810572008,#f3af84,"[""0"",""0.25""]",down_orange.png,down,,,,,,,,left,left_blue.png,down_orange.png,down,right,up,5f1dea279f4818757f07f087,2021-09-11_17h32.48.145,arrow_simon_vert,2021.1.2,Win32,59.89817311,,,,,,,,,,,,,,,,,,,,,down,1,1.5552,10,FALSE,FALSE,2,1,9,3,1,,,,,,,
,,,,,,0,2.292448299,#a3d0fb,"[""-0.25"",""0""]",right_blue.png,right,,,,,,,,right,right_blue.png,up_orange.png,up,left,down,5f1dea279f4818757f07f087,2021-09-11_17h32.48.145,arrow_simon_vert,2021.1.2,Win32,59.89817311,,,,,,,,,,,,,,,,,,,,,right,1,1.8907,11,TRUE,FALSE,2,2,10,0,1,,,,,,,
,,,,,,0,2.019904753,#f3af84,"[""0"",""-0.25""]",up_orange.png,up,,,,,,,,right,right_blue.png,up_orange.png,up,left,down,5f1dea279f4818757f07f087,2021-09-11_17h32.48.145,arrow_simon_vert,2021.1.2,Win32,59.89817311,,,,,,,,,,,,,,,,,,,,,up,1,1.9228,12,TRUE,FALSE,2,3,11,0,1,,,,,,,
,,,,,,0,1.667027263,#a3d0fb,"[""-0.25"",""0""]",right_blue.png,right,,,,,,,,right,right_blue.png,up_orange.png,up,left,down,5f1dea279f4818757f07f087,2021-09-11_17h32.48.145,arrow_simon_vert,2021.1.2,Win32,59.89817311,,,,,,,,,,,,,,,,,,,,,right,1,1.2222,13,FALSE,TRUE,3,0,12,0,1,,,,,,,
,,,,,,0,2.304567337,#f3af84,"[""0"",""0.25""]",up_orange.png,up,,,,,,,,right,right_blue.png,up_orange.png,up,right,up,5f1dea279f4818757f07f087,2021-09-11_17h32.48.145,arrow_simon_vert,2021.1.2,Win32,59.89817311,,,,,,,,,,,,,,,,,,,,,up,1,2.2235,14,TRUE,FALSE,3,1,13,1,1,,,,,,,
,,,,,,0,1.746958459,#a3d0fb,"[""0.25"",""0""]",left_blue.png,left,,,,,,,,left,left_blue.png,down_orange.png,down,right,up,5f1dea279f4818757f07f087,2021-09-11_17h32.48.145,arrow_simon_vert,2021.1.2,Win32,59.89817311,,,,,,,,,,,,,,,,,,,,,left,1,1.6563,15,TRUE,FALSE,3,2,14,3,1,,,,,,,
