instruct_resp_simon.keys,instruct_resp_simon.corr,instruct_resp_simon.rt,trial_resp_simon.keys,trial_resp_simon.corr,trial_resp_simon.rt,kerr,target_onset,target_color,target_pos,target_file,target_resp,trials_train_simon.thisRepN,trials_train_simon.thisTrialN,trials_train_simon.thisN,trials_train_simon.thisIndex,trials_train_simon.ran,odd_target_pos,even_target_pos,odd_target_resp,odd_target_file,even_target_file,even_target_resp,odd_target_side,even_target_side,participant,date,expName,psychopyVersion,OS,frameRate,train_block_note_resp.keys,train_block_note_resp.rt,blocks_train.thisRepN,blocks_train.thisTrialN,blocks_train.thisN,blocks_train.thisIndex,blocks_train.ran,instruct_resp_timing.keys,instruct_resp_timing.corr,instruct_resp_timing.rt,trial_resp_timing.keys,trial_resp_timing.rt,trials_train_timing.thisRepN,trials_train_timing.thisTrialN,trials_train_timing.thisN,trials_train_timing.thisIndex,trials_train_timing.ran,instruct_resp.keys,instruct_resp.corr,instruct_resp.rt,trial_resp.keys,trial_resp.corr,trial_resp.rt,trial_num,too_slow,too_soon,trials.thisRepN,trials.thisTrialN,trials.thisN,trials.thisIndex,trials.ran,block_note_resp.keys,block_note_resp.rt,blocks.thisRepN,blocks.thisTrialN,blocks.thisN,blocks.thisIndex,blocks.ran
space,0,54.667,right,1,2.6058,0,0.31395129,#a3d0fb,"[""-0.25"",""0""]",right_blue.png,right,0,0,0,0,1,,,right,right_blue.png,up_orange.png,up,left,down,5fad961b463be513d7486f86,2021-09-08_11h00.13.718,arrow_simon_vert,2021.1.2,Linux x86_64,60.0024001,,,,,,,,,,,,,,,,,,,,,,,,,,,,,,,,,,,,,,
,,,down,1,1.4963,0,0.301432888,#f3af84,"[""0"",""0.25""]",down_orange.png,down,0,1,1,3,1,,,left,left_blue.png,down_orange.png,down,right,up,5fad961b463be513d7486f86,2021-09-08_11h00.13.718,arrow_simon_vert,2021.1.2,Linux x86_64,60.0024001,,,,,,,,,,,,,,,,,,,,,,,,,,,,,,,,,,,,,,
,,,right,1,1.0826,0,0.225627646,#a3d0fb,"[""-0.25"",""0""]",right_blue.png,right,0,2,2,0,1,,,right,right_blue.png,up_orange.png,up,left,down,5fad961b463be513d7486f86,2021-09-08_11h00.13.718,arrow_simon_vert,2021.1.2,Linux x86_64,60.0024001,,,,,,,,,,,,,,,,,,,,,,,,,,,,,,,,,,,,,,
,,,down,1,1.2137,0,0.210416314,#f3af84,"[""0"",""-0.25""]",down_orange.png,down,0,3,3,2,1,,,left,left_blue.png,down_orange.png,down,left,down,5fad961b463be513d7486f86,2021-09-08_11h00.13.718,arrow_simon_vert,2021.1.2,Linux x86_64,60.0024001,,,,,,,,,,,,,,,,,,,,,,,,,,,,,,,,,,,,,,
,,,right,1,0.9979,0,0.213514604,#a3d0fb,"[""-0.25"",""0""]",right_blue.png,right,1,0,4,0,1,,,right,right_blue.png,up_orange.png,up,left,down,5fad961b463be513d7486f86,2021-09-08_11h00.13.718,arrow_simon_vert,2021.1.2,Linux x86_64,60.0024001,,,,,,,,,,,,,,,,,,,,,,,,,,,,,,,,,,,,,,
,,,up,1,0.7309,0,0.030684954,#f3af84,"[""0"",""-0.25""]",up_orange.png,up,1,1,5,0,1,,,right,right_blue.png,up_orange.png,up,left,down,5fad961b463be513d7486f86,2021-09-08_11h00.13.718,arrow_simon_vert,2021.1.2,Linux x86_64,60.0024001,,,,,,,,,,,,,,,,,,,,,,,,,,,,,,,,,,,,,,
,,,right,1,1.1488,0,0.614032465,#a3d0fb,"[""0.25"",""0""]",right_blue.png,right,1,2,6,1,1,,,right,right_blue.png,up_orange.png,up,right,up,5fad961b463be513d7486f86,2021-09-08_11h00.13.718,arrow_simon_vert,2021.1.2,Linux x86_64,60.0024001,,,,,,,,,,,,,,,,,,,,,,,,,,,,,,,,,,,,,,
,,,up,1,1.1624,0,0.267055973,#f3af84,"[""0"",""0.25""]",up_orange.png,up,1,3,7,1,1,,,right,right_blue.png,up_orange.png,up,right,up,5fad961b463be513d7486f86,2021-09-08_11h00.13.718,arrow_simon_vert,2021.1.2,Linux x86_64,60.0024001,,,,,,,,,,,,,,,,,,,,,,,,,,,,,,,,,,,,,,
,,,right,1,1.5358,0,0.845881404,#a3d0fb,"[""-0.25"",""0""]",right_blue.png,right,2,0,8,0,1,,,right,right_blue.png,up_orange.png,up,left,down,5fad961b463be513d7486f86,2021-09-08_11h00.13.718,arrow_simon_vert,2021.1.2,Linux x86_64,60.0024001,,,,,,,,,,,,,,,,,,,,,,,,,,,,,,,,,,,,,,
,,,down,1,1.0156,0,0.03489511,#f3af84,"[""0"",""0.25""]",down_orange.png,down,2,1,9,3,1,,,left,left_blue.png,down_orange.png,down,right,up,5fad961b463be513d7486f86,2021-09-08_11h00.13.718,arrow_simon_vert,2021.1.2,Linux x86_64,60.0024001,,,,,,,,,,,,,,,,,,,,,,,,,,,,,,,,,,,,,,
,,,left,1,1.0163,0,0.277887469,#a3d0fb,"[""0.25"",""0""]",left_blue.png,left,2,2,10,3,1,,,left,left_blue.png,down_orange.png,down,right,up,5fad961b463be513d7486f86,2021-09-08_11h00.13.718,arrow_simon_vert,2021.1.2,Linux x86_64,60.0024001,,,,,,,,,,,,,,,,,,,,,,,,,,,,,,,,,,,,,,
,,,down,1,0.8308,0,0.184029047,#f3af84,"[""0"",""0.25""]",down_orange.png,down,2,3,11,3,1,,,left,left_blue.png,down_orange.png,down,right,up,5fad961b463be513d7486f86,2021-09-08_11h00.13.718,arrow_simon_vert,2021.1.2,Linux x86_64,60.0024001,,,,,,,,,,,,,,,,,,,,,,,,,,,,,,,,,,,,,,
,,,right,1,0.8528,0,0.275579211,#a3d0fb,"[""0.25"",""0""]",right_blue.png,right,3,0,12,1,1,,,right,right_blue.png,up_orange.png,up,right,up,5fad961b463be513d7486f86,2021-09-08_11h00.13.718,arrow_simon_vert,2021.1.2,Linux x86_64,60.0024001,,,,,,,,,,,,,,,,,,,,,,,,,,,,,,,,,,,,,,
,,,down,1,1.4997,0,0.866420911,#f3af84,"[""0"",""-0.25""]",down_orange.png,down,3,1,13,2,1,,,left,left_blue.png,down_orange.png,down,left,down,5fad961b463be513d7486f86,2021-09-08_11h00.13.718,arrow_simon_vert,2021.1.2,Linux x86_64,60.0024001,,,,,,,,,,,,,,,,,,,,,,,,,,,,,,,,,,,,,,
,,,right,1,1.4792,0,0.979227949,#a3d0fb,"[""0.25"",""0""]",right_blue.png,right,3,2,14,1,1,,,right,right_blue.png,up_orange.png,up,right,up,5fad961b463be513d7486f86,2021-09-08_11h00.13.718,arrow_simon_vert,2021.1.2,Linux x86_64,60.0024001,,,,,,,,,,,,,,,,,,,,,,,,,,,,,,,,,,,,,,
,,,up,1,1.5951,0,0.94080033,#f3af84,"[""0"",""0.25""]",up_orange.png,up,3,3,15,1,1,,,right,right_blue.png,up_orange.png,up,right,up,5fad961b463be513d7486f86,2021-09-08_11h00.13.718,arrow_simon_vert,2021.1.2,Linux x86_64,60.0024001,,,,,,,,,,,,,,,,,,,,,,,,,,,,,,,,,,,,,,
,,,left,1,1.4645,0,0.701112577,#a3d0fb,"[""0.25"",""0""]",left_blue.png,left,4,0,16,3,1,,,left,left_blue.png,down_orange.png,down,right,up,5fad961b463be513d7486f86,2021-09-08_11h00.13.718,arrow_simon_vert,2021.1.2,Linux x86_64,60.0024001,,,,,,,,,,,,,,,,,,,,,,,,,,,,,,,,,,,,,,
,,,up,1,1.4613,0,0.907482523,#f3af84,"[""0"",""0.25""]",up_orange.png,up,4,1,17,1,1,,,right,right_blue.png,up_orange.png,up,right,up,5fad961b463be513d7486f86,2021-09-08_11h00.13.718,arrow_simon_vert,2021.1.2,Linux x86_64,60.0024001,,,,,,,,,,,,,,,,,,,,,,,,,,,,,,,,,,,,,,
,,,left,1,1.1994,0,0.544194786,#a3d0fb,"[""-0.25"",""0""]",left_blue.png,left,4,2,18,2,1,,,left,left_blue.png,down_orange.png,down,left,down,5fad961b463be513d7486f86,2021-09-08_11h00.13.718,arrow_simon_vert,2021.1.2,Linux x86_64,60.0024001,,,,,,,,,,,,,,,,,,,,,,,,,,,,,,,,,,,,,,
,,,down,1,1.0032,0,0.371994518,#f3af84,"[""0"",""0.25""]",down_orange.png,down,4,3,19,3,1,,,left,left_blue.png,down_orange.png,down,right,up,5fad961b463be513d7486f86,2021-09-08_11h00.13.718,arrow_simon_vert,2021.1.2,Linux x86_64,60.0024001,,,,,,,,,,,,,,,,,,,,,,,,,,,,,,,,,,,,,,
,,,left,1,0.903,0,0.120946744,#a3d0fb,"[""0.25"",""0""]",left_blue.png,left,5,0,20,3,1,,,left,left_blue.png,down_orange.png,down,right,up,5fad961b463be513d7486f86,2021-09-08_11h00.13.718,arrow_simon_vert,2021.1.2,Linux x86_64,60.0024001,,,,,,,,,,,,,,,,,,,,,,,,,,,,,,,,,,,,,,
,,,up,1,1.5824,0,0.95456511,#f3af84,"[""0"",""-0.25""]",up_orange.png,up,5,1,21,0,1,,,right,right_blue.png,up_orange.png,up,left,down,5fad961b463be513d7486f86,2021-09-08_11h00.13.718,arrow_simon_vert,2021.1.2,Linux x86_64,60.0024001,,,,,,,,,,,,,,,,,,,,,,,,,,,,,,,,,,,,,,
,,,right,1,0.9666,0,0.148562155,#a3d0fb,"[""-0.25"",""0""]",right_blue.png,right,5,2,22,0,1,,,right,right_blue.png,up_orange.png,up,left,down,5fad961b463be513d7486f86,2021-09-08_11h00.13.718,arrow_simon_vert,2021.1.2,Linux x86_64,60.0024001,,,,,,,,,,,,,,,,,,,,,,,,,,,,,,,,,,,,,,
,,,down,0,1.2485,1,0.462784989,#f3af84,"[""0"",""-0.25""]",up_orange.png,up,5,3,23,0,1,,,right,right_blue.png,up_orange.png,up,left,down,5fad961b463be513d7486f86,2021-09-08_11h00.13.718,arrow_simon_vert,2021.1.2,Linux x86_64,60.0024001,,,,,,,,,,,,,,,,,,,,,,,,,,,,,,,,,,,,,,
,,,right,1,1.2836,0,0.268783247,#a3d0fb,"[""-0.25"",""0""]",right_blue.png,right,6,0,24,0,1,,,right,right_blue.png,up_orange.png,up,left,down,5fad961b463be513d7486f86,2021-09-08_11h00.13.718,arrow_simon_vert,2021.1.2,Linux x86_64,60.0024001,,,,,,,,,,,,,,,,,,,,,,,,,,,,,,,,,,,,,,
,,,down,1,1.2478,0,0.493517407,#f3af84,"[""0"",""-0.25""]",down_orange.png,down,6,1,25,2,1,,,left,left_blue.png,down_orange.png,down,left,down,5fad961b463be513d7486f86,2021-09-08_11h00.13.718,arrow_simon_vert,2021.1.2,Linux x86_64,60.0024001,,,,,,,,,,,,,,,,,,,,,,,,,,,,,,,,,,,,,,
,,,left,1,1.5032,0,0.991810584,#a3d0fb,"[""-0.25"",""0""]",left_blue.png,left,6,2,26,2,1,,,left,left_blue.png,down_orange.png,down,left,down,5fad961b463be513d7486f86,2021-09-08_11h00.13.718,arrow_simon_vert,2021.1.2,Linux x86_64,60.0024001,,,,,,,,,,,,,,,,,,,,,,,,,,,,,,,,,,,,,,
,,,up,1,1.2369,0,0.482419922,#f3af84,"[""0"",""0.25""]",up_orange.png,up,6,3,27,1,1,,,right,right_blue.png,up_orange.png,up,right,up,5fad961b463be513d7486f86,2021-09-08_11h00.13.718,arrow_simon_vert,2021.1.2,Linux x86_64,60.0024001,,,,,,,,,,,,,,,,,,,,,,,,,,,,,,,,,,,,,,
,,,left,1,1.3819,0,0.599688574,#a3d0fb,"[""0.25"",""0""]",left_blue.png,left,7,0,28,3,1,,,left,left_blue.png,down_orange.png,down,right,up,5fad961b463be513d7486f86,2021-09-08_11h00.13.718,arrow_simon_vert,2021.1.2,Linux x86_64,60.0024001,,,,,,,,,,,,,,,,,,,,,,,,,,,,,,,,,,,,,,
,,,up,1,0.9677,0,0.123273314,#f3af84,"[""0"",""0.25""]",up_orange.png,up,7,1,29,1,1,,,right,right_blue.png,up_orange.png,up,right,up,5fad961b463be513d7486f86,2021-09-08_11h00.13.718,arrow_simon_vert,2021.1.2,Linux x86_64,60.0024001,,,,,,,,,,,,,,,,,,,,,,,,,,,,,,,,,,,,,,
,,,right,1,1.2216,0,0.632477111,#a3d0fb,"[""-0.25"",""0""]",right_blue.png,right,7,2,30,0,1,,,right,right_blue.png,up_orange.png,up,left,down,5fad961b463be513d7486f86,2021-09-08_11h00.13.718,arrow_simon_vert,2021.1.2,Linux x86_64,60.0024001,,,,,,,,,,,,,,,,,,,,,,,,,,,,,,,,,,,,,,
,,,up,1,0.7157,0,0.196591228,#f3af84,"[""0"",""0.25""]",up_orange.png,up,7,3,31,1,1,,,right,right_blue.png,up_orange.png,up,right,up,5fad961b463be513d7486f86,2021-09-08_11h00.13.718,arrow_simon_vert,2021.1.2,Linux x86_64,60.0024001,,,,,,,,,,,,,,,,,,,,,,,,,,,,,,,,,,,,,,
,,,left,1,1.3132,0,0.894108831,#a3d0fb,"[""-0.25"",""0""]",left_blue.png,left,8,0,32,2,1,,,left,left_blue.png,down_orange.png,down,left,down,5fad961b463be513d7486f86,2021-09-08_11h00.13.718,arrow_simon_vert,2021.1.2,Linux x86_64,60.0024001,,,,,,,,,,,,,,,,,,,,,,,,,,,,,,,,,,,,,,
,,,down,1,1.1984,0,0.314367482,#f3af84,"[""0"",""0.25""]",down_orange.png,down,8,1,33,3,1,,,left,left_blue.png,down_orange.png,down,right,up,5fad961b463be513d7486f86,2021-09-08_11h00.13.718,arrow_simon_vert,2021.1.2,Linux x86_64,60.0024001,,,,,,,,,,,,,,,,,,,,,,,,,,,,,,,,,,,,,,
,,,right,0,1.2461,1,0.61870084,#a3d0fb,"[""0.25"",""0""]",left_blue.png,left,8,2,34,3,1,,,left,left_blue.png,down_orange.png,down,right,up,5fad961b463be513d7486f86,2021-09-08_11h00.13.718,arrow_simon_vert,2021.1.2,Linux x86_64,60.0024001,,,,,,,,,,,,,,,,,,,,,,,,,,,,,,,,,,,,,,
,,,up,1,1.2332,0,0.645464403,#f3af84,"[""0"",""0.25""]",up_orange.png,up,8,3,35,1,1,,,right,right_blue.png,up_orange.png,up,right,up,5fad961b463be513d7486f86,2021-09-08_11h00.13.718,arrow_simon_vert,2021.1.2,Linux x86_64,60.0024001,,,,,,,,,,,,,,,,,,,,,,,,,,,,,,,,,,,,,,
,,,left,1,2.1378,0,0.968034245,#a3d0fb,"[""0.25"",""0""]",left_blue.png,left,9,0,36,3,1,,,left,left_blue.png,down_orange.png,down,right,up,5fad961b463be513d7486f86,2021-09-08_11h00.13.718,arrow_simon_vert,2021.1.2,Linux x86_64,60.0024001,,,,,,,,,,,,,,,,,,,,,,,,,,,,,,,,,,,,,,
,,,down,1,0.9442,0,0.241363488,#f3af84,"[""0"",""-0.25""]",down_orange.png,down,9,1,37,2,1,,,left,left_blue.png,down_orange.png,down,left,down,5fad961b463be513d7486f86,2021-09-08_11h00.13.718,arrow_simon_vert,2021.1.2,Linux x86_64,60.0024001,,,,,,,,,,,,,,,,,,,,,,,,,,,,,,,,,,,,,,
,,,left,1,0.7691,0,0.074677579,#a3d0fb,"[""-0.25"",""0""]",left_blue.png,left,9,2,38,2,1,,,left,left_blue.png,down_orange.png,down,left,down,5fad961b463be513d7486f86,2021-09-08_11h00.13.718,arrow_simon_vert,2021.1.2,Linux x86_64,60.0024001,,,,,,,,,,,,,,,,,,,,,,,,,,,,,,,,,,,,,,
,,,down,1,1.5152,0,0.545373374,#f3af84,"[""0"",""0.25""]",down_orange.png,down,9,3,39,3,1,,,left,left_blue.png,down_orange.png,down,right,up,5fad961b463be513d7486f86,2021-09-08_11h00.13.718,arrow_simon_vert,2021.1.2,Linux x86_64,60.0024001,,,,,,,,,,,,,,,,,,,,,,,,,,,,,,,,,,,,,,
,,,right,1,1.6133,0,0.919123765,#a3d0fb,"[""-0.25"",""0""]",right_blue.png,right,10,0,40,0,1,,,right,right_blue.png,up_orange.png,up,left,down,5fad961b463be513d7486f86,2021-09-08_11h00.13.718,arrow_simon_vert,2021.1.2,Linux x86_64,60.0024001,,,,,,,,,,,,,,,,,,,,,,,,,,,,,,,,,,,,,,
,,,down,1,1.4963,0,0.39554753,#f3af84,"[""0"",""0.25""]",down_orange.png,down,10,1,41,3,1,,,left,left_blue.png,down_orange.png,down,right,up,5fad961b463be513d7486f86,2021-09-08_11h00.13.718,arrow_simon_vert,2021.1.2,Linux x86_64,60.0024001,,,,,,,,,,,,,,,,,,,,,,,,,,,,,,,,,,,,,,
,,,right,1,0.6793,0,0.244719533,#a3d0fb,"[""0.25"",""0""]",right_blue.png,right,10,2,42,1,1,,,right,right_blue.png,up_orange.png,up,right,up,5fad961b463be513d7486f86,2021-09-08_11h00.13.718,arrow_simon_vert,2021.1.2,Linux x86_64,60.0024001,,,,,,,,,,,,,,,,,,,,,,,,,,,,,,,,,,,,,,
,,,up,1,1.3761,0,0.674993729,#f3af84,"[""0"",""-0.25""]",up_orange.png,up,10,3,43,0,1,,,right,right_blue.png,up_orange.png,up,left,down,5fad961b463be513d7486f86,2021-09-08_11h00.13.718,arrow_simon_vert,2021.1.2,Linux x86_64,60.0024001,,,,,,,,,,,,,,,,,,,,,,,,,,,,,,,,,,,,,,
,,,right,1,0.9326,0,0.516847521,#a3d0fb,"[""0.25"",""0""]",right_blue.png,right,11,0,44,1,1,,,right,right_blue.png,up_orange.png,up,right,up,5fad961b463be513d7486f86,2021-09-08_11h00.13.718,arrow_simon_vert,2021.1.2,Linux x86_64,60.0024001,,,,,,,,,,,,,,,,,,,,,,,,,,,,,,,,,,,,,,
,,,down,1,1.062,0,0.552180812,#f3af84,"[""0"",""-0.25""]",down_orange.png,down,11,1,45,2,1,,,left,left_blue.png,down_orange.png,down,left,down,5fad961b463be513d7486f86,2021-09-08_11h00.13.718,arrow_simon_vert,2021.1.2,Linux x86_64,60.0024001,,,,,,,,,,,,,,,,,,,,,,,,,,,,,,,,,,,,,,
,,,left,1,1.4015,0,0.864869813,#a3d0fb,"[""-0.25"",""0""]",left_blue.png,left,11,2,46,2,1,,,left,left_blue.png,down_orange.png,down,left,down,5fad961b463be513d7486f86,2021-09-08_11h00.13.718,arrow_simon_vert,2021.1.2,Linux x86_64,60.0024001,,,,,,,,,,,,,,,,,,,,,,,,,,,,,,,,,,,,,,
,,,down,1,0.6189,0,0.049913675,#f3af84,"[""0"",""-0.25""]",down_orange.png,down,11,3,47,2,1,,,left,left_blue.png,down_orange.png,down,left,down,5fad961b463be513d7486f86,2021-09-08_11h00.13.718,arrow_simon_vert,2021.1.2,Linux x86_64,60.0024001,,,,,,,,,,,,,,,,,,,,,,,,,,,,,,,,,,,,,,
,,,right,1,1.2706,0,0.821226729,#a3d0fb,"[""0.25"",""0""]",right_blue.png,right,12,0,48,1,1,,,right,right_blue.png,up_orange.png,up,right,up,5fad961b463be513d7486f86,2021-09-08_11h00.13.718,arrow_simon_vert,2021.1.2,Linux x86_64,60.0024001,,,,,,,,,,,,,,,,,,,,,,,,,,,,,,,,,,,,,,
,,,down,1,1.2492,0,0.783632845,#f3af84,"[""0"",""0.25""]",down_orange.png,down,12,1,49,3,1,,,left,left_blue.png,down_orange.png,down,right,up,5fad961b463be513d7486f86,2021-09-08_11h00.13.718,arrow_simon_vert,2021.1.2,Linux x86_64,60.0024001,,,,,,,,,,,,,,,,,,,,,,,,,,,,,,,,,,,,,,
,,,left,1,1.1141,0,0.543827446,#a3d0fb,"[""-0.25"",""0""]",left_blue.png,left,12,2,50,2,1,,,left,left_blue.png,down_orange.png,down,left,down,5fad961b463be513d7486f86,2021-09-08_11h00.13.718,arrow_simon_vert,2021.1.2,Linux x86_64,60.0024001,,,,,,,,,,,,,,,,,,,,,,,,,,,,,,,,,,,,,,
,,,down,1,0.6325,0,0.180965952,#f3af84,"[""0"",""-0.25""]",down_orange.png,down,12,3,51,2,1,,,left,left_blue.png,down_orange.png,down,left,down,5fad961b463be513d7486f86,2021-09-08_11h00.13.718,arrow_simon_vert,2021.1.2,Linux x86_64,60.0024001,,,,,,,,,,,,,,,,,,,,,,,,,,,,,,,,,,,,,,
,,,left,1,0.6324,0,0.221147064,#a3d0fb,"[""-0.25"",""0""]",left_blue.png,left,13,0,52,2,1,,,left,left_blue.png,down_orange.png,down,left,down,5fad961b463be513d7486f86,2021-09-08_11h00.13.718,arrow_simon_vert,2021.1.2,Linux x86_64,60.0024001,,,,,,,,,,,,,,,,,,,,,,,,,,,,,,,,,,,,,,
,,,down,0,1.2025,1,0.436367384,#f3af84,"[""0"",""0.25""]",up_orange.png,up,13,1,53,1,1,,,right,right_blue.png,up_orange.png,up,right,up,5fad961b463be513d7486f86,2021-09-08_11h00.13.718,arrow_simon_vert,2021.1.2,Linux x86_64,60.0024001,,,,,,,,,,,,,,,,,,,,,,,,,,,,,,,,,,,,,,
,,,right,1,1.5821,0,0.891607571,#a3d0fb,"[""-0.25"",""0""]",right_blue.png,right,13,2,54,0,1,,,right,right_blue.png,up_orange.png,up,left,down,5fad961b463be513d7486f86,2021-09-08_11h00.13.718,arrow_simon_vert,2021.1.2,Linux x86_64,60.0024001,,,,,,,,,,,,,,,,,,,,,,,,,,,,,,,,,,,,,,
,,,up,0,1.6734,1,0.952378774,#f3af84,"[""0"",""-0.25""]",down_orange.png,down,13,3,55,2,1,,,left,left_blue.png,down_orange.png,down,left,down,5fad961b463be513d7486f86,2021-09-08_11h00.13.718,arrow_simon_vert,2021.1.2,Linux x86_64,60.0024001,,,,,,,,,,,,,,,,,,,,,,,,,,,,,,,,,,,,,,
,,,right,1,1.8021,0,0.974395666,#a3d0fb,"[""-0.25"",""0""]",right_blue.png,right,14,0,56,0,1,,,right,right_blue.png,up_orange.png,up,left,down,5fad961b463be513d7486f86,2021-09-08_11h00.13.718,arrow_simon_vert,2021.1.2,Linux x86_64,60.0024001,,,,,,,,,,,,,,,,,,,,,,,,,,,,,,,,,,,,,,
,,,down,1,0.8014,0,0.020924722,#f3af84,"[""0"",""0.25""]",down_orange.png,down,14,1,57,3,1,,,left,left_blue.png,down_orange.png,down,right,up,5fad961b463be513d7486f86,2021-09-08_11h00.13.718,arrow_simon_vert,2021.1.2,Linux x86_64,60.0024001,,,,,,,,,,,,,,,,,,,,,,,,,,,,,,,,,,,,,,
,,,right,1,0.9824,0,0.46165647,#a3d0fb,"[""0.25"",""0""]",right_blue.png,right,14,2,58,1,1,,,right,right_blue.png,up_orange.png,up,right,up,5fad961b463be513d7486f86,2021-09-08_11h00.13.718,arrow_simon_vert,2021.1.2,Linux x86_64,60.0024001,,,,,,,,,,,,,,,,,,,,,,,,,,,,,,,,,,,,,,
,,,up,1,1.0662,0,0.233787117,#f3af84,"[""0"",""-0.25""]",up_orange.png,up,14,3,59,0,1,,,right,right_blue.png,up_orange.png,up,left,down,5fad961b463be513d7486f86,2021-09-08_11h00.13.718,arrow_simon_vert,2021.1.2,Linux x86_64,60.0024001,,,,,,,,,,,,,,,,,,,,,,,,,,,,,,,,,,,,,,
,,,,,,,,,,,,,,,,,,,,,,,,,5fad961b463be513d7486f86,2021-09-08_11h00.13.718,arrow_simon_vert,2021.1.2,Linux x86_64,60.0024001,space,147.8246,0,0,0,0,1,,,,,,,,,,,,,,,,,,,,,,,,,,,,,,,
,,,right,1,0.8915,0,0.034882451,#a3d0fb,"[""0.25"",""0""]",right_blue.png,right,0,0,0,1,1,,,right,right_blue.png,up_orange.png,up,right,up,5fad961b463be513d7486f86,2021-09-08_11h00.13.718,arrow_simon_vert,2021.1.2,Linux x86_64,60.0024001,,,,,,,,,,,,,,,,,,,,,,,,,,,,,,,,,,,,,,
,,,up,1,1.4476,0,0.979153338,#f3af84,"[""0"",""0.25""]",up_orange.png,up,0,1,1,1,1,,,right,right_blue.png,up_orange.png,up,right,up,5fad961b463be513d7486f86,2021-09-08_11h00.13.718,arrow_simon_vert,2021.1.2,Linux x86_64,60.0024001,,,,,,,,,,,,,,,,,,,,,,,,,,,,,,,,,,,,,,
,,,left,1,0.6635,0,0.194980757,#a3d0fb,"[""-0.25"",""0""]",left_blue.png,left,0,2,2,2,1,,,left,left_blue.png,down_orange.png,down,left,down,5fad961b463be513d7486f86,2021-09-08_11h00.13.718,arrow_simon_vert,2021.1.2,Linux x86_64,60.0024001,,,,,,,,,,,,,,,,,,,,,,,,,,,,,,,,,,,,,,
,,,up,1,1.1133,0,0.597101284,#f3af84,"[""0"",""0.25""]",up_orange.png,up,0,3,3,1,1,,,right,right_blue.png,up_orange.png,up,right,up,5fad961b463be513d7486f86,2021-09-08_11h00.13.718,arrow_simon_vert,2021.1.2,Linux x86_64,60.0024001,,,,,,,,,,,,,,,,,,,,,,,,,,,,,,,,,,,,,,
,,,right,1,1.2476,0,0.726671364,#a3d0fb,"[""0.25"",""0""]",right_blue.png,right,1,0,4,1,1,,,right,right_blue.png,up_orange.png,up,right,up,5fad961b463be513d7486f86,2021-09-08_11h00.13.718,arrow_simon_vert,2021.1.2,Linux x86_64,60.0024001,,,,,,,,,,,,,,,,,,,,,,,,,,,,,,,,,,,,,,
,,,up,1,1.0495,0,0.270240615,#f3af84,"[""0"",""-0.25""]",up_orange.png,up,1,1,5,0,1,,,right,right_blue.png,up_orange.png,up,left,down,5fad961b463be513d7486f86,2021-09-08_11h00.13.718,arrow_simon_vert,2021.1.2,Linux x86_64,60.0024001,,,,,,,,,,,,,,,,,,,,,,,,,,,,,,,,,,,,,,
,,,right,1,0.8301,0,0.364514068,#a3d0fb,"[""0.25"",""0""]",right_blue.png,right,1,2,6,1,1,,,right,right_blue.png,up_orange.png,up,right,up,5fad961b463be513d7486f86,2021-09-08_11h00.13.718,arrow_simon_vert,2021.1.2,Linux x86_64,60.0024001,,,,,,,,,,,,,,,,,,,,,,,,,,,,,,,,,,,,,,
,,,down,1,1.6131,0,0.823939933,#f3af84,"[""0"",""0.25""]",down_orange.png,down,1,3,7,3,1,,,left,left_blue.png,down_orange.png,down,right,up,5fad961b463be513d7486f86,2021-09-08_11h00.13.718,arrow_simon_vert,2021.1.2,Linux x86_64,60.0024001,,,,,,,,,,,,,,,,,,,,,,,,,,,,,,,,,,,,,,
,,,left,1,0.8999,0,0.340866922,#a3d0fb,"[""0.25"",""0""]",left_blue.png,left,2,0,8,3,1,,,left,left_blue.png,down_orange.png,down,right,up,5fad961b463be513d7486f86,2021-09-08_11h00.13.718,arrow_simon_vert,2021.1.2,Linux x86_64,60.0024001,,,,,,,,,,,,,,,,,,,,,,,,,,,,,,,,,,,,,,
,,,down,1,0.8834,0,0.282389403,#f3af84,"[""0"",""0.25""]",down_orange.png,down,2,1,9,3,1,,,left,left_blue.png,down_orange.png,down,right,up,5fad961b463be513d7486f86,2021-09-08_11h00.13.718,arrow_simon_vert,2021.1.2,Linux x86_64,60.0024001,,,,,,,,,,,,,,,,,,,,,,,,,,,,,,,,,,,,,,
,,,right,1,1.5833,0,0.851086142,#a3d0fb,"[""-0.25"",""0""]",right_blue.png,right,2,2,10,0,1,,,right,right_blue.png,up_orange.png,up,left,down,5fad961b463be513d7486f86,2021-09-08_11h00.13.718,arrow_simon_vert,2021.1.2,Linux x86_64,60.0024001,,,,,,,,,,,,,,,,,,,,,,,,,,,,,,,,,,,,,,
,,,down,1,0.8822,0,0.347307891,#f3af84,"[""0"",""-0.25""]",down_orange.png,down,2,3,11,2,1,,,left,left_blue.png,down_orange.png,down,left,down,5fad961b463be513d7486f86,2021-09-08_11h00.13.718,arrow_simon_vert,2021.1.2,Linux x86_64,60.0024001,,,,,,,,,,,,,,,,,,,,,,,,,,,,,,,,,,,,,,
,,,left,1,0.8881,0,0.506817333,#a3d0fb,"[""-0.25"",""0""]",left_blue.png,left,3,0,12,2,1,,,left,left_blue.png,down_orange.png,down,left,down,5fad961b463be513d7486f86,2021-09-08_11h00.13.718,arrow_simon_vert,2021.1.2,Linux x86_64,60.0024001,,,,,,,,,,,,,,,,,,,,,,,,,,,,,,,,,,,,,,
,,,down,1,0.8979,0,0.426910122,#f3af84,"[""0"",""-0.25""]",down_orange.png,down,3,1,13,2,1,,,left,left_blue.png,down_orange.png,down,left,down,5fad961b463be513d7486f86,2021-09-08_11h00.13.718,arrow_simon_vert,2021.1.2,Linux x86_64,60.0024001,,,,,,,,,,,,,,,,,,,,,,,,,,,,,,,,,,,,,,
,,,left,0,1.1818,1,0.847305751,#a3d0fb,"[""-0.25"",""0""]",right_blue.png,right,3,2,14,0,1,,,right,right_blue.png,up_orange.png,up,left,down,5fad961b463be513d7486f86,2021-09-08_11h00.13.718,arrow_simon_vert,2021.1.2,Linux x86_64,60.0024001,,,,,,,,,,,,,,,,,,,,,,,,,,,,,,,,,,,,,,
,,,up,1,1.2349,0,0.421082479,#f3af84,"[""0"",""-0.25""]",up_orange.png,up,3,3,15,0,1,,,right,right_blue.png,up_orange.png,up,left,down,5fad961b463be513d7486f86,2021-09-08_11h00.13.718,arrow_simon_vert,2021.1.2,Linux x86_64,60.0024001,,,,,,,,,,,,,,,,,,,,,,,,,,,,,,,,,,,,,,
,,,right,0,1.2654,1,0.582189231,#a3d0fb,"[""0.25"",""0""]",left_blue.png,left,4,0,16,3,1,,,left,left_blue.png,down_orange.png,down,right,up,5fad961b463be513d7486f86,2021-09-08_11h00.13.718,arrow_simon_vert,2021.1.2,Linux x86_64,60.0024001,,,,,,,,,,,,,,,,,,,,,,,,,,,,,,,,,,,,,,
,,,up,1,1.3474,0,0.400318592,#f3af84,"[""0"",""-0.25""]",up_orange.png,up,4,1,17,0,1,,,right,right_blue.png,up_orange.png,up,left,down,5fad961b463be513d7486f86,2021-09-08_11h00.13.718,arrow_simon_vert,2021.1.2,Linux x86_64,60.0024001,,,,,,,,,,,,,,,,,,,,,,,,,,,,,,,,,,,,,,
,,,right,1,1.3848,0,0.568642861,#a3d0fb,"[""0.25"",""0""]",right_blue.png,right,4,2,18,1,1,,,right,right_blue.png,up_orange.png,up,right,up,5fad961b463be513d7486f86,2021-09-08_11h00.13.718,arrow_simon_vert,2021.1.2,Linux x86_64,60.0024001,,,,,,,,,,,,,,,,,,,,,,,,,,,,,,,,,,,,,,
,,,up,1,1.6235,0,0.779891986,#f3af84,"[""0"",""0.25""]",up_orange.png,up,4,3,19,1,1,,,right,right_blue.png,up_orange.png,up,right,up,5fad961b463be513d7486f86,2021-09-08_11h00.13.718,arrow_simon_vert,2021.1.2,Linux x86_64,60.0024001,,,,,,,,,,,,,,,,,,,,,,,,,,,,,,,,,,,,,,
,,,right,1,1.6018,0,0.783612644,#a3d0fb,"[""0.25"",""0""]",right_blue.png,right,5,0,20,1,1,,,right,right_blue.png,up_orange.png,up,right,up,5fad961b463be513d7486f86,2021-09-08_11h00.13.718,arrow_simon_vert,2021.1.2,Linux x86_64,60.0024001,,,,,,,,,,,,,,,,,,,,,,,,,,,,,,,,,,,,,,
,,,down,1,1.6638,0,0.852232642,#f3af84,"[""0"",""0.25""]",down_orange.png,down,5,1,21,3,1,,,left,left_blue.png,down_orange.png,down,right,up,5fad961b463be513d7486f86,2021-09-08_11h00.13.718,arrow_simon_vert,2021.1.2,Linux x86_64,60.0024001,,,,,,,,,,,,,,,,,,,,,,,,,,,,,,,,,,,,,,
,,,left,1,1.46,0,0.434045088,#a3d0fb,"[""-0.25"",""0""]",left_blue.png,left,5,2,22,2,1,,,left,left_blue.png,down_orange.png,down,left,down,5fad961b463be513d7486f86,2021-09-08_11h00.13.718,arrow_simon_vert,2021.1.2,Linux x86_64,60.0024001,,,,,,,,,,,,,,,,,,,,,,,,,,,,,,,,,,,,,,
,,,down,1,1.2649,0,0.43717711,#f3af84,"[""0"",""-0.25""]",down_orange.png,down,5,3,23,2,1,,,left,left_blue.png,down_orange.png,down,left,down,5fad961b463be513d7486f86,2021-09-08_11h00.13.718,arrow_simon_vert,2021.1.2,Linux x86_64,60.0024001,,,,,,,,,,,,,,,,,,,,,,,,,,,,,,,,,,,,,,
,,,right,1,1.316,0,0.938356309,#a3d0fb,"[""0.25"",""0""]",right_blue.png,right,6,0,24,1,1,,,right,right_blue.png,up_orange.png,up,right,up,5fad961b463be513d7486f86,2021-09-08_11h00.13.718,arrow_simon_vert,2021.1.2,Linux x86_64,60.0024001,,,,,,,,,,,,,,,,,,,,,,,,,,,,,,,,,,,,,,
,,,down,1,1.3509,0,0.737551828,#f3af84,"[""0"",""-0.25""]",down_orange.png,down,6,1,25,2,1,,,left,left_blue.png,down_orange.png,down,left,down,5fad961b463be513d7486f86,2021-09-08_11h00.13.718,arrow_simon_vert,2021.1.2,Linux x86_64,60.0024001,,,,,,,,,,,,,,,,,,,,,,,,,,,,,,,,,,,,,,
,,,left,1,1.1972,0,0.588689292,#a3d0fb,"[""-0.25"",""0""]",left_blue.png,left,6,2,26,2,1,,,left,left_blue.png,down_orange.png,down,left,down,5fad961b463be513d7486f86,2021-09-08_11h00.13.718,arrow_simon_vert,2021.1.2,Linux x86_64,60.0024001,,,,,,,,,,,,,,,,,,,,,,,,,,,,,,,,,,,,,,
,,,up,1,1.6689,0,0.911733615,#f3af84,"[""0"",""-0.25""]",up_orange.png,up,6,3,27,0,1,,,right,right_blue.png,up_orange.png,up,left,down,5fad961b463be513d7486f86,2021-09-08_11h00.13.718,arrow_simon_vert,2021.1.2,Linux x86_64,60.0024001,,,,,,,,,,,,,,,,,,,,,,,,,,,,,,,,,,,,,,
,,,right,1,1.3275,0,0.324602512,#a3d0fb,"[""0.25"",""0""]",right_blue.png,right,7,0,28,1,1,,,right,right_blue.png,up_orange.png,up,right,up,5fad961b463be513d7486f86,2021-09-08_11h00.13.718,arrow_simon_vert,2021.1.2,Linux x86_64,60.0024001,,,,,,,,,,,,,,,,,,,,,,,,,,,,,,,,,,,,,,
,,,up,1,0.8024,0,0.118188338,#f3af84,"[""0"",""-0.25""]",up_orange.png,up,7,1,29,0,1,,,right,right_blue.png,up_orange.png,up,left,down,5fad961b463be513d7486f86,2021-09-08_11h00.13.718,arrow_simon_vert,2021.1.2,Linux x86_64,60.0024001,,,,,,,,,,,,,,,,,,,,,,,,,,,,,,,,,,,,,,
,,,right,1,0.9878,0,0.457017741,#a3d0fb,"[""0.25"",""0""]",right_blue.png,right,7,2,30,1,1,,,right,right_blue.png,up_orange.png,up,right,up,5fad961b463be513d7486f86,2021-09-08_11h00.13.718,arrow_simon_vert,2021.1.2,Linux x86_64,60.0024001,,,,,,,,,,,,,,,,,,,,,,,,,,,,,,,,,,,,,,
,,,up,1,1.1646,0,0.110018113,#f3af84,"[""0"",""-0.25""]",up_orange.png,up,7,3,31,0,1,,,right,right_blue.png,up_orange.png,up,left,down,5fad961b463be513d7486f86,2021-09-08_11h00.13.718,arrow_simon_vert,2021.1.2,Linux x86_64,60.0024001,,,,,,,,,,,,,,,,,,,,,,,,,,,,,,,,,,,,,,
,,,left,1,1.1985,0,0.25997702,#a3d0fb,"[""0.25"",""0""]",left_blue.png,left,8,0,32,3,1,,,left,left_blue.png,down_orange.png,down,right,up,5fad961b463be513d7486f86,2021-09-08_11h00.13.718,arrow_simon_vert,2021.1.2,Linux x86_64,60.0024001,,,,,,,,,,,,,,,,,,,,,,,,,,,,,,,,,,,,,,
,,,up,1,0.8695,0,0.358092191,#f3af84,"[""0"",""-0.25""]",up_orange.png,up,8,1,33,0,1,,,right,right_blue.png,up_orange.png,up,left,down,5fad961b463be513d7486f86,2021-09-08_11h00.13.718,arrow_simon_vert,2021.1.2,Linux x86_64,60.0024001,,,,,,,,,,,,,,,,,,,,,,,,,,,,,,,,,,,,,,
,,,left,1,0.9747,0,0.506125789,#a3d0fb,"[""-0.25"",""0""]",left_blue.png,left,8,2,34,2,1,,,left,left_blue.png,down_orange.png,down,left,down,5fad961b463be513d7486f86,2021-09-08_11h00.13.718,arrow_simon_vert,2021.1.2,Linux x86_64,60.0024001,,,,,,,,,,,,,,,,,,,,,,,,,,,,,,,,,,,,,,
,,,down,1,1.5654,0,0.216001336,#f3af84,"[""0"",""0.25""]",down_orange.png,down,8,3,35,3,1,,,left,left_blue.png,down_orange.png,down,right,up,5fad961b463be513d7486f86,2021-09-08_11h00.13.718,arrow_simon_vert,2021.1.2,Linux x86_64,60.0024001,,,,,,,,,,,,,,,,,,,,,,,,,,,,,,,,,,,,,,
,,,left,1,0.7694,0,0.190379373,#a3d0fb,"[""0.25"",""0""]",left_blue.png,left,9,0,36,3,1,,,left,left_blue.png,down_orange.png,down,right,up,5fad961b463be513d7486f86,2021-09-08_11h00.13.718,arrow_simon_vert,2021.1.2,Linux x86_64,60.0024001,,,,,,,,,,,,,,,,,,,,,,,,,,,,,,,,,,,,,,
,,,down,1,1.783,0,0.987102383,#f3af84,"[""0"",""-0.25""]",down_orange.png,down,9,1,37,2,1,,,left,left_blue.png,down_orange.png,down,left,down,5fad961b463be513d7486f86,2021-09-08_11h00.13.718,arrow_simon_vert,2021.1.2,Linux x86_64,60.0024001,,,,,,,,,,,,,,,,,,,,,,,,,,,,,,,,,,,,,,
,,,left,1,1.2154,0,0.653206287,#a3d0fb,"[""-0.25"",""0""]",left_blue.png,left,9,2,38,2,1,,,left,left_blue.png,down_orange.png,down,left,down,5fad961b463be513d7486f86,2021-09-08_11h00.13.718,arrow_simon_vert,2021.1.2,Linux x86_64,60.0024001,,,,,,,,,,,,,,,,,,,,,,,,,,,,,,,,,,,,,,
,,,down,1,1.4679,0,0.766788408,#f3af84,"[""0"",""0.25""]",down_orange.png,down,9,3,39,3,1,,,left,left_blue.png,down_orange.png,down,right,up,5fad961b463be513d7486f86,2021-09-08_11h00.13.718,arrow_simon_vert,2021.1.2,Linux x86_64,60.0024001,,,,,,,,,,,,,,,,,,,,,,,,,,,,,,,,,,,,,,
,,,left,1,0.563,0,0.005859007,#a3d0fb,"[""0.25"",""0""]",left_blue.png,left,10,0,40,3,1,,,left,left_blue.png,down_orange.png,down,right,up,5fad961b463be513d7486f86,2021-09-08_11h00.13.718,arrow_simon_vert,2021.1.2,Linux x86_64,60.0024001,,,,,,,,,,,,,,,,,,,,,,,,,,,,,,,,,,,,,,
,,,up,1,1.2845,0,0.396060601,#f3af84,"[""0"",""0.25""]",up_orange.png,up,10,1,41,1,1,,,right,right_blue.png,up_orange.png,up,right,up,5fad961b463be513d7486f86,2021-09-08_11h00.13.718,arrow_simon_vert,2021.1.2,Linux x86_64,60.0024001,,,,,,,,,,,,,,,,,,,,,,,,,,,,,,,,,,,,,,
,,,left,1,1.5499,0,0.112094135,#a3d0fb,"[""-0.25"",""0""]",left_blue.png,left,10,2,42,2,1,,,left,left_blue.png,down_orange.png,down,left,down,5fad961b463be513d7486f86,2021-09-08_11h00.13.718,arrow_simon_vert,2021.1.2,Linux x86_64,60.0024001,,,,,,,,,,,,,,,,,,,,,,,,,,,,,,,,,,,,,,
,,,down,1,1.8119,0,0.392003025,#f3af84,"[""0"",""-0.25""]",down_orange.png,down,10,3,43,2,1,,,left,left_blue.png,down_orange.png,down,left,down,5fad961b463be513d7486f86,2021-09-08_11h00.13.718,arrow_simon_vert,2021.1.2,Linux x86_64,60.0024001,,,,,,,,,,,,,,,,,,,,,,,,,,,,,,,,,,,,,,
,,,left,1,1.1677,0,0.694896051,#a3d0fb,"[""0.25"",""0""]",left_blue.png,left,11,0,44,3,1,,,left,left_blue.png,down_orange.png,down,right,up,5fad961b463be513d7486f86,2021-09-08_11h00.13.718,arrow_simon_vert,2021.1.2,Linux x86_64,60.0024001,,,,,,,,,,,,,,,,,,,,,,,,,,,,,,,,,,,,,,
,,,down,1,1.2817,0,0.590104377,#f3af84,"[""0"",""0.25""]",down_orange.png,down,11,1,45,3,1,,,left,left_blue.png,down_orange.png,down,right,up,5fad961b463be513d7486f86,2021-09-08_11h00.13.718,arrow_simon_vert,2021.1.2,Linux x86_64,60.0024001,,,,,,,,,,,,,,,,,,,,,,,,,,,,,,,,,,,,,,
,,,left,1,0.6164,0,0.114113759,#a3d0fb,"[""0.25"",""0""]",left_blue.png,left,11,2,46,3,1,,,left,left_blue.png,down_orange.png,down,right,up,5fad961b463be513d7486f86,2021-09-08_11h00.13.718,arrow_simon_vert,2021.1.2,Linux x86_64,60.0024001,,,,,,,,,,,,,,,,,,,,,,,,,,,,,,,,,,,,,,
,,,down,1,1.5208,0,0.989559085,#f3af84,"[""0"",""0.25""]",down_orange.png,down,11,3,47,3,1,,,left,left_blue.png,down_orange.png,down,right,up,5fad961b463be513d7486f86,2021-09-08_11h00.13.718,arrow_simon_vert,2021.1.2,Linux x86_64,60.0024001,,,,,,,,,,,,,,,,,,,,,,,,,,,,,,,,,,,,,,
,,,right,1,1.9851,0,0.588767371,#a3d0fb,"[""-0.25"",""0""]",right_blue.png,right,12,0,48,0,1,,,right,right_blue.png,up_orange.png,up,left,down,5fad961b463be513d7486f86,2021-09-08_11h00.13.718,arrow_simon_vert,2021.1.2,Linux x86_64,60.0024001,,,,,,,,,,,,,,,,,,,,,,,,,,,,,,,,,,,,,,
,,,up,1,1.4513,0,0.588217596,#f3af84,"[""0"",""-0.25""]",up_orange.png,up,12,1,49,0,1,,,right,right_blue.png,up_orange.png,up,left,down,5fad961b463be513d7486f86,2021-09-08_11h00.13.718,arrow_simon_vert,2021.1.2,Linux x86_64,60.0024001,,,,,,,,,,,,,,,,,,,,,,,,,,,,,,,,,,,,,,
,,,right,1,1.8118,0,0.771277093,#a3d0fb,"[""-0.25"",""0""]",right_blue.png,right,12,2,50,0,1,,,right,right_blue.png,up_orange.png,up,left,down,5fad961b463be513d7486f86,2021-09-08_11h00.13.718,arrow_simon_vert,2021.1.2,Linux x86_64,60.0024001,,,,,,,,,,,,,,,,,,,,,,,,,,,,,,,,,,,,,,
,,,down,1,1.515,0,0.698383694,#f3af84,"[""0"",""-0.25""]",down_orange.png,down,12,3,51,2,1,,,left,left_blue.png,down_orange.png,down,left,down,5fad961b463be513d7486f86,2021-09-08_11h00.13.718,arrow_simon_vert,2021.1.2,Linux x86_64,60.0024001,,,,,,,,,,,,,,,,,,,,,,,,,,,,,,,,,,,,,,
,,,left,1,1.5019,0,0.952945585,#a3d0fb,"[""-0.25"",""0""]",left_blue.png,left,13,0,52,2,1,,,left,left_blue.png,down_orange.png,down,left,down,5fad961b463be513d7486f86,2021-09-08_11h00.13.718,arrow_simon_vert,2021.1.2,Linux x86_64,60.0024001,,,,,,,,,,,,,,,,,,,,,,,,,,,,,,,,,,,,,,
,,,up,1,2.4471,0,0.574558821,#f3af84,"[""0"",""-0.25""]",up_orange.png,up,13,1,53,0,1,,,right,right_blue.png,up_orange.png,up,left,down,5fad961b463be513d7486f86,2021-09-08_11h00.13.718,arrow_simon_vert,2021.1.2,Linux x86_64,60.0024001,,,,,,,,,,,,,,,,,,,,,,,,,,,,,,,,,,,,,,
,,,left,1,0.7203,0,0.104162521,#a3d0fb,"[""0.25"",""0""]",left_blue.png,left,13,2,54,3,1,,,left,left_blue.png,down_orange.png,down,right,up,5fad961b463be513d7486f86,2021-09-08_11h00.13.718,arrow_simon_vert,2021.1.2,Linux x86_64,60.0024001,,,,,,,,,,,,,,,,,,,,,,,,,,,,,,,,,,,,,,
,,,up,1,1.7978,0,0.498259397,#f3af84,"[""0"",""-0.25""]",up_orange.png,up,13,3,55,0,1,,,right,right_blue.png,up_orange.png,up,left,down,5fad961b463be513d7486f86,2021-09-08_11h00.13.718,arrow_simon_vert,2021.1.2,Linux x86_64,60.0024001,,,,,,,,,,,,,,,,,,,,,,,,,,,,,,,,,,,,,,
,,,right,1,1.0296,0,0.422219522,#a3d0fb,"[""0.25"",""0""]",right_blue.png,right,14,0,56,1,1,,,right,right_blue.png,up_orange.png,up,right,up,5fad961b463be513d7486f86,2021-09-08_11h00.13.718,arrow_simon_vert,2021.1.2,Linux x86_64,60.0024001,,,,,,,,,,,,,,,,,,,,,,,,,,,,,,,,,,,,,,
,,,up,1,0.9641,0,0.224775152,#f3af84,"[""0"",""0.25""]",up_orange.png,up,14,1,57,1,1,,,right,right_blue.png,up_orange.png,up,right,up,5fad961b463be513d7486f86,2021-09-08_11h00.13.718,arrow_simon_vert,2021.1.2,Linux x86_64,60.0024001,,,,,,,,,,,,,,,,,,,,,,,,,,,,,,,,,,,,,,
,,,right,1,1.3149,0,0.485231634,#a3d0fb,"[""-0.25"",""0""]",right_blue.png,right,14,2,58,0,1,,,right,right_blue.png,up_orange.png,up,left,down,5fad961b463be513d7486f86,2021-09-08_11h00.13.718,arrow_simon_vert,2021.1.2,Linux x86_64,60.0024001,,,,,,,,,,,,,,,,,,,,,,,,,,,,,,,,,,,,,,
,,,up,1,2.0808,0,0.536910055,#f3af84,"[""0"",""0.25""]",up_orange.png,up,14,3,59,1,1,,,right,right_blue.png,up_orange.png,up,right,up,5fad961b463be513d7486f86,2021-09-08_11h00.13.718,arrow_simon_vert,2021.1.2,Linux x86_64,60.0024001,,,,,,,,,,,,,,,,,,,,,,,,,,,,,,,,,,,,,,
,,,,,,,,,,,,,,,,,,,,,,,,,5fad961b463be513d7486f86,2021-09-08_11h00.13.718,arrow_simon_vert,2021.1.2,Linux x86_64,60.0024001,space,6.1307,1,0,1,0,1,,,,,,,,,,,,,,,,,,,,,,,,,,,,,,,
,,,,,,,,,,,,,,,,,,,,,,,,,5fad961b463be513d7486f86,2021-09-08_11h00.13.718,arrow_simon_vert,2021.1.2,Linux x86_64,60.0024001,,,,,,,,space,0,48.1568,up,3.0439,0,0,0,0,1,,,,,,,,,,,,,,,,,,,,,
,,,,,,,,,,,,,,,,,,,,,,,,,5fad961b463be513d7486f86,2021-09-08_11h00.13.718,arrow_simon_vert,2021.1.2,Linux x86_64,60.0024001,,,,,,,,,,,left,2.9636,1,0,1,0,1,,,,,,,,,,,,,,,,,,,,,
,,,,,,,,,,,,,,,,,,,,,,,,,5fad961b463be513d7486f86,2021-09-08_11h00.13.718,arrow_simon_vert,2021.1.2,Linux x86_64,60.0024001,,,,,,,,,,,right,2.9153,2,0,2,0,1,,,,,,,,,,,,,,,,,,,,,
,,,,,,,,,,,,,,,,,,,,,,,,,5fad961b463be513d7486f86,2021-09-08_11h00.13.718,arrow_simon_vert,2021.1.2,Linux x86_64,60.0024001,,,,,,,,,,,right,2.7785,3,0,3,0,1,,,,,,,,,,,,,,,,,,,,,
,,,,,,,,,,,,,,,,,,,,,,,,,5fad961b463be513d7486f86,2021-09-08_11h00.13.718,arrow_simon_vert,2021.1.2,Linux x86_64,60.0024001,,,,,,,,,,,left,2.6531,4,0,4,0,1,,,,,,,,,,,,,,,,,,,,,
,,,,,,,,,,,,,,,,,,,,,,,,,5fad961b463be513d7486f86,2021-09-08_11h00.13.718,arrow_simon_vert,2021.1.2,Linux x86_64,60.0024001,,,,,,,,,,,up,2.7358,5,0,5,0,1,,,,,,,,,,,,,,,,,,,,,
,,,,,,,,,,,,,,,,,,,,,,,,,5fad961b463be513d7486f86,2021-09-08_11h00.13.718,arrow_simon_vert,2021.1.2,Linux x86_64,60.0024001,,,,,,,,,,,down,2.0873,6,0,6,0,1,,,,,,,,,,,,,,,,,,,,,
,,,,,,,,,,,,,,,,,,,,,,,,,5fad961b463be513d7486f86,2021-09-08_11h00.13.718,arrow_simon_vert,2021.1.2,Linux x86_64,60.0024001,,,,,,,,,,,left,2.3307,7,0,7,0,1,,,,,,,,,,,,,,,,,,,,,
,,,,,,,,,,,,,,,,,,,,,,,,,5fad961b463be513d7486f86,2021-09-08_11h00.13.718,arrow_simon_vert,2021.1.2,Linux x86_64,60.0024001,,,,,,,,,,,right,2.8192,8,0,8,0,1,,,,,,,,,,,,,,,,,,,,,
,,,,,,,,,,,,,,,,,,,,,,,,,5fad961b463be513d7486f86,2021-09-08_11h00.13.718,arrow_simon_vert,2021.1.2,Linux x86_64,60.0024001,,,,,,,,,,,up,2.3315,9,0,9,0,1,,,,,,,,,,,,,,,,,,,,,
,,,,,,,,,,,,,,,,,,,,,,,,,5fad961b463be513d7486f86,2021-09-08_11h00.13.718,arrow_simon_vert,2021.1.2,Linux x86_64,60.0024001,,,,,,,,,,,left,2.8143,10,0,10,0,1,,,,,,,,,,,,,,,,,,,,,
,,,,,,,,,,,,,,,,,,,,,,,,,5fad961b463be513d7486f86,2021-09-08_11h00.13.718,arrow_simon_vert,2021.1.2,Linux x86_64,60.0024001,,,,,,,,,,,left,2.7711,11,0,11,0,1,,,,,,,,,,,,,,,,,,,,,
,,,,,,,,,,,,,,,,,,,,,,,,,5fad961b463be513d7486f86,2021-09-08_11h00.13.718,arrow_simon_vert,2021.1.2,Linux x86_64,60.0024001,,,,,,,,,,,right,2.7149,12,0,12,0,1,,,,,,,,,,,,,,,,,,,,,
,,,,,,,,,,,,,,,,,,,,,,,,,5fad961b463be513d7486f86,2021-09-08_11h00.13.718,arrow_simon_vert,2021.1.2,Linux x86_64,60.0024001,,,,,,,,,,,right,2.8298,13,0,13,0,1,,,,,,,,,,,,,,,,,,,,,
,,,,,,,,,,,,,,,,,,,,,,,,,5fad961b463be513d7486f86,2021-09-08_11h00.13.718,arrow_simon_vert,2021.1.2,Linux x86_64,60.0024001,,,,,,,,,,,down,2.2157,14,0,14,0,1,,,,,,,,,,,,,,,,,,,,,
,,,,,,,,,,,,,,,,,,,,,,,,,5fad961b463be513d7486f86,2021-09-08_11h00.13.718,arrow_simon_vert,2021.1.2,Linux x86_64,60.0024001,,,,,,,,,,,up,2.219,15,0,15,0,1,,,,,,,,,,,,,,,,,,,,,
,,,,,,,,,,,,,,,,,,,,,,,,,5fad961b463be513d7486f86,2021-09-08_11h00.13.718,arrow_simon_vert,2021.1.2,Linux x86_64,60.0024001,,,,,,,,,,,left,2.6688,16,0,16,0,1,,,,,,,,,,,,,,,,,,,,,
,,,,,,,,,,,,,,,,,,,,,,,,,5fad961b463be513d7486f86,2021-09-08_11h00.13.718,arrow_simon_vert,2021.1.2,Linux x86_64,60.0024001,,,,,,,,,,,up,2.7998,17,0,17,0,1,,,,,,,,,,,,,,,,,,,,,
,,,,,,,,,,,,,,,,,,,,,,,,,5fad961b463be513d7486f86,2021-09-08_11h00.13.718,arrow_simon_vert,2021.1.2,Linux x86_64,60.0024001,,,,,,,,,,,down,2.7816,18,0,18,0,1,,,,,,,,,,,,,,,,,,,,,
,,,,,,,,,,,,,,,,,,,,,,,,,5fad961b463be513d7486f86,2021-09-08_11h00.13.718,arrow_simon_vert,2021.1.2,Linux x86_64,60.0024001,,,,,,,,,,,right,2.2006,19,0,19,0,1,,,,,,,,,,,,,,,,,,,,,
,,,,,,,,,,,,,,,,,,,,,,,,,5fad961b463be513d7486f86,2021-09-08_11h00.13.718,arrow_simon_vert,2021.1.2,Linux x86_64,60.0024001,,,,,,,,,,,down,2.4793,20,0,20,0,1,,,,,,,,,,,,,,,,,,,,,
,,,,,,,,,,,,,,,,,,,,,,,,,5fad961b463be513d7486f86,2021-09-08_11h00.13.718,arrow_simon_vert,2021.1.2,Linux x86_64,60.0024001,,,,,,,,,,,left,2.8697,21,0,21,0,1,,,,,,,,,,,,,,,,,,,,,
,,,,,,,,,,,,,,,,,,,,,,,,,5fad961b463be513d7486f86,2021-09-08_11h00.13.718,arrow_simon_vert,2021.1.2,Linux x86_64,60.0024001,,,,,,,,,,,right,2.8847,22,0,22,0,1,,,,,,,,,,,,,,,,,,,,,
,,,,,,,,,,,,,,,,,,,,,,,,,5fad961b463be513d7486f86,2021-09-08_11h00.13.718,arrow_simon_vert,2021.1.2,Linux x86_64,60.0024001,,,,,,,,,,,down,2.7484,23,0,23,0,1,,,,,,,,,,,,,,,,,,,,,
,,,,,,,,,,,,,,,,,,,,,,,,,5fad961b463be513d7486f86,2021-09-08_11h00.13.718,arrow_simon_vert,2021.1.2,Linux x86_64,60.0024001,,,,,,,,,,,up,2.8504,24,0,24,0,1,,,,,,,,,,,,,,,,,,,,,
,,,,,,,,,,,,,,,,,,,,,,,,,5fad961b463be513d7486f86,2021-09-08_11h00.13.718,arrow_simon_vert,2021.1.2,Linux x86_64,60.0024001,,,,,,,,,,,down,1.9817,25,0,25,0,1,,,,,,,,,,,,,,,,,,,,,
,,,,,,,,,,,,,,,,,,,,,,,,,5fad961b463be513d7486f86,2021-09-08_11h00.13.718,arrow_simon_vert,2021.1.2,Linux x86_64,60.0024001,,,,,,,,,,,left,2.4465,26,0,26,0,1,,,,,,,,,,,,,,,,,,,,,
,,,,,,,,,,,,,,,,,,,,,,,,,5fad961b463be513d7486f86,2021-09-08_11h00.13.718,arrow_simon_vert,2021.1.2,Linux x86_64,60.0024001,,,,,,,,,,,up,2.5195,27,0,27,0,1,,,,,,,,,,,,,,,,,,,,,
,,,,,,,,,,,,,,,,,,,,,,,,,5fad961b463be513d7486f86,2021-09-08_11h00.13.718,arrow_simon_vert,2021.1.2,Linux x86_64,60.0024001,,,,,,,,,,,up,2.8095,28,0,28,0,1,,,,,,,,,,,,,,,,,,,,,
,,,,,,,,,,,,,,,,,,,,,,,,,5fad961b463be513d7486f86,2021-09-08_11h00.13.718,arrow_simon_vert,2021.1.2,Linux x86_64,60.0024001,,,,,,,,,,,up,2.6351,29,0,29,0,1,,,,,,,,,,,,,,,,,,,,,
,,,,,,,,,,,,,,,,,,,,,,,,,5fad961b463be513d7486f86,2021-09-08_11h00.13.718,arrow_simon_vert,2021.1.2,Linux x86_64,60.0024001,,,,,,,,,,,up,3.0225,30,0,30,0,1,,,,,,,,,,,,,,,,,,,,,
,,,,,,,,,,,,,,,,,,,,,,,,,5fad961b463be513d7486f86,2021-09-08_11h00.13.718,arrow_simon_vert,2021.1.2,Linux x86_64,60.0024001,,,,,,,,,,,up,2.5817,31,0,31,0,1,,,,,,,,,,,,,,,,,,,,,
,,,,,,,,,,,,,,,,,,,,,,,,,5fad961b463be513d7486f86,2021-09-08_11h00.13.718,arrow_simon_vert,2021.1.2,Linux x86_64,60.0024001,,,,,,,,,,,left,2.5637,32,0,32,0,1,,,,,,,,,,,,,,,,,,,,,
,,,,,,,,,,,,,,,,,,,,,,,,,5fad961b463be513d7486f86,2021-09-08_11h00.13.718,arrow_simon_vert,2021.1.2,Linux x86_64,60.0024001,,,,,,,,,,,up,2.5689,33,0,33,0,1,,,,,,,,,,,,,,,,,,,,,
,,,,,,,,,,,,,,,,,,,,,,,,,5fad961b463be513d7486f86,2021-09-08_11h00.13.718,arrow_simon_vert,2021.1.2,Linux x86_64,60.0024001,,,,,,,,,,,left,2.5827,34,0,34,0,1,,,,,,,,,,,,,,,,,,,,,
,,,,,,,,,,,,,,,,,,,,,,,,,5fad961b463be513d7486f86,2021-09-08_11h00.13.718,arrow_simon_vert,2021.1.2,Linux x86_64,60.0024001,,,,,,,,,,,up,2.5655,35,0,35,0,1,,,,,,,,,,,,,,,,,,,,,
,,,,,,,,,,,,,,,,,,,,,,,,,5fad961b463be513d7486f86,2021-09-08_11h00.13.718,arrow_simon_vert,2021.1.2,Linux x86_64,60.0024001,,,,,,,,,,,left,2.6641,36,0,36,0,1,,,,,,,,,,,,,,,,,,,,,
,,,,,,,,,,,,,,,,,,,,,,,,,5fad961b463be513d7486f86,2021-09-08_11h00.13.718,arrow_simon_vert,2021.1.2,Linux x86_64,60.0024001,,,,,,,,,,,up,2.4864,37,0,37,0,1,,,,,,,,,,,,,,,,,,,,,
,,,,,,,,,,,,,,,,,,,,,,,,,5fad961b463be513d7486f86,2021-09-08_11h00.13.718,arrow_simon_vert,2021.1.2,Linux x86_64,60.0024001,,,,,,,,,,,left,2.5316,38,0,38,0,1,,,,,,,,,,,,,,,,,,,,,
,,,,,,,,,,,,,,,,,,,,,,,,,5fad961b463be513d7486f86,2021-09-08_11h00.13.718,arrow_simon_vert,2021.1.2,Linux x86_64,60.0024001,,,,,,,,,,,up,2.5512,39,0,39,0,1,,,,,,,,,,,,,,,,,,,,,
,,,,,,,,,,,,,,,,,,,,,,,,,5fad961b463be513d7486f86,2021-09-08_11h00.13.718,arrow_simon_vert,2021.1.2,Linux x86_64,60.0024001,,,,,,,,,,,left,2.5501,40,0,40,0,1,,,,,,,,,,,,,,,,,,,,,
,,,,,,,,,,,,,,,,,,,,,,,,,5fad961b463be513d7486f86,2021-09-08_11h00.13.718,arrow_simon_vert,2021.1.2,Linux x86_64,60.0024001,,,,,,,,,,,up,2.5321,41,0,41,0,1,,,,,,,,,,,,,,,,,,,,,
,,,,,,,,,,,,,,,,,,,,,,,,,5fad961b463be513d7486f86,2021-09-08_11h00.13.718,arrow_simon_vert,2021.1.2,Linux x86_64,60.0024001,,,,,,,,,,,left,2.5488,42,0,42,0,1,,,,,,,,,,,,,,,,,,,,,
,,,,,,,,,,,,,,,,,,,,,,,,,5fad961b463be513d7486f86,2021-09-08_11h00.13.718,arrow_simon_vert,2021.1.2,Linux x86_64,60.0024001,,,,,,,,,,,up,2.606,43,0,43,0,1,,,,,,,,,,,,,,,,,,,,,
,,,,,,,,,,,,,,,,,,,,,,,,,5fad961b463be513d7486f86,2021-09-08_11h00.13.718,arrow_simon_vert,2021.1.2,Linux x86_64,60.0024001,,,,,,,,,,,left,2.5353,44,0,44,0,1,,,,,,,,,,,,,,,,,,,,,
,,,,,,,,,,,,,,,,,,,,,,,,,5fad961b463be513d7486f86,2021-09-08_11h00.13.718,arrow_simon_vert,2021.1.2,Linux x86_64,60.0024001,,,,,,,,,,,up,2.5352,45,0,45,0,1,,,,,,,,,,,,,,,,,,,,,
,,,,,,,,,,,,,,,,,,,,,,,,,5fad961b463be513d7486f86,2021-09-08_11h00.13.718,arrow_simon_vert,2021.1.2,Linux x86_64,60.0024001,,,,,,,,,,,left,2.5001,46,0,46,0,1,,,,,,,,,,,,,,,,,,,,,
,,,,,,,,,,,,,,,,,,,,,,,,,5fad961b463be513d7486f86,2021-09-08_11h00.13.718,arrow_simon_vert,2021.1.2,Linux x86_64,60.0024001,,,,,,,,,,,up,3.4007,47,0,47,0,1,,,,,,,,,,,,,,,,,,,,,
,,,,,,,,,,,,,,,,,,,,,,,,,5fad961b463be513d7486f86,2021-09-08_11h00.13.718,arrow_simon_vert,2021.1.2,Linux x86_64,60.0024001,,,,,,,,,,,left,2.5374,48,0,48,0,1,,,,,,,,,,,,,,,,,,,,,
,,,,,,,,,,,,,,,,,,,,,,,,,5fad961b463be513d7486f86,2021-09-08_11h00.13.718,arrow_simon_vert,2021.1.2,Linux x86_64,60.0024001,,,,,,,,,,,up,2.5342,49,0,49,0,1,,,,,,,,,,,,,,,,,,,,,
,,,,,,,,,,,,,,,,,,,,,,,,,5fad961b463be513d7486f86,2021-09-08_11h00.13.718,arrow_simon_vert,2021.1.2,Linux x86_64,60.0024001,,,,,,,,,,,left,2.5144,50,0,50,0,1,,,,,,,,,,,,,,,,,,,,,
,,,,,,,,,,,,,,,,,,,,,,,,,5fad961b463be513d7486f86,2021-09-08_11h00.13.718,arrow_simon_vert,2021.1.2,Linux x86_64,60.0024001,,,,,,,,,,,up,2.4499,51,0,51,0,1,,,,,,,,,,,,,,,,,,,,,
,,,,,,,,,,,,,,,,,,,,,,,,,5fad961b463be513d7486f86,2021-09-08_11h00.13.718,arrow_simon_vert,2021.1.2,Linux x86_64,60.0024001,,,,,,,,,,,left,2.5651,52,0,52,0,1,,,,,,,,,,,,,,,,,,,,,
,,,,,,,,,,,,,,,,,,,,,,,,,5fad961b463be513d7486f86,2021-09-08_11h00.13.718,arrow_simon_vert,2021.1.2,Linux x86_64,60.0024001,,,,,,,,,,,up,2.6322,53,0,53,0,1,,,,,,,,,,,,,,,,,,,,,
,,,,,,,,,,,,,,,,,,,,,,,,,5fad961b463be513d7486f86,2021-09-08_11h00.13.718,arrow_simon_vert,2021.1.2,Linux x86_64,60.0024001,,,,,,,,,,,left,2.5349,54,0,54,0,1,,,,,,,,,,,,,,,,,,,,,
,,,,,,,,,,,,,,,,,,,,,,,,,5fad961b463be513d7486f86,2021-09-08_11h00.13.718,arrow_simon_vert,2021.1.2,Linux x86_64,60.0024001,,,,,,,,,,,up,2.4694,55,0,55,0,1,,,,,,,,,,,,,,,,,,,,,
,,,,,,,,,,,,,,,,,,,,,,,,,5fad961b463be513d7486f86,2021-09-08_11h00.13.718,arrow_simon_vert,2021.1.2,Linux x86_64,60.0024001,,,,,,,,,,,left,2.4861,56,0,56,0,1,,,,,,,,,,,,,,,,,,,,,
,,,,,,,,,,,,,,,,,,,,,,,,,5fad961b463be513d7486f86,2021-09-08_11h00.13.718,arrow_simon_vert,2021.1.2,Linux x86_64,60.0024001,,,,,,,,,,,up,2.5508,57,0,57,0,1,,,,,,,,,,,,,,,,,,,,,
,,,,,,,,,,,,,,,,,,,,,,,,,5fad961b463be513d7486f86,2021-09-08_11h00.13.718,arrow_simon_vert,2021.1.2,Linux x86_64,60.0024001,,,,,,,,,,,left,2.536,58,0,58,0,1,,,,,,,,,,,,,,,,,,,,,
,,,,,,,,,,,,,,,,,,,,,,,,,5fad961b463be513d7486f86,2021-09-08_11h00.13.718,arrow_simon_vert,2021.1.2,Linux x86_64,60.0024001,,,,,,,,,,,up,2.4989,59,0,59,0,1,,,,,,,,,,,,,,,,,,,,,
,,,,,,0,1.864600946,#a3d0fb,"[""0.25"",""0""]",left_blue.png,left,,,,,,,,left,left_blue.png,down_orange.png,down,right,up,5fad961b463be513d7486f86,2021-09-08_11h00.13.718,arrow_simon_vert,2021.1.2,Linux x86_64,60.0024001,,,,,,,,,,,,,,,,,,space,0,12.548,left,1,1.5731,1,FALSE,FALSE,0,0,0,3,1,,,,,,,
,,,,,,0,2.200724075,#f3af84,"[""0"",""0.25""]",up_orange.png,up,,,,,,,,right,right_blue.png,up_orange.png,up,right,up,5fad961b463be513d7486f86,2021-09-08_11h00.13.718,arrow_simon_vert,2021.1.2,Linux x86_64,60.0024001,,,,,,,,,,,,,,,,,,,,,up,1,1.5852,2,FALSE,FALSE,0,1,1,1,1,,,,,,,
,,,,,,0,2.392912764,#a3d0fb,"[""0.25"",""0""]",left_blue.png,left,,,,,,,,left,left_blue.png,down_orange.png,down,right,up,5fad961b463be513d7486f86,2021-09-08_11h00.13.718,arrow_simon_vert,2021.1.2,Linux x86_64,60.0024001,,,,,,,,,,,,,,,,,,,,,left,1,1.3854,3,FALSE,TRUE,0,2,2,3,1,,,,,,,
,,,,,,1,2.326752,#f3af84,"[""0"",""-0.25""]",down_orange.png,down,,,,,,,,left,left_blue.png,down_orange.png,down,left,down,5fad961b463be513d7486f86,2021-09-08_11h00.13.718,arrow_simon_vert,2021.1.2,Linux x86_64,60.0024001,,,,,,,,,,,,,,,,,,,,,up,0,1.5516,4,FALSE,FALSE,0,3,3,2,1,,,,,,,
,,,,,,1,1.618389417,#a3d0fb,"[""0.25"",""0""]",left_blue.png,left,,,,,,,,left,left_blue.png,down_orange.png,down,right,up,5fad961b463be513d7486f86,2021-09-08_11h00.13.718,arrow_simon_vert,2021.1.2,Linux x86_64,60.0024001,,,,,,,,,,,,,,,,,,,,,left,1,1.2555,5,FALSE,TRUE,1,0,4,3,1,,,,,,,
,,,,,,1,1.975925412,#f3af84,"[""0"",""-0.25""]",down_orange.png,down,,,,,,,,left,left_blue.png,down_orange.png,down,left,down,5fad961b463be513d7486f86,2021-09-08_11h00.13.718,arrow_simon_vert,2021.1.2,Linux x86_64,60.0024001,,,,,,,,,,,,,,,,,,,,,down,1,1.3668,6,FALSE,TRUE,1,1,5,2,1,,,,,,,
,,,,,,1,2.371989806,#a3d0fb,"[""0.25"",""0""]",right_blue.png,right,,,,,,,,right,right_blue.png,up_orange.png,up,right,up,5fad961b463be513d7486f86,2021-09-08_11h00.13.718,arrow_simon_vert,2021.1.2,Linux x86_64,60.0024001,,,,,,,,,,,,,,,,,,,,,down,0,1.667,7,TRUE,FALSE,1,2,6,1,1,,,,,,,
,,,,,,1,2.379392293,#f3af84,"[""0"",""0.25""]",up_orange.png,up,,,,,,,,right,right_blue.png,up_orange.png,up,right,up,5fad961b463be513d7486f86,2021-09-08_11h00.13.718,arrow_simon_vert,2021.1.2,Linux x86_64,60.0024001,,,,,,,,,,,,,,,,,,,,,up,1,1.764,8,TRUE,FALSE,1,3,7,1,1,,,,,,,
,,,,,,1,2.212598828,#a3d0fb,"[""-0.25"",""0""]",right_blue.png,right,,,,,,,,right,right_blue.png,up_orange.png,up,left,down,5fad961b463be513d7486f86,2021-09-08_11h00.13.718,arrow_simon_vert,2021.1.2,Linux x86_64,60.0024001,,,,,,,,,,,,,,,,,,,,,left,0,0.8512,9,FALSE,TRUE,2,0,8,0,1,,,,,,,
,,,,,,1,2.094636552,#f3af84,"[""0"",""-0.25""]",down_orange.png,down,,,,,,,,left,left_blue.png,down_orange.png,down,left,down,5fad961b463be513d7486f86,2021-09-08_11h00.13.718,arrow_simon_vert,2021.1.2,Linux x86_64,60.0024001,,,,,,,,,,,,,,,,,,,,,down,1,1.7822,10,TRUE,FALSE,2,1,9,2,1,,,,,,,
,,,,,,1,1.61634164,#a3d0fb,"[""0.25"",""0""]",right_blue.png,right,,,,,,,,right,right_blue.png,up_orange.png,up,right,up,5fad961b463be513d7486f86,2021-09-08_11h00.13.718,arrow_simon_vert,2021.1.2,Linux x86_64,60.0024001,,,,,,,,,,,,,,,,,,,,,right,1,1.3854,11,FALSE,TRUE,2,2,10,1,1,,,,,,,
,,,,,,1,1.582324646,#f3af84,"[""0"",""-0.25""]",down_orange.png,down,,,,,,,,left,left_blue.png,down_orange.png,down,left,down,5fad961b463be513d7486f86,2021-09-08_11h00.13.718,arrow_simon_vert,2021.1.2,Linux x86_64,60.0024001,,,,,,,,,,,,,,,,,,,,,down,1,1.3188,12,FALSE,TRUE,2,3,11,2,1,,,,,,,
,,,,,,0,1.927352358,#a3d0fb,"[""-0.25"",""0""]",left_blue.png,left,,,,,,,,left,left_blue.png,down_orange.png,down,left,down,5fad961b463be513d7486f86,2021-09-08_11h00.13.718,arrow_simon_vert,2021.1.2,Linux x86_64,60.0024001,,,,,,,,,,,,,,,,,,,,,left,1,1.5576,13,FALSE,FALSE,3,0,12,2,1,,,,,,,
,,,,,,0,1.729235592,#f3af84,"[""0"",""-0.25""]",up_orange.png,up,,,,,,,,right,right_blue.png,up_orange.png,up,left,down,5fad961b463be513d7486f86,2021-09-08_11h00.13.718,arrow_simon_vert,2021.1.2,Linux x86_64,60.0024001,,,,,,,,,,,,,,,,,,,,,up,1,1.5678,14,FALSE,FALSE,3,1,13,0,1,,,,,,,
,,,,,,1,2.06844625,#a3d0fb,"[""0.25"",""0""]",right_blue.png,right,,,,,,,,right,right_blue.png,up_orange.png,up,right,up,5fad961b463be513d7486f86,2021-09-08_11h00.13.718,arrow_simon_vert,2021.1.2,Linux x86_64,60.0024001,,,,,,,,,,,,,,,,,,,,,left,0,1.568,15,FALSE,FALSE,3,2,14,1,1,,,,,,,
,,,,,,1,2.197292727,#f3af84,"[""0"",""-0.25""]",up_orange.png,up,,,,,,,,right,right_blue.png,up_orange.png,up,left,down,5fad961b463be513d7486f86,2021-09-08_11h00.13.718,arrow_simon_vert,2021.1.2,Linux x86_64,60.0024001,,,,,,,,,,,,,,,,,,,,,up,1,1.6691,16,TRUE,FALSE,3,3,15,0,1,,,,,,,
,,,,,,0,1.543128335,#a3d0fb,"[""0.25"",""0""]",left_blue.png,left,,,,,,,,left,left_blue.png,down_orange.png,down,right,up,5fad961b463be513d7486f86,2021-09-08_11h00.13.718,arrow_simon_vert,2021.1.2,Linux x86_64,60.0024001,,,,,,,,,,,,,,,,,,,,,left,1,1.5195,17,FALSE,FALSE,4,0,16,3,1,,,,,,,
,,,,,,0,2.196880733,#f3af84,"[""0"",""-0.25""]",up_orange.png,up,,,,,,,,right,right_blue.png,up_orange.png,up,left,down,5fad961b463be513d7486f86,2021-09-08_11h00.13.718,arrow_simon_vert,2021.1.2,Linux x86_64,60.0024001,,,,,,,,,,,,,,,,,,,,,up,1,1.6151,18,TRUE,FALSE,4,1,17,0,1,,,,,,,
,,,,,,0,2.028226128,#a3d0fb,"[""0.25"",""0""]",left_blue.png,left,,,,,,,,left,left_blue.png,down_orange.png,down,right,up,5fad961b463be513d7486f86,2021-09-08_11h00.13.718,arrow_simon_vert,2021.1.2,Linux x86_64,60.0024001,,,,,,,,,,,,,,,,,,,,,left,1,1.6056,19,TRUE,FALSE,4,2,18,3,1,,,,,,,
,,,,,,0,2.268030776,#f3af84,"[""0"",""-0.25""]",down_orange.png,down,,,,,,,,left,left_blue.png,down_orange.png,down,left,down,5fad961b463be513d7486f86,2021-09-08_11h00.13.718,arrow_simon_vert,2021.1.2,Linux x86_64,60.0024001,,,,,,,,,,,,,,,,,,,,,down,1,1.7018,20,TRUE,FALSE,4,3,19,2,1,,,,,,,
,,,,,,0,1.75306874,#a3d0fb,"[""0.25"",""0""]",left_blue.png,left,,,,,,,,left,left_blue.png,down_orange.png,down,right,up,5fad961b463be513d7486f86,2021-09-08_11h00.13.718,arrow_simon_vert,2021.1.2,Linux x86_64,60.0024001,,,,,,,,,,,,,,,,,,,,,left,1,1.2645,21,FALSE,TRUE,5,0,20,3,1,,,,,,,
,,,,,,0,1.692505855,#f3af84,"[""0"",""0.25""]",up_orange.png,up,,,,,,,,right,right_blue.png,up_orange.png,up,right,up,5fad961b463be513d7486f86,2021-09-08_11h00.13.718,arrow_simon_vert,2021.1.2,Linux x86_64,60.0024001,,,,,,,,,,,,,,,,,,,,,up,1,1.2844,22,FALSE,TRUE,5,1,21,1,1,,,,,,,
,,,,,,0,1.713013356,#a3d0fb,"[""-0.25"",""0""]",right_blue.png,right,,,,,,,,right,right_blue.png,up_orange.png,up,left,down,5fad961b463be513d7486f86,2021-09-08_11h00.13.718,arrow_simon_vert,2021.1.2,Linux x86_64,60.0024001,,,,,,,,,,,,,,,,,,,,,right,1,1.6518,23,TRUE,FALSE,5,2,22,0,1,,,,,,,
,,,,,,0,2.178855155,#f3af84,"[""0"",""0.25""]",up_orange.png,up,,,,,,,,right,right_blue.png,up_orange.png,up,right,up,5fad961b463be513d7486f86,2021-09-08_11h00.13.718,arrow_simon_vert,2021.1.2,Linux x86_64,60.0024001,,,,,,,,,,,,,,,,,,,,,up,1,1.7696,24,TRUE,FALSE,5,3,23,1,1,,,,,,,
,,,,,,0,1.893090582,#a3d0fb,"[""0.25"",""0""]",left_blue.png,left,,,,,,,,left,left_blue.png,down_orange.png,down,right,up,5fad961b463be513d7486f86,2021-09-08_11h00.13.718,arrow_simon_vert,2021.1.2,Linux x86_64,60.0024001,,,,,,,,,,,,,,,,,,,,,left,1,1.5481,25,FALSE,FALSE,6,0,24,3,1,,,,,,,
,,,,,,0,2.412511522,#f3af84,"[""0"",""0.25""]",down_orange.png,down,,,,,,,,left,left_blue.png,down_orange.png,down,right,up,5fad961b463be513d7486f86,2021-09-08_11h00.13.718,arrow_simon_vert,2021.1.2,Linux x86_64,60.0024001,,,,,,,,,,,,,,,,,,,,,down,1,1.9831,26,TRUE,FALSE,6,1,25,3,1,,,,,,,
,,,,,,0,2.194910356,#a3d0fb,"[""-0.25"",""0""]",right_blue.png,right,,,,,,,,right,right_blue.png,up_orange.png,up,left,down,5fad961b463be513d7486f86,2021-09-08_11h00.13.718,arrow_simon_vert,2021.1.2,Linux x86_64,60.0024001,,,,,,,,,,,,,,,,,,,,,right,1,1.797,27,TRUE,FALSE,6,2,26,0,1,,,,,,,
,,,,,,0,2.087367559,#f3af84,"[""0"",""0.25""]",up_orange.png,up,,,,,,,,right,right_blue.png,up_orange.png,up,right,up,5fad961b463be513d7486f86,2021-09-08_11h00.13.718,arrow_simon_vert,2021.1.2,Linux x86_64,60.0024001,,,,,,,,,,,,,,,,,,,,,up,1,1.4707,28,FALSE,FALSE,6,3,27,1,1,,,,,,,
,,,,,,0,1.785299969,#a3d0fb,"[""0.25"",""0""]",right_blue.png,right,,,,,,,,right,right_blue.png,up_orange.png,up,right,up,5fad961b463be513d7486f86,2021-09-08_11h00.13.718,arrow_simon_vert,2021.1.2,Linux x86_64,60.0024001,,,,,,,,,,,,,,,,,,,,,right,1,1.584,29,FALSE,FALSE,7,0,28,1,1,,,,,,,
,,,,,,0,1.525016058,#f3af84,"[""0"",""-0.25""]",down_orange.png,down,,,,,,,,left,left_blue.png,down_orange.png,down,left,down,5fad961b463be513d7486f86,2021-09-08_11h00.13.718,arrow_simon_vert,2021.1.2,Linux x86_64,60.0024001,,,,,,,,,,,,,,,,,,,,,down,1,1.9298,30,TRUE,FALSE,7,1,29,2,1,,,,,,,
,,,,,,0,1.876057925,#a3d0fb,"[""-0.25"",""0""]",left_blue.png,left,,,,,,,,left,left_blue.png,down_orange.png,down,left,down,5fad961b463be513d7486f86,2021-09-08_11h00.13.718,arrow_simon_vert,2021.1.2,Linux x86_64,60.0024001,,,,,,,,,,,,,,,,,,,,,left,1,1.6673,31,TRUE,FALSE,7,2,30,2,1,,,,,,,
,,,,,,0,2.468912828,#f3af84,"[""0"",""-0.25""]",up_orange.png,up,,,,,,,,right,right_blue.png,up_orange.png,up,left,down,5fad961b463be513d7486f86,2021-09-08_11h00.13.718,arrow_simon_vert,2021.1.2,Linux x86_64,60.0024001,,,,,,,,,,,,,,,,,,,,,up,1,2.1306,32,TRUE,FALSE,7,3,31,0,1,,,,,,,
,,,,,,0,2.298357007,#a3d0fb,"[""0.25"",""0""]",left_blue.png,left,,,,,,,,left,left_blue.png,down_orange.png,down,right,up,5fad961b463be513d7486f86,2021-09-08_11h00.13.718,arrow_simon_vert,2021.1.2,Linux x86_64,60.0024001,,,,,,,,,,,,,,,,,,,,,left,1,1.834,33,TRUE,FALSE,8,0,32,3,1,,,,,,,
,,,,,,0,1.675349034,#f3af84,"[""0"",""0.25""]",up_orange.png,up,,,,,,,,right,right_blue.png,up_orange.png,up,right,up,5fad961b463be513d7486f86,2021-09-08_11h00.13.718,arrow_simon_vert,2021.1.2,Linux x86_64,60.0024001,,,,,,,,,,,,,,,,,,,,,up,1,1.1504,34,FALSE,TRUE,8,1,33,1,1,,,,,,,
,,,,,,0,1.982241224,#a3d0fb,"[""0.25"",""0""]",left_blue.png,left,,,,,,,,left,left_blue.png,down_orange.png,down,right,up,5fad961b463be513d7486f86,2021-09-08_11h00.13.718,arrow_simon_vert,2021.1.2,Linux x86_64,60.0024001,,,,,,,,,,,,,,,,,,,,,left,1,1.6176,35,TRUE,FALSE,8,2,34,3,1,,,,,,,
,,,,,,0,2.451173826,#f3af84,"[""0"",""0.25""]",up_orange.png,up,,,,,,,,right,right_blue.png,up_orange.png,up,right,up,5fad961b463be513d7486f86,2021-09-08_11h00.13.718,arrow_simon_vert,2021.1.2,Linux x86_64,60.0024001,,,,,,,,,,,,,,,,,,,,,up,1,1.9507,36,TRUE,FALSE,8,3,35,1,1,,,,,,,
,,,,,,0,2.418112618,#a3d0fb,"[""0.25"",""0""]",left_blue.png,left,,,,,,,,left,left_blue.png,down_orange.png,down,right,up,5fad961b463be513d7486f86,2021-09-08_11h00.13.718,arrow_simon_vert,2021.1.2,Linux x86_64,60.0024001,,,,,,,,,,,,,,,,,,,,,left,1,1.7339,37,TRUE,FALSE,9,0,36,3,1,,,,,,,
,,,,,,0,2.172716301,#f3af84,"[""0"",""0.25""]",down_orange.png,down,,,,,,,,left,left_blue.png,down_orange.png,down,right,up,5fad961b463be513d7486f86,2021-09-08_11h00.13.718,arrow_simon_vert,2021.1.2,Linux x86_64,60.0024001,,,,,,,,,,,,,,,,,,,,,up,0,1.817,38,TRUE,FALSE,9,1,37,3,1,,,,,,,
,,,,,,0,1.599575946,#a3d0fb,"[""-0.25"",""0""]",left_blue.png,left,,,,,,,,left,left_blue.png,down_orange.png,down,left,down,5fad961b463be513d7486f86,2021-09-08_11h00.13.718,arrow_simon_vert,2021.1.2,Linux x86_64,60.0024001,,,,,,,,,,,,,,,,,,,,,left,1,1.2544,39,FALSE,TRUE,9,2,38,2,1,,,,,,,
,,,,,,0,1.827267924,#f3af84,"[""0"",""-0.25""]",up_orange.png,up,,,,,,,,right,right_blue.png,up_orange.png,up,left,down,5fad961b463be513d7486f86,2021-09-08_11h00.13.718,arrow_simon_vert,2021.1.2,Linux x86_64,60.0024001,,,,,,,,,,,,,,,,,,,,,up,1,1.8184,40,TRUE,FALSE,9,3,39,0,1,,,,,,,
,,,,,,0,1.914801335,#a3d0fb,"[""0.25"",""0""]",right_blue.png,right,,,,,,,,right,right_blue.png,up_orange.png,up,right,up,5fad961b463be513d7486f86,2021-09-08_11h00.13.718,arrow_simon_vert,2021.1.2,Linux x86_64,60.0024001,,,,,,,,,,,,,,,,,,,,,right,1,1.5999,41,FALSE,FALSE,10,0,40,1,1,,,,,,,
,,,,,,0,1.89407513,#f3af84,"[""0"",""-0.25""]",up_orange.png,up,,,,,,,,right,right_blue.png,up_orange.png,up,left,down,5fad961b463be513d7486f86,2021-09-08_11h00.13.718,arrow_simon_vert,2021.1.2,Linux x86_64,60.0024001,,,,,,,,,,,,,,,,,,,,,down,0,1.2332,42,FALSE,TRUE,10,1,41,0,1,,,,,,,
,,,,,,0,2.024605898,#a3d0fb,"[""-0.25"",""0""]",left_blue.png,left,,,,,,,,left,left_blue.png,down_orange.png,down,left,down,5fad961b463be513d7486f86,2021-09-08_11h00.13.718,arrow_simon_vert,2021.1.2,Linux x86_64,60.0024001,,,,,,,,,,,,,,,,,,,,,left,1,1.6157,43,TRUE,FALSE,10,2,42,2,1,,,,,,,
,,,,,,0,2.376392291,#f3af84,"[""0"",""0.25""]",up_orange.png,up,,,,,,,,right,right_blue.png,up_orange.png,up,right,up,5fad961b463be513d7486f86,2021-09-08_11h00.13.718,arrow_simon_vert,2021.1.2,Linux x86_64,60.0024001,,,,,,,,,,,,,,,,,,,,,up,1,1.9295,44,TRUE,FALSE,10,3,43,1,1,,,,,,,
,,,,,,0,1.778693513,#a3d0fb,"[""-0.25"",""0""]",right_blue.png,right,,,,,,,,right,right_blue.png,up_orange.png,up,left,down,5fad961b463be513d7486f86,2021-09-08_11h00.13.718,arrow_simon_vert,2021.1.2,Linux x86_64,60.0024001,,,,,,,,,,,,,,,,,,,,,right,1,1.3793,45,FALSE,TRUE,11,0,44,0,1,,,,,,,
,,,,,,0,2.012182401,#f3af84,"[""0"",""-0.25""]",up_orange.png,up,,,,,,,,right,right_blue.png,up_orange.png,up,left,down,5fad961b463be513d7486f86,2021-09-08_11h00.13.718,arrow_simon_vert,2021.1.2,Linux x86_64,60.0024001,,,,,,,,,,,,,,,,,,,,,up,1,1.5654,46,FALSE,FALSE,11,1,45,0,1,,,,,,,
,,,,,,0,1.783603863,#a3d0fb,"[""0.25"",""0""]",right_blue.png,right,,,,,,,,right,right_blue.png,up_orange.png,up,right,up,5fad961b463be513d7486f86,2021-09-08_11h00.13.718,arrow_simon_vert,2021.1.2,Linux x86_64,60.0024001,,,,,,,,,,,,,,,,,,,,,right,1,1.5188,47,FALSE,FALSE,11,2,46,1,1,,,,,,,
,,,,,,0,2.249337667,#f3af84,"[""0"",""-0.25""]",down_orange.png,down,,,,,,,,left,left_blue.png,down_orange.png,down,left,down,5fad961b463be513d7486f86,2021-09-08_11h00.13.718,arrow_simon_vert,2021.1.2,Linux x86_64,60.0024001,,,,,,,,,,,,,,,,,,,,,down,1,1.6195,48,TRUE,FALSE,11,3,47,2,1,,,,,,,
,,,,,,0,1.764243382,#a3d0fb,"[""-0.25"",""0""]",left_blue.png,left,,,,,,,,left,left_blue.png,down_orange.png,down,left,down,5fad961b463be513d7486f86,2021-09-08_11h00.13.718,arrow_simon_vert,2021.1.2,Linux x86_64,60.0024001,,,,,,,,,,,,,,,,,,,,,left,1,1.7009,49,TRUE,FALSE,12,0,48,2,1,,,,,,,
,,,,,,0,2.266797191,#f3af84,"[""0"",""0.25""]",down_orange.png,down,,,,,,,,left,left_blue.png,down_orange.png,down,right,up,5fad961b463be513d7486f86,2021-09-08_11h00.13.718,arrow_simon_vert,2021.1.2,Linux x86_64,60.0024001,,,,,,,,,,,,,,,,,,,,,down,1,1.834,50,TRUE,FALSE,12,1,49,3,1,,,,,,,
,,,,,,0,1.621120513,#a3d0fb,"[""0.25"",""0""]",left_blue.png,left,,,,,,,,left,left_blue.png,down_orange.png,down,right,up,5fad961b463be513d7486f86,2021-09-08_11h00.13.718,arrow_simon_vert,2021.1.2,Linux x86_64,60.0024001,,,,,,,,,,,,,,,,,,,,,left,1,1.3652,51,FALSE,TRUE,12,2,50,3,1,,,,,,,
,,,,,,0,2.375208723,#f3af84,"[""0"",""0.25""]",down_orange.png,down,,,,,,,,left,left_blue.png,down_orange.png,down,right,up,5fad961b463be513d7486f86,2021-09-08_11h00.13.718,arrow_simon_vert,2021.1.2,Linux x86_64,60.0024001,,,,,,,,,,,,,,,,,,,,,down,1,1.8531,52,TRUE,FALSE,12,3,51,3,1,,,,,,,
,,,,,,0,1.548644536,#a3d0fb,"[""-0.25"",""0""]",right_blue.png,right,,,,,,,,right,right_blue.png,up_orange.png,up,left,down,5fad961b463be513d7486f86,2021-09-08_11h00.13.718,arrow_simon_vert,2021.1.2,Linux x86_64,60.0024001,,,,,,,,,,,,,,,,,,,,,right,1,1.7023,53,TRUE,FALSE,13,0,52,0,1,,,,,,,
,,,,,,0,2.312519781,#f3af84,"[""0"",""-0.25""]",up_orange.png,up,,,,,,,,right,right_blue.png,up_orange.png,up,left,down,5fad961b463be513d7486f86,2021-09-08_11h00.13.718,arrow_simon_vert,2021.1.2,Linux x86_64,60.0024001,,,,,,,,,,,,,,,,,,,,,down,0,1.7716,54,TRUE,FALSE,13,1,53,0,1,,,,,,,
,,,,,,0,1.964035948,#a3d0fb,"[""-0.25"",""0""]",left_blue.png,left,,,,,,,,left,left_blue.png,down_orange.png,down,left,down,5fad961b463be513d7486f86,2021-09-08_11h00.13.718,arrow_simon_vert,2021.1.2,Linux x86_64,60.0024001,,,,,,,,,,,,,,,,,,,,,left,1,1.4343,55,FALSE,FALSE,13,2,54,2,1,,,,,,,
,,,,,,0,2.415983738,#f3af84,"[""0"",""-0.25""]",down_orange.png,down,,,,,,,,left,left_blue.png,down_orange.png,down,left,down,5fad961b463be513d7486f86,2021-09-08_11h00.13.718,arrow_simon_vert,2021.1.2,Linux x86_64,60.0024001,,,,,,,,,,,,,,,,,,,,,down,1,1.8674,56,TRUE,FALSE,13,3,55,2,1,,,,,,,
,,,,,,0,1.606654279,#a3d0fb,"[""-0.25"",""0""]",right_blue.png,right,,,,,,,,right,right_blue.png,up_orange.png,up,left,down,5fad961b463be513d7486f86,2021-09-08_11h00.13.718,arrow_simon_vert,2021.1.2,Linux x86_64,60.0024001,,,,,,,,,,,,,,,,,,,,,right,1,1.7015,57,TRUE,FALSE,14,0,56,0,1,,,,,,,
,,,,,,0,1.657840253,#f3af84,"[""0"",""-0.25""]",up_orange.png,up,,,,,,,,right,right_blue.png,up_orange.png,up,left,down,5fad961b463be513d7486f86,2021-09-08_11h00.13.718,arrow_simon_vert,2021.1.2,Linux x86_64,60.0024001,,,,,,,,,,,,,,,,,,,,,up,1,1.1693,58,FALSE,TRUE,14,1,57,0,1,,,,,,,
,,,,,,0,1.8576482,#a3d0fb,"[""0.25"",""0""]",right_blue.png,right,,,,,,,,right,right_blue.png,up_orange.png,up,right,up,5fad961b463be513d7486f86,2021-09-08_11h00.13.718,arrow_simon_vert,2021.1.2,Linux x86_64,60.0024001,,,,,,,,,,,,,,,,,,,,,right,1,1.9332,59,TRUE,FALSE,14,2,58,1,1,,,,,,,
,,,,,,0,1.811105723,#f3af84,"[""0"",""-0.25""]",down_orange.png,down,,,,,,,,left,left_blue.png,down_orange.png,down,left,down,5fad961b463be513d7486f86,2021-09-08_11h00.13.718,arrow_simon_vert,2021.1.2,Linux x86_64,60.0024001,,,,,,,,,,,,,,,,,,,,,down,1,1.9014,60,TRUE,FALSE,14,3,59,2,1,,,,,,,
,,,,,,,,,,,,,,,,,,,,,,,,,5fad961b463be513d7486f86,2021-09-08_11h00.13.718,arrow_simon_vert,2021.1.2,Linux x86_64,60.0024001,,,,,,,,,,,,,,,,,,,,,,,,,,,,,,,,space,11.0149,0,0,0,0,1
,,,,,,0,1.767776705,#a3d0fb,"[""-0.25"",""0""]",right_blue.png,right,,,,,,,,right,right_blue.png,up_orange.png,up,left,down,5fad961b463be513d7486f86,2021-09-08_11h00.13.718,arrow_simon_vert,2021.1.2,Linux x86_64,60.0024001,,,,,,,,,,,,,,,,,,,,,right,1,1.4352,1,FALSE,FALSE,0,0,0,0,1,,,,,,,
,,,,,,0,2.389581262,#f3af84,"[""0"",""0.25""]",down_orange.png,down,,,,,,,,left,left_blue.png,down_orange.png,down,right,up,5fad961b463be513d7486f86,2021-09-08_11h00.13.718,arrow_simon_vert,2021.1.2,Linux x86_64,60.0024001,,,,,,,,,,,,,,,,,,,,,down,1,2.2682,2,TRUE,FALSE,0,1,1,3,1,,,,,,,
,,,,,,0,2.049324488,#a3d0fb,"[""0.25"",""0""]",right_blue.png,right,,,,,,,,right,right_blue.png,up_orange.png,up,right,up,5fad961b463be513d7486f86,2021-09-08_11h00.13.718,arrow_simon_vert,2021.1.2,Linux x86_64,60.0024001,,,,,,,,,,,,,,,,,,,,,right,1,1.4686,3,FALSE,FALSE,0,2,2,1,1,,,,,,,
,,,,,,0,1.679246372,#f3af84,"[""0"",""0.25""]",up_orange.png,up,,,,,,,,right,right_blue.png,up_orange.png,up,right,up,5fad961b463be513d7486f86,2021-09-08_11h00.13.718,arrow_simon_vert,2021.1.2,Linux x86_64,60.0024001,,,,,,,,,,,,,,,,,,,,,up,1,1.2138,4,FALSE,TRUE,0,3,3,1,1,,,,,,,
,,,,,,0,1.577034196,#a3d0fb,"[""-0.25"",""0""]",right_blue.png,right,,,,,,,,right,right_blue.png,up_orange.png,up,left,down,5fad961b463be513d7486f86,2021-09-08_11h00.13.718,arrow_simon_vert,2021.1.2,Linux x86_64,60.0024001,,,,,,,,,,,,,,,,,,,,,right,1,1.1515,5,FALSE,TRUE,1,0,4,0,1,,,,,,,
,,,,,,0,1.924272619,#f3af84,"[""0"",""0.25""]",up_orange.png,up,,,,,,,,right,right_blue.png,up_orange.png,up,right,up,5fad961b463be513d7486f86,2021-09-08_11h00.13.718,arrow_simon_vert,2021.1.2,Linux x86_64,60.0024001,,,,,,,,,,,,,,,,,,,,,up,1,3.5061,6,TRUE,FALSE,1,1,5,1,1,,,,,,,
,,,,,,0,2.063177103,#a3d0fb,"[""0.25"",""0""]",left_blue.png,left,,,,,,,,left,left_blue.png,down_orange.png,down,right,up,5fad961b463be513d7486f86,2021-09-08_11h00.13.718,arrow_simon_vert,2021.1.2,Linux x86_64,60.0024001,,,,,,,,,,,,,,,,,,,,,left,1,4.55,7,TRUE,FALSE,1,2,6,3,1,,,,,,,
,,,,,,0,2.027040659,#f3af84,"[""0"",""-0.25""]",up_orange.png,up,,,,,,,,right,right_blue.png,up_orange.png,up,left,down,5fad961b463be513d7486f86,2021-09-08_11h00.13.718,arrow_simon_vert,2021.1.2,Linux x86_64,60.0024001,,,,,,,,,,,,,,,,,,,,,up,1,7.2123,8,TRUE,FALSE,1,3,7,0,1,,,,,,,
,,,,,,0,2.465131266,#a3d0fb,"[""0.25"",""0""]",left_blue.png,left,,,,,,,,left,left_blue.png,down_orange.png,down,right,up,5fad961b463be513d7486f86,2021-09-08_11h00.13.718,arrow_simon_vert,2021.1.2,Linux x86_64,60.0024001,,,,,,,,,,,,,,,,,,,,,left,1,1.9678,9,TRUE,FALSE,2,0,8,3,1,,,,,,,
,,,,,,0,1.808287386,#f3af84,"[""0"",""-0.25""]",down_orange.png,down,,,,,,,,left,left_blue.png,down_orange.png,down,left,down,5fad961b463be513d7486f86,2021-09-08_11h00.13.718,arrow_simon_vert,2021.1.2,Linux x86_64,60.0024001,,,,,,,,,,,,,,,,,,,,,down,1,1.272,10,FALSE,TRUE,2,1,9,2,1,,,,,,,
,,,,,,0,2.288244784,#a3d0fb,"[""-0.25"",""0""]",left_blue.png,left,,,,,,,,left,left_blue.png,down_orange.png,down,left,down,5fad961b463be513d7486f86,2021-09-08_11h00.13.718,arrow_simon_vert,2021.1.2,Linux x86_64,60.0024001,,,,,,,,,,,,,,,,,,,,,left,1,2.4168,11,TRUE,FALSE,2,2,10,2,1,,,,,,,
,,,,,,0,2.253853455,#f3af84,"[""0"",""0.25""]",down_orange.png,down,,,,,,,,left,left_blue.png,down_orange.png,down,right,up,5fad961b463be513d7486f86,2021-09-08_11h00.13.718,arrow_simon_vert,2021.1.2,Linux x86_64,60.0024001,,,,,,,,,,,,,,,,,,,,,down,1,1.7476,12,TRUE,FALSE,2,3,11,3,1,,,,,,,
,,,,,,0,2.397337649,#a3d0fb,"[""0.25"",""0""]",right_blue.png,right,,,,,,,,right,right_blue.png,up_orange.png,up,right,up,5fad961b463be513d7486f86,2021-09-08_11h00.13.718,arrow_simon_vert,2021.1.2,Linux x86_64,60.0024001,,,,,,,,,,,,,,,,,,,,,right,1,1.7714,13,TRUE,FALSE,3,0,12,1,1,,,,,,,
,,,,,,1,2.358674567,#f3af84,"[""0"",""0.25""]",down_orange.png,down,,,,,,,,left,left_blue.png,down_orange.png,down,right,up,5fad961b463be513d7486f86,2021-09-08_11h00.13.718,arrow_simon_vert,2021.1.2,Linux x86_64,60.0024001,,,,,,,,,,,,,,,,,,,,,left,0,1.5412,14,FALSE,FALSE,3,1,13,3,1,,,,,,,
,,,,,,0,2.052756031,#a3d0fb,"[""0.25"",""0""]",left_blue.png,left,,,,,,,,left,left_blue.png,down_orange.png,down,right,up,5fad961b463be513d7486f86,2021-09-08_11h00.13.718,arrow_simon_vert,2021.1.2,Linux x86_64,60.0024001,,,,,,,,,,,,,,,,,,,,,left,1,1.5231,15,FALSE,FALSE,3,2,14,3,1,,,,,,,
,,,,,,0,2.241013233,#f3af84,"[""0"",""0.25""]",down_orange.png,down,,,,,,,,left,left_blue.png,down_orange.png,down,right,up,5fad961b463be513d7486f86,2021-09-08_11h00.13.718,arrow_simon_vert,2021.1.2,Linux x86_64,60.0024001,,,,,,,,,,,,,,,,,,,,,down,1,1.5199,16,FALSE,FALSE,3,3,15,3,1,,,,,,,
,,,,,,0,2.451641028,#a3d0fb,"[""-0.25"",""0""]",left_blue.png,left,,,,,,,,left,left_blue.png,down_orange.png,down,left,down,5fad961b463be513d7486f86,2021-09-08_11h00.13.718,arrow_simon_vert,2021.1.2,Linux x86_64,60.0024001,,,,,,,,,,,,,,,,,,,,,left,1,2.0409,17,TRUE,FALSE,4,0,16,2,1,,,,,,,
,,,,,,0,1.815476985,#f3af84,"[""0"",""0.25""]",up_orange.png,up,,,,,,,,right,right_blue.png,up_orange.png,up,right,up,5fad961b463be513d7486f86,2021-09-08_11h00.13.718,arrow_simon_vert,2021.1.2,Linux x86_64,60.0024001,,,,,,,,,,,,,,,,,,,,,up,1,1.5011,18,FALSE,FALSE,4,1,17,1,1,,,,,,,
,,,,,,0,1.889110033,#a3d0fb,"[""0.25"",""0""]",right_blue.png,right,,,,,,,,right,right_blue.png,up_orange.png,up,right,up,5fad961b463be513d7486f86,2021-09-08_11h00.13.718,arrow_simon_vert,2021.1.2,Linux x86_64,60.0024001,,,,,,,,,,,,,,,,,,,,,right,1,1.3341,19,FALSE,TRUE,4,2,18,1,1,,,,,,,
,,,,,,0,1.93559681,#f3af84,"[""0"",""0.25""]",down_orange.png,down,,,,,,,,left,left_blue.png,down_orange.png,down,right,up,5fad961b463be513d7486f86,2021-09-08_11h00.13.718,arrow_simon_vert,2021.1.2,Linux x86_64,60.0024001,,,,,,,,,,,,,,,,,,,,,left,0,1.2503,20,FALSE,TRUE,4,3,19,3,1,,,,,,,
,,,,,,0,2.283807523,#a3d0fb,"[""-0.25"",""0""]",right_blue.png,right,,,,,,,,right,right_blue.png,up_orange.png,up,left,down,5fad961b463be513d7486f86,2021-09-08_11h00.13.718,arrow_simon_vert,2021.1.2,Linux x86_64,60.0024001,,,,,,,,,,,,,,,,,,,,,right,1,1.8402,21,TRUE,FALSE,5,0,20,0,1,,,,,,,
,,,,,,1,2.113214675,#f3af84,"[""0"",""0.25""]",up_orange.png,up,,,,,,,,right,right_blue.png,up_orange.png,up,right,up,5fad961b463be513d7486f86,2021-09-08_11h00.13.718,arrow_simon_vert,2021.1.2,Linux x86_64,60.0024001,,,,,,,,,,,,,,,,,,,,,down,0,1.5519,22,FALSE,FALSE,5,1,21,1,1,,,,,,,
,,,,,,1,1.715390761,#a3d0fb,"[""0.25"",""0""]",right_blue.png,right,,,,,,,,right,right_blue.png,up_orange.png,up,right,up,5fad961b463be513d7486f86,2021-09-08_11h00.13.718,arrow_simon_vert,2021.1.2,Linux x86_64,60.0024001,,,,,,,,,,,,,,,,,,,,,right,1,1.2007,23,FALSE,TRUE,5,2,22,1,1,,,,,,,
,,,,,,1,2.147365966,#f3af84,"[""0"",""0.25""]",down_orange.png,down,,,,,,,,left,left_blue.png,down_orange.png,down,right,up,5fad961b463be513d7486f86,2021-09-08_11h00.13.718,arrow_simon_vert,2021.1.2,Linux x86_64,60.0024001,,,,,,,,,,,,,,,,,,,,,left,0,1.47,24,FALSE,FALSE,5,3,23,3,1,,,,,,,
,,,,,,1,2.343349621,#a3d0fb,"[""-0.25"",""0""]",left_blue.png,left,,,,,,,,left,left_blue.png,down_orange.png,down,left,down,5fad961b463be513d7486f86,2021-09-08_11h00.13.718,arrow_simon_vert,2021.1.2,Linux x86_64,60.0024001,,,,,,,,,,,,,,,,,,,,,left,1,1.8005,25,TRUE,FALSE,6,0,24,2,1,,,,,,,
,,,,,,0,2.252201166,#f3af84,"[""0"",""-0.25""]",down_orange.png,down,,,,,,,,left,left_blue.png,down_orange.png,down,left,down,5fad961b463be513d7486f86,2021-09-08_11h00.13.718,arrow_simon_vert,2021.1.2,Linux x86_64,60.0024001,,,,,,,,,,,,,,,,,,,,,down,1,1.5669,26,FALSE,FALSE,6,1,25,2,1,,,,,,,
,,,,,,0,2.428516266,#a3d0fb,"[""0.25"",""0""]",left_blue.png,left,,,,,,,,left,left_blue.png,down_orange.png,down,right,up,5fad961b463be513d7486f86,2021-09-08_11h00.13.718,arrow_simon_vert,2021.1.2,Linux x86_64,60.0024001,,,,,,,,,,,,,,,,,,,,,right,0,1.9179,27,TRUE,FALSE,6,2,26,3,1,,,,,,,
,,,,,,0,1.743968945,#f3af84,"[""0"",""0.25""]",up_orange.png,up,,,,,,,,right,right_blue.png,up_orange.png,up,right,up,5fad961b463be513d7486f86,2021-09-08_11h00.13.718,arrow_simon_vert,2021.1.2,Linux x86_64,60.0024001,,,,,,,,,,,,,,,,,,,,,up,1,1.0515,28,FALSE,TRUE,6,3,27,1,1,,,,,,,
,,,,,,0,1.679768007,#a3d0fb,"[""-0.25"",""0""]",right_blue.png,right,,,,,,,,right,right_blue.png,up_orange.png,up,left,down,5fad961b463be513d7486f86,2021-09-08_11h00.13.718,arrow_simon_vert,2021.1.2,Linux x86_64,60.0024001,,,,,,,,,,,,,,,,,,,,,left,0,0.9051,29,FALSE,TRUE,7,0,28,0,1,,,,,,,
,,,,,,0,2.161619943,#f3af84,"[""0"",""-0.25""]",up_orange.png,up,,,,,,,,right,right_blue.png,up_orange.png,up,left,down,5fad961b463be513d7486f86,2021-09-08_11h00.13.718,arrow_simon_vert,2021.1.2,Linux x86_64,60.0024001,,,,,,,,,,,,,,,,,,,,,up,1,1.1692,30,FALSE,TRUE,7,1,29,0,1,,,,,,,
,,,,,,0,1.750428266,#a3d0fb,"[""-0.25"",""0""]",right_blue.png,right,,,,,,,,right,right_blue.png,up_orange.png,up,left,down,5fad961b463be513d7486f86,2021-09-08_11h00.13.718,arrow_simon_vert,2021.1.2,Linux x86_64,60.0024001,,,,,,,,,,,,,,,,,,,,,left,0,1.2297,31,FALSE,TRUE,7,2,30,0,1,,,,,,,
,,,,,,0,2.073895136,#f3af84,"[""0"",""-0.25""]",down_orange.png,down,,,,,,,,left,left_blue.png,down_orange.png,down,left,down,5fad961b463be513d7486f86,2021-09-08_11h00.13.718,arrow_simon_vert,2021.1.2,Linux x86_64,60.0024001,,,,,,,,,,,,,,,,,,,,,down,1,1.7581,32,TRUE,FALSE,7,3,31,2,1,,,,,,,
,,,,,,0,1.958184168,#a3d0fb,"[""-0.25"",""0""]",right_blue.png,right,,,,,,,,right,right_blue.png,up_orange.png,up,left,down,5fad961b463be513d7486f86,2021-09-08_11h00.13.718,arrow_simon_vert,2021.1.2,Linux x86_64,60.0024001,,,,,,,,,,,,,,,,,,,,,right,1,1.4689,33,FALSE,FALSE,8,0,32,0,1,,,,,,,
,,,,,,0,2.298462599,#f3af84,"[""0"",""0.25""]",down_orange.png,down,,,,,,,,left,left_blue.png,down_orange.png,down,right,up,5fad961b463be513d7486f86,2021-09-08_11h00.13.718,arrow_simon_vert,2021.1.2,Linux x86_64,60.0024001,,,,,,,,,,,,,,,,,,,,,down,1,1.8158,34,TRUE,FALSE,8,1,33,3,1,,,,,,,
,,,,,,0,1.714851791,#a3d0fb,"[""-0.25"",""0""]",right_blue.png,right,,,,,,,,right,right_blue.png,up_orange.png,up,left,down,5fad961b463be513d7486f86,2021-09-08_11h00.13.718,arrow_simon_vert,2021.1.2,Linux x86_64,60.0024001,,,,,,,,,,,,,,,,,,,,,left,0,1.1057,35,FALSE,TRUE,8,2,34,0,1,,,,,,,
,,,,,,0,1.819263303,#f3af84,"[""0"",""0.25""]",down_orange.png,down,,,,,,,,left,left_blue.png,down_orange.png,down,right,up,5fad961b463be513d7486f86,2021-09-08_11h00.13.718,arrow_simon_vert,2021.1.2,Linux x86_64,60.0024001,,,,,,,,,,,,,,,,,,,,,down,1,1.4198,36,FALSE,FALSE,8,3,35,3,1,,,,,,,
,,,,,,0,2.220423595,#a3d0fb,"[""-0.25"",""0""]",left_blue.png,left,,,,,,,,left,left_blue.png,down_orange.png,down,left,down,5fad961b463be513d7486f86,2021-09-08_11h00.13.718,arrow_simon_vert,2021.1.2,Linux x86_64,60.0024001,,,,,,,,,,,,,,,,,,,,,left,1,1.8012,37,TRUE,FALSE,9,0,36,2,1,,,,,,,
,,,,,,0,1.713311107,#f3af84,"[""0"",""0.25""]",up_orange.png,up,,,,,,,,right,right_blue.png,up_orange.png,up,right,up,5fad961b463be513d7486f86,2021-09-08_11h00.13.718,arrow_simon_vert,2021.1.2,Linux x86_64,60.0024001,,,,,,,,,,,,,,,,,,,,,up,1,1.1846,38,FALSE,TRUE,9,1,37,1,1,,,,,,,
,,,,,,0,1.740859414,#a3d0fb,"[""-0.25"",""0""]",right_blue.png,right,,,,,,,,right,right_blue.png,up_orange.png,up,left,down,5fad961b463be513d7486f86,2021-09-08_11h00.13.718,arrow_simon_vert,2021.1.2,Linux x86_64,60.0024001,,,,,,,,,,,,,,,,,,,,,right,1,1.2513,39,FALSE,TRUE,9,2,38,0,1,,,,,,,
,,,,,,0,2.425692493,#f3af84,"[""0"",""-0.25""]",down_orange.png,down,,,,,,,,left,left_blue.png,down_orange.png,down,left,down,5fad961b463be513d7486f86,2021-09-08_11h00.13.718,arrow_simon_vert,2021.1.2,Linux x86_64,60.0024001,,,,,,,,,,,,,,,,,,,,,down,1,1.97,40,TRUE,FALSE,9,3,39,2,1,,,,,,,
,,,,,,0,2.411868957,#a3d0fb,"[""-0.25"",""0""]",left_blue.png,left,,,,,,,,left,left_blue.png,down_orange.png,down,left,down,5fad961b463be513d7486f86,2021-09-08_11h00.13.718,arrow_simon_vert,2021.1.2,Linux x86_64,60.0024001,,,,,,,,,,,,,,,,,,,,,left,1,1.6849,41,TRUE,FALSE,10,0,40,2,1,,,,,,,
,,,,,,0,1.784184657,#f3af84,"[""0"",""0.25""]",up_orange.png,up,,,,,,,,right,right_blue.png,up_orange.png,up,right,up,5fad961b463be513d7486f86,2021-09-08_11h00.13.718,arrow_simon_vert,2021.1.2,Linux x86_64,60.0024001,,,,,,,,,,,,,,,,,,,,,up,1,1.6684,42,TRUE,FALSE,10,1,41,1,1,,,,,,,
,,,,,,0,1.985437924,#a3d0fb,"[""0.25"",""0""]",right_blue.png,right,,,,,,,,right,right_blue.png,up_orange.png,up,right,up,5fad961b463be513d7486f86,2021-09-08_11h00.13.718,arrow_simon_vert,2021.1.2,Linux x86_64,60.0024001,,,,,,,,,,,,,,,,,,,,,right,1,1.5,43,FALSE,FALSE,10,2,42,1,1,,,,,,,
,,,,,,0,1.774162242,#f3af84,"[""0"",""-0.25""]",up_orange.png,up,,,,,,,,right,right_blue.png,up_orange.png,up,left,down,5fad961b463be513d7486f86,2021-09-08_11h00.13.718,arrow_simon_vert,2021.1.2,Linux x86_64,60.0024001,,,,,,,,,,,,,,,,,,,,,up,1,1.22,44,FALSE,TRUE,10,3,43,0,1,,,,,,,
,,,,,,0,2.151068035,#a3d0fb,"[""-0.25"",""0""]",left_blue.png,left,,,,,,,,left,left_blue.png,down_orange.png,down,left,down,5fad961b463be513d7486f86,2021-09-08_11h00.13.718,arrow_simon_vert,2021.1.2,Linux x86_64,60.0024001,,,,,,,,,,,,,,,,,,,,,left,1,1.6005,45,TRUE,FALSE,11,0,44,2,1,,,,,,,
,,,,,,0,1.889945705,#f3af84,"[""0"",""-0.25""]",up_orange.png,up,,,,,,,,right,right_blue.png,up_orange.png,up,left,down,5fad961b463be513d7486f86,2021-09-08_11h00.13.718,arrow_simon_vert,2021.1.2,Linux x86_64,60.0024001,,,,,,,,,,,,,,,,,,,,,up,1,1.518,46,FALSE,FALSE,11,1,45,0,1,,,,,,,
,,,,,,0,2.489186092,#a3d0fb,"[""0.25"",""0""]",right_blue.png,right,,,,,,,,right,right_blue.png,up_orange.png,up,right,up,5fad961b463be513d7486f86,2021-09-08_11h00.13.718,arrow_simon_vert,2021.1.2,Linux x86_64,60.0024001,,,,,,,,,,,,,,,,,,,,,right,1,2.8826,47,TRUE,FALSE,11,2,46,1,1,,,,,,,
,,,,,,0,2.296482526,#f3af84,"[""0"",""0.25""]",down_orange.png,down,,,,,,,,left,left_blue.png,down_orange.png,down,right,up,5fad961b463be513d7486f86,2021-09-08_11h00.13.718,arrow_simon_vert,2021.1.2,Linux x86_64,60.0024001,,,,,,,,,,,,,,,,,,,,,down,1,3.1306,48,TRUE,FALSE,11,3,47,3,1,,,,,,,
,,,,,,0,1.551955614,#a3d0fb,"[""0.25"",""0""]",left_blue.png,left,,,,,,,,left,left_blue.png,down_orange.png,down,right,up,5fad961b463be513d7486f86,2021-09-08_11h00.13.718,arrow_simon_vert,2021.1.2,Linux x86_64,60.0024001,,,,,,,,,,,,,,,,,,,,,left,1,1.1341,49,FALSE,TRUE,12,0,48,3,1,,,,,,,
,,,,,,0,2.107404992,#f3af84,"[""0"",""-0.25""]",down_orange.png,down,,,,,,,,left,left_blue.png,down_orange.png,down,left,down,5fad961b463be513d7486f86,2021-09-08_11h00.13.718,arrow_simon_vert,2021.1.2,Linux x86_64,60.0024001,,,,,,,,,,,,,,,,,,,,,up,0,1.3329,50,FALSE,TRUE,12,1,49,2,1,,,,,,,
,,,,,,0,1.859315061,#a3d0fb,"[""-0.25"",""0""]",right_blue.png,right,,,,,,,,right,right_blue.png,up_orange.png,up,left,down,5fad961b463be513d7486f86,2021-09-08_11h00.13.718,arrow_simon_vert,2021.1.2,Linux x86_64,60.0024001,,,,,,,,,,,,,,,,,,,,,right,1,1.8224,51,TRUE,FALSE,12,2,50,0,1,,,,,,,
,,,,,,0,1.545393825,#f3af84,"[""0"",""0.25""]",up_orange.png,up,,,,,,,,right,right_blue.png,up_orange.png,up,right,up,5fad961b463be513d7486f86,2021-09-08_11h00.13.718,arrow_simon_vert,2021.1.2,Linux x86_64,60.0024001,,,,,,,,,,,,,,,,,,,,,up,1,1.5984,52,FALSE,FALSE,12,3,51,1,1,,,,,,,
,,,,,,0,2.083152852,#a3d0fb,"[""0.25"",""0""]",right_blue.png,right,,,,,,,,right,right_blue.png,up_orange.png,up,right,up,5fad961b463be513d7486f86,2021-09-08_11h00.13.718,arrow_simon_vert,2021.1.2,Linux x86_64,60.0024001,,,,,,,,,,,,,,,,,,,,,right,1,1.5655,53,FALSE,FALSE,13,0,52,1,1,,,,,,,
,,,,,,0,1.817726943,#f3af84,"[""0"",""-0.25""]",down_orange.png,down,,,,,,,,left,left_blue.png,down_orange.png,down,left,down,5fad961b463be513d7486f86,2021-09-08_11h00.13.718,arrow_simon_vert,2021.1.2,Linux x86_64,60.0024001,,,,,,,,,,,,,,,,,,,,,down,1,1.7339,54,TRUE,FALSE,13,1,53,2,1,,,,,,,
,,,,,,0,2.222029363,#a3d0fb,"[""-0.25"",""0""]",left_blue.png,left,,,,,,,,left,left_blue.png,down_orange.png,down,left,down,5fad961b463be513d7486f86,2021-09-08_11h00.13.718,arrow_simon_vert,2021.1.2,Linux x86_64,60.0024001,,,,,,,,,,,,,,,,,,,,,left,1,1.631,55,TRUE,FALSE,13,2,54,2,1,,,,,,,
,,,,,,0,2.434359652,#f3af84,"[""0"",""-0.25""]",up_orange.png,up,,,,,,,,right,right_blue.png,up_orange.png,up,left,down,5fad961b463be513d7486f86,2021-09-08_11h00.13.718,arrow_simon_vert,2021.1.2,Linux x86_64,60.0024001,,,,,,,,,,,,,,,,,,,,,up,1,1.7548,56,TRUE,FALSE,13,3,55,0,1,,,,,,,
,,,,,,0,1.639619615,#a3d0fb,"[""-0.25"",""0""]",left_blue.png,left,,,,,,,,left,left_blue.png,down_orange.png,down,left,down,5fad961b463be513d7486f86,2021-09-08_11h00.13.718,arrow_simon_vert,2021.1.2,Linux x86_64,60.0024001,,,,,,,,,,,,,,,,,,,,,left,1,1.6565,57,TRUE,FALSE,14,0,56,2,1,,,,,,,
,,,,,,0,1.625145462,#f3af84,"[""0"",""0.25""]",down_orange.png,down,,,,,,,,left,left_blue.png,down_orange.png,down,right,up,5fad961b463be513d7486f86,2021-09-08_11h00.13.718,arrow_simon_vert,2021.1.2,Linux x86_64,60.0024001,,,,,,,,,,,,,,,,,,,,,down,1,1.9498,58,TRUE,FALSE,14,1,57,3,1,,,,,,,
,,,,,,0,1.877512675,#a3d0fb,"[""-0.25"",""0""]",right_blue.png,right,,,,,,,,right,right_blue.png,up_orange.png,up,left,down,5fad961b463be513d7486f86,2021-09-08_11h00.13.718,arrow_simon_vert,2021.1.2,Linux x86_64,60.0024001,,,,,,,,,,,,,,,,,,,,,left,0,1.1843,59,FALSE,TRUE,14,2,58,0,1,,,,,,,
,,,,,,0,1.579401755,#f3af84,"[""0"",""-0.25""]",down_orange.png,down,,,,,,,,left,left_blue.png,down_orange.png,down,left,down,5fad961b463be513d7486f86,2021-09-08_11h00.13.718,arrow_simon_vert,2021.1.2,Linux x86_64,60.0024001,,,,,,,,,,,,,,,,,,,,,down,1,1.4381,60,FALSE,FALSE,14,3,59,2,1,,,,,,,
,,,,,,,,,,,,,,,,,,,,,,,,,5fad961b463be513d7486f86,2021-09-08_11h00.13.718,arrow_simon_vert,2021.1.2,Linux x86_64,60.0024001,,,,,,,,,,,,,,,,,,,,,,,,,,,,,,,,space,21.8422,1,0,1,0,1
,,,,,,0,2.067004578,#a3d0fb,"[""-0.25"",""0""]",right_blue.png,right,,,,,,,,right,right_blue.png,up_orange.png,up,left,down,5fad961b463be513d7486f86,2021-09-08_11h00.13.718,arrow_simon_vert,2021.1.2,Linux x86_64,60.0024001,,,,,,,,,,,,,,,,,,,,,right,1,4.0041,1,TRUE,FALSE,0,0,0,0,1,,,,,,,
,,,,,,0,2.49777479,#f3af84,"[""0"",""0.25""]",down_orange.png,down,,,,,,,,left,left_blue.png,down_orange.png,down,right,up,5fad961b463be513d7486f86,2021-09-08_11h00.13.718,arrow_simon_vert,2021.1.2,Linux x86_64,60.0024001,,,,,,,,,,,,,,,,,,,,,down,1,1.8694,2,TRUE,FALSE,0,1,1,3,1,,,,,,,
,,,,,,0,1.59854142,#a3d0fb,"[""-0.25"",""0""]",right_blue.png,right,,,,,,,,right,right_blue.png,up_orange.png,up,left,down,5fad961b463be513d7486f86,2021-09-08_11h00.13.718,arrow_simon_vert,2021.1.2,Linux x86_64,60.0024001,,,,,,,,,,,,,,,,,,,,,left,0,0.9005,3,FALSE,TRUE,0,2,2,0,1,,,,,,,
,,,,,,0,1.71322278,#f3af84,"[""0"",""-0.25""]",down_orange.png,down,,,,,,,,left,left_blue.png,down_orange.png,down,left,down,5fad961b463be513d7486f86,2021-09-08_11h00.13.718,arrow_simon_vert,2021.1.2,Linux x86_64,60.0024001,,,,,,,,,,,,,,,,,,,,,right,0,1.0185,4,FALSE,TRUE,0,3,3,2,1,,,,,,,
,,,,,,0,1.767074867,#a3d0fb,"[""-0.25"",""0""]",left_blue.png,left,,,,,,,,left,left_blue.png,down_orange.png,down,left,down,5fad961b463be513d7486f86,2021-09-08_11h00.13.718,arrow_simon_vert,2021.1.2,Linux x86_64,60.0024001,,,,,,,,,,,,,,,,,,,,,left,1,1.1002,5,FALSE,TRUE,1,0,4,2,1,,,,,,,
,,,,,,0,1.50818902,#f3af84,"[""0"",""-0.25""]",down_orange.png,down,,,,,,,,left,left_blue.png,down_orange.png,down,left,down,5fad961b463be513d7486f86,2021-09-08_11h00.13.718,arrow_simon_vert,2021.1.2,Linux x86_64,60.0024001,,,,,,,,,,,,,,,,,,,,,down,1,1.1338,6,FALSE,TRUE,1,1,5,2,1,,,,,,,
,,,,,,0,2.289438351,#a3d0fb,"[""0.25"",""0""]",left_blue.png,left,,,,,,,,left,left_blue.png,down_orange.png,down,right,up,5fad961b463be513d7486f86,2021-09-08_11h00.13.718,arrow_simon_vert,2021.1.2,Linux x86_64,60.0024001,,,,,,,,,,,,,,,,,,,,,down,0,1.8053,7,TRUE,FALSE,1,2,6,3,1,,,,,,,
,,,,,,1,2.362902734,#f3af84,"[""0"",""-0.25""]",down_orange.png,down,,,,,,,,left,left_blue.png,down_orange.png,down,left,down,5fad961b463be513d7486f86,2021-09-08_11h00.13.718,arrow_simon_vert,2021.1.2,Linux x86_64,60.0024001,,,,,,,,,,,,,,,,,,,,,left,0,1.5544,8,FALSE,FALSE,1,3,7,2,1,,,,,,,
,,,,,,1,1.714915668,#a3d0fb,"[""0.25"",""0""]",right_blue.png,right,,,,,,,,right,right_blue.png,up_orange.png,up,right,up,5fad961b463be513d7486f86,2021-09-08_11h00.13.718,arrow_simon_vert,2021.1.2,Linux x86_64,60.0024001,,,,,,,,,,,,,,,,,,,,,up,0,0.4859,9,FALSE,TRUE,2,0,8,1,1,,,,,,,
,,,,,,1,1.568385774,#f3af84,"[""0"",""0.25""]",down_orange.png,down,,,,,,,,left,left_blue.png,down_orange.png,down,right,up,5fad961b463be513d7486f86,2021-09-08_11h00.13.718,arrow_simon_vert,2021.1.2,Linux x86_64,60.0024001,,,,,,,,,,,,,,,,,,,,,down,1,1.0335,10,FALSE,TRUE,2,1,9,3,1,,,,,,,
,,,,,,1,2.325329957,#a3d0fb,"[""0.25"",""0""]",right_blue.png,right,,,,,,,,right,right_blue.png,up_orange.png,up,right,up,5fad961b463be513d7486f86,2021-09-08_11h00.13.718,arrow_simon_vert,2021.1.2,Linux x86_64,60.0024001,,,,,,,,,,,,,,,,,,,,,right,1,1.6833,11,TRUE,FALSE,2,2,10,1,1,,,,,,,
,,,,,,1,2.139907153,#f3af84,"[""0"",""-0.25""]",up_orange.png,up,,,,,,,,right,right_blue.png,up_orange.png,up,left,down,5fad961b463be513d7486f86,2021-09-08_11h00.13.718,arrow_simon_vert,2021.1.2,Linux x86_64,60.0024001,,,,,,,,,,,,,,,,,,,,,up,1,4.5507,12,TRUE,FALSE,2,3,11,0,1,,,,,,,
,,,,,,1,2.098150564,#a3d0fb,"[""-0.25"",""0""]",right_blue.png,right,,,,,,,,right,right_blue.png,up_orange.png,up,left,down,5fad961b463be513d7486f86,2021-09-08_11h00.13.718,arrow_simon_vert,2021.1.2,Linux x86_64,60.0024001,,,,,,,,,,,,,,,,,,,,,right,1,2.4157,13,TRUE,FALSE,3,0,12,0,1,,,,,,,
,,,,,,1,1.509129757,#f3af84,"[""0"",""-0.25""]",down_orange.png,down,,,,,,,,left,left_blue.png,down_orange.png,down,left,down,5fad961b463be513d7486f86,2021-09-08_11h00.13.718,arrow_simon_vert,2021.1.2,Linux x86_64,60.0024001,,,,,,,,,,,,,,,,,,,,,down,1,1.101,14,FALSE,TRUE,3,1,13,2,1,,,,,,,
,,,,,,1,1.968957758,#a3d0fb,"[""0.25"",""0""]",left_blue.png,left,,,,,,,,left,left_blue.png,down_orange.png,down,right,up,5fad961b463be513d7486f86,2021-09-08_11h00.13.718,arrow_simon_vert,2021.1.2,Linux x86_64,60.0024001,,,,,,,,,,,,,,,,,,,,,left,1,1.7181,15,TRUE,FALSE,3,2,14,3,1,,,,,,,
,,,,,,0,1.848702234,#f3af84,"[""0"",""0.25""]",up_orange.png,up,,,,,,,,right,right_blue.png,up_orange.png,up,right,up,5fad961b463be513d7486f86,2021-09-08_11h00.13.718,arrow_simon_vert,2021.1.2,Linux x86_64,60.0024001,,,,,,,,,,,,,,,,,,,,,up,1,1.5874,16,FALSE,FALSE,3,3,15,1,1,,,,,,,
,,,,,,1,2.307103999,#a3d0fb,"[""0.25"",""0""]",left_blue.png,left,,,,,,,,left,left_blue.png,down_orange.png,down,right,up,5fad961b463be513d7486f86,2021-09-08_11h00.13.718,arrow_simon_vert,2021.1.2,Linux x86_64,60.0024001,,,,,,,,,,,,,,,,,,,,,down,0,1.4681,17,FALSE,FALSE,4,0,16,3,1,,,,,,,
,,,,,,1,1.700789247,#f3af84,"[""0"",""0.25""]",up_orange.png,up,,,,,,,,right,right_blue.png,up_orange.png,up,right,up,5fad961b463be513d7486f86,2021-09-08_11h00.13.718,arrow_simon_vert,2021.1.2,Linux x86_64,60.0024001,,,,,,,,,,,,,,,,,,,,,up,1,1.8666,18,TRUE,FALSE,4,1,17,1,1,,,,,,,
,,,,,,1,2.035855634,#a3d0fb,"[""-0.25"",""0""]",right_blue.png,right,,,,,,,,right,right_blue.png,up_orange.png,up,left,down,5fad961b463be513d7486f86,2021-09-08_11h00.13.718,arrow_simon_vert,2021.1.2,Linux x86_64,60.0024001,,,,,,,,,,,,,,,,,,,,,right,1,2.1513,19,TRUE,FALSE,4,2,18,0,1,,,,,,,
,,,,,,1,1.813153021,#f3af84,"[""0"",""0.25""]",up_orange.png,up,,,,,,,,right,right_blue.png,up_orange.png,up,right,up,5fad961b463be513d7486f86,2021-09-08_11h00.13.718,arrow_simon_vert,2021.1.2,Linux x86_64,60.0024001,,,,,,,,,,,,,,,,,,,,,up,1,1.2202,20,FALSE,TRUE,4,3,19,1,1,,,,,,,
,,,,,,1,1.990772318,#a3d0fb,"[""0.25"",""0""]",right_blue.png,right,,,,,,,,right,right_blue.png,up_orange.png,up,right,up,5fad961b463be513d7486f86,2021-09-08_11h00.13.718,arrow_simon_vert,2021.1.2,Linux x86_64,60.0024001,,,,,,,,,,,,,,,,,,,,,right,1,1.3884,21,FALSE,TRUE,5,0,20,1,1,,,,,,,
,,,,,,1,2.281802263,#f3af84,"[""0"",""-0.25""]",up_orange.png,up,,,,,,,,right,right_blue.png,up_orange.png,up,left,down,5fad961b463be513d7486f86,2021-09-08_11h00.13.718,arrow_simon_vert,2021.1.2,Linux x86_64,60.0024001,,,,,,,,,,,,,,,,,,,,,up,1,2.0838,22,TRUE,FALSE,5,1,21,0,1,,,,,,,
,,,,,,1,2.409341746,#a3d0fb,"[""0.25"",""0""]",left_blue.png,left,,,,,,,,left,left_blue.png,down_orange.png,down,right,up,5fad961b463be513d7486f86,2021-09-08_11h00.13.718,arrow_simon_vert,2021.1.2,Linux x86_64,60.0024001,,,,,,,,,,,,,,,,,,,,,up,0,1.8849,23,TRUE,FALSE,5,2,22,3,1,,,,,,,
,,,,,,1,1.590497784,#f3af84,"[""0"",""0.25""]",up_orange.png,up,,,,,,,,right,right_blue.png,up_orange.png,up,right,up,5fad961b463be513d7486f86,2021-09-08_11h00.13.718,arrow_simon_vert,2021.1.2,Linux x86_64,60.0024001,,,,,,,,,,,,,,,,,,,,,up,1,1.3169,24,FALSE,TRUE,5,3,23,1,1,,,,,,,
,,,,,,1,2.067561256,#a3d0fb,"[""-0.25"",""0""]",right_blue.png,right,,,,,,,,right,right_blue.png,up_orange.png,up,left,down,5fad961b463be513d7486f86,2021-09-08_11h00.13.718,arrow_simon_vert,2021.1.2,Linux x86_64,60.0024001,,,,,,,,,,,,,,,,,,,,,right,1,1.6353,25,TRUE,FALSE,6,0,24,0,1,,,,,,,
,,,,,,1,2.496559308,#f3af84,"[""0"",""0.25""]",down_orange.png,down,,,,,,,,left,left_blue.png,down_orange.png,down,right,up,5fad961b463be513d7486f86,2021-09-08_11h00.13.718,arrow_simon_vert,2021.1.2,Linux x86_64,60.0024001,,,,,,,,,,,,,,,,,,,,,right,0,0.5395,26,FALSE,TRUE,6,1,25,3,1,,,,,,,
,,,,,,1,2.314694136,#a3d0fb,"[""0.25"",""0""]",right_blue.png,right,,,,,,,,right,right_blue.png,up_orange.png,up,right,up,5fad961b463be513d7486f86,2021-09-08_11h00.13.718,arrow_simon_vert,2021.1.2,Linux x86_64,60.0024001,,,,,,,,,,,,,,,,,,,,,right,1,1.8816,27,TRUE,FALSE,6,2,26,1,1,,,,,,,
,,,,,,1,1.907993898,#f3af84,"[""0"",""0.25""]",down_orange.png,down,,,,,,,,left,left_blue.png,down_orange.png,down,right,up,5fad961b463be513d7486f86,2021-09-08_11h00.13.718,arrow_simon_vert,2021.1.2,Linux x86_64,60.0024001,,,,,,,,,,,,,,,,,,,,,down,1,1.8509,28,TRUE,FALSE,6,3,27,3,1,,,,,,,
,,,,,,1,2.026964446,#a3d0fb,"[""0.25"",""0""]",left_blue.png,left,,,,,,,,left,left_blue.png,down_orange.png,down,right,up,5fad961b463be513d7486f86,2021-09-08_11h00.13.718,arrow_simon_vert,2021.1.2,Linux x86_64,60.0024001,,,,,,,,,,,,,,,,,,,,,left,1,1.6336,29,TRUE,FALSE,7,0,28,3,1,,,,,,,
,,,,,,1,2.406752544,#f3af84,"[""0"",""-0.25""]",down_orange.png,down,,,,,,,,left,left_blue.png,down_orange.png,down,left,down,5fad961b463be513d7486f86,2021-09-08_11h00.13.718,arrow_simon_vert,2021.1.2,Linux x86_64,60.0024001,,,,,,,,,,,,,,,,,,,,,left,0,1.8732,30,TRUE,FALSE,7,1,29,2,1,,,,,,,
,,,,,,0,2.134213496,#a3d0fb,"[""0.25"",""0""]",right_blue.png,right,,,,,,,,right,right_blue.png,up_orange.png,up,right,up,5fad961b463be513d7486f86,2021-09-08_11h00.13.718,arrow_simon_vert,2021.1.2,Linux x86_64,60.0024001,,,,,,,,,,,,,,,,,,,,,right,1,1.5635,31,FALSE,FALSE,7,2,30,1,1,,,,,,,
,,,,,,0,2.306019102,#f3af84,"[""0"",""-0.25""]",down_orange.png,down,,,,,,,,left,left_blue.png,down_orange.png,down,left,down,5fad961b463be513d7486f86,2021-09-08_11h00.13.718,arrow_simon_vert,2021.1.2,Linux x86_64,60.0024001,,,,,,,,,,,,,,,,,,,,,down,1,1.7837,32,TRUE,FALSE,7,3,31,2,1,,,,,,,
,,,,,,0,1.928569062,#a3d0fb,"[""-0.25"",""0""]",right_blue.png,right,,,,,,,,right,right_blue.png,up_orange.png,up,left,down,5fad961b463be513d7486f86,2021-09-08_11h00.13.718,arrow_simon_vert,2021.1.2,Linux x86_64,60.0024001,,,,,,,,,,,,,,,,,,,,,right,1,1.6059,33,TRUE,FALSE,8,0,32,0,1,,,,,,,
,,,,,,0,2.223359957,#f3af84,"[""0"",""-0.25""]",up_orange.png,up,,,,,,,,right,right_blue.png,up_orange.png,up,left,down,5fad961b463be513d7486f86,2021-09-08_11h00.13.718,arrow_simon_vert,2021.1.2,Linux x86_64,60.0024001,,,,,,,,,,,,,,,,,,,,,up,1,2.0475,34,TRUE,FALSE,8,1,33,0,1,,,,,,,
,,,,,,0,1.912654442,#a3d0fb,"[""-0.25"",""0""]",left_blue.png,left,,,,,,,,left,left_blue.png,down_orange.png,down,left,down,5fad961b463be513d7486f86,2021-09-08_11h00.13.718,arrow_simon_vert,2021.1.2,Linux x86_64,60.0024001,,,,,,,,,,,,,,,,,,,,,left,1,1.468,35,FALSE,FALSE,8,2,34,2,1,,,,,,,
,,,,,,0,1.535052175,#f3af84,"[""0"",""-0.25""]",up_orange.png,up,,,,,,,,right,right_blue.png,up_orange.png,up,left,down,5fad961b463be513d7486f86,2021-09-08_11h00.13.718,arrow_simon_vert,2021.1.2,Linux x86_64,60.0024001,,,,,,,,,,,,,,,,,,,,,down,0,1.0023,36,FALSE,TRUE,8,3,35,0,1,,,,,,,
,,,,,,0,2.346264784,#a3d0fb,"[""-0.25"",""0""]",left_blue.png,left,,,,,,,,left,left_blue.png,down_orange.png,down,left,down,5fad961b463be513d7486f86,2021-09-08_11h00.13.718,arrow_simon_vert,2021.1.2,Linux x86_64,60.0024001,,,,,,,,,,,,,,,,,,,,,left,1,2.0009,37,TRUE,FALSE,9,0,36,2,1,,,,,,,
,,,,,,0,2.152231644,#f3af84,"[""0"",""-0.25""]",up_orange.png,up,,,,,,,,right,right_blue.png,up_orange.png,up,left,down,5fad961b463be513d7486f86,2021-09-08_11h00.13.718,arrow_simon_vert,2021.1.2,Linux x86_64,60.0024001,,,,,,,,,,,,,,,,,,,,,up,1,1.7674,38,TRUE,FALSE,9,1,37,0,1,,,,,,,
,,,,,,0,1.990660753,#a3d0fb,"[""-0.25"",""0""]",left_blue.png,left,,,,,,,,left,left_blue.png,down_orange.png,down,left,down,5fad961b463be513d7486f86,2021-09-08_11h00.13.718,arrow_simon_vert,2021.1.2,Linux x86_64,60.0024001,,,,,,,,,,,,,,,,,,,,,left,1,1.6853,39,TRUE,FALSE,9,2,38,2,1,,,,,,,
,,,,,,0,1.611517131,#f3af84,"[""0"",""-0.25""]",down_orange.png,down,,,,,,,,left,left_blue.png,down_orange.png,down,left,down,5fad961b463be513d7486f86,2021-09-08_11h00.13.718,arrow_simon_vert,2021.1.2,Linux x86_64,60.0024001,,,,,,,,,,,,,,,,,,,,,down,1,1.4841,40,FALSE,FALSE,9,3,39,2,1,,,,,,,
,,,,,,0,2.121887933,#a3d0fb,"[""0.25"",""0""]",right_blue.png,right,,,,,,,,right,right_blue.png,up_orange.png,up,right,up,5fad961b463be513d7486f86,2021-09-08_11h00.13.718,arrow_simon_vert,2021.1.2,Linux x86_64,60.0024001,,,,,,,,,,,,,,,,,,,,,right,1,1.5572,41,FALSE,FALSE,10,0,40,1,1,,,,,,,
,,,,,,0,2.292093834,#f3af84,"[""0"",""0.25""]",up_orange.png,up,,,,,,,,right,right_blue.png,up_orange.png,up,right,up,5fad961b463be513d7486f86,2021-09-08_11h00.13.718,arrow_simon_vert,2021.1.2,Linux x86_64,60.0024001,,,,,,,,,,,,,,,,,,,,,up,1,1.7357,42,TRUE,FALSE,10,1,41,1,1,,,,,,,
,,,,,,0,1.704365217,#a3d0fb,"[""0.25"",""0""]",left_blue.png,left,,,,,,,,left,left_blue.png,down_orange.png,down,right,up,5fad961b463be513d7486f86,2021-09-08_11h00.13.718,arrow_simon_vert,2021.1.2,Linux x86_64,60.0024001,,,,,,,,,,,,,,,,,,,,,left,1,1.3382,43,FALSE,TRUE,10,2,42,3,1,,,,,,,
,,,,,,0,2.159769026,#f3af84,"[""0"",""-0.25""]",down_orange.png,down,,,,,,,,left,left_blue.png,down_orange.png,down,left,down,5fad961b463be513d7486f86,2021-09-08_11h00.13.718,arrow_simon_vert,2021.1.2,Linux x86_64,60.0024001,,,,,,,,,,,,,,,,,,,,,down,1,2.1671,44,TRUE,FALSE,10,3,43,2,1,,,,,,,
,,,,,,0,2.112317396,#a3d0fb,"[""-0.25"",""0""]",right_blue.png,right,,,,,,,,right,right_blue.png,up_orange.png,up,left,down,5fad961b463be513d7486f86,2021-09-08_11h00.13.718,arrow_simon_vert,2021.1.2,Linux x86_64,60.0024001,,,,,,,,,,,,,,,,,,,,,right,1,1.6712,45,TRUE,FALSE,11,0,44,0,1,,,,,,,
,,,,,,0,2.382919047,#f3af84,"[""0"",""0.25""]",down_orange.png,down,,,,,,,,left,left_blue.png,down_orange.png,down,right,up,5fad961b463be513d7486f86,2021-09-08_11h00.13.718,arrow_simon_vert,2021.1.2,Linux x86_64,60.0024001,,,,,,,,,,,,,,,,,,,,,down,1,2.0905,46,TRUE,FALSE,11,1,45,3,1,,,,,,,
,,,,,,0,1.67261542,#a3d0fb,"[""0.25"",""0""]",left_blue.png,left,,,,,,,,left,left_blue.png,down_orange.png,down,right,up,5fad961b463be513d7486f86,2021-09-08_11h00.13.718,arrow_simon_vert,2021.1.2,Linux x86_64,60.0024001,,,,,,,,,,,,,,,,,,,,,left,1,1.5537,47,FALSE,FALSE,11,2,46,3,1,,,,,,,
,,,,,,0,1.618191373,#f3af84,"[""0"",""0.25""]",up_orange.png,up,,,,,,,,right,right_blue.png,up_orange.png,up,right,up,5fad961b463be513d7486f86,2021-09-08_11h00.13.718,arrow_simon_vert,2021.1.2,Linux x86_64,60.0024001,,,,,,,,,,,,,,,,,,,,,up,1,1.1312,48,FALSE,TRUE,11,3,47,1,1,,,,,,,
,,,,,,0,2.395663799,#a3d0fb,"[""0.25"",""0""]",left_blue.png,left,,,,,,,,left,left_blue.png,down_orange.png,down,right,up,5fad961b463be513d7486f86,2021-09-08_11h00.13.718,arrow_simon_vert,2021.1.2,Linux x86_64,60.0024001,,,,,,,,,,,,,,,,,,,,,left,1,2.053,49,TRUE,FALSE,12,0,48,3,1,,,,,,,
,,,,,,0,2.355894035,#f3af84,"[""0"",""0.25""]",up_orange.png,up,,,,,,,,right,right_blue.png,up_orange.png,up,right,up,5fad961b463be513d7486f86,2021-09-08_11h00.13.718,arrow_simon_vert,2021.1.2,Linux x86_64,60.0024001,,,,,,,,,,,,,,,,,,,,,up,1,1.9677,50,TRUE,FALSE,12,1,49,1,1,,,,,,,
,,,,,,0,1.589696909,#a3d0fb,"[""-0.25"",""0""]",right_blue.png,right,,,,,,,,right,right_blue.png,up_orange.png,up,left,down,5fad961b463be513d7486f86,2021-09-08_11h00.13.718,arrow_simon_vert,2021.1.2,Linux x86_64,60.0024001,,,,,,,,,,,,,,,,,,,,,right,1,1.3182,51,FALSE,TRUE,12,2,50,0,1,,,,,,,
,,,,,,0,1.801944872,#f3af84,"[""0"",""0.25""]",down_orange.png,down,,,,,,,,left,left_blue.png,down_orange.png,down,right,up,5fad961b463be513d7486f86,2021-09-08_11h00.13.718,arrow_simon_vert,2021.1.2,Linux x86_64,60.0024001,,,,,,,,,,,,,,,,,,,,,down,1,1.785,52,TRUE,FALSE,12,3,51,3,1,,,,,,,
,,,,,,0,1.943055678,#a3d0fb,"[""-0.25"",""0""]",right_blue.png,right,,,,,,,,right,right_blue.png,up_orange.png,up,left,down,5fad961b463be513d7486f86,2021-09-08_11h00.13.718,arrow_simon_vert,2021.1.2,Linux x86_64,60.0024001,,,,,,,,,,,,,,,,,,,,,right,1,0.8676,53,FALSE,TRUE,13,0,52,0,1,,,,,,,
,,,,,,0,1.878362098,#f3af84,"[""0"",""-0.25""]",down_orange.png,down,,,,,,,,left,left_blue.png,down_orange.png,down,left,down,5fad961b463be513d7486f86,2021-09-08_11h00.13.718,arrow_simon_vert,2021.1.2,Linux x86_64,60.0024001,,,,,,,,,,,,,,,,,,,,,down,1,1.5673,54,FALSE,FALSE,13,1,53,2,1,,,,,,,
,,,,,,0,2.241283871,#a3d0fb,"[""0.25"",""0""]",left_blue.png,left,,,,,,,,left,left_blue.png,down_orange.png,down,right,up,5fad961b463be513d7486f86,2021-09-08_11h00.13.718,arrow_simon_vert,2021.1.2,Linux x86_64,60.0024001,,,,,,,,,,,,,,,,,,,,,left,1,1.9675,55,TRUE,FALSE,13,2,54,3,1,,,,,,,
,,,,,,0,2.330226304,#f3af84,"[""0"",""0.25""]",up_orange.png,up,,,,,,,,right,right_blue.png,up_orange.png,up,right,up,5fad961b463be513d7486f86,2021-09-08_11h00.13.718,arrow_simon_vert,2021.1.2,Linux x86_64,60.0024001,,,,,,,,,,,,,,,,,,,,,up,1,3.2852,56,TRUE,FALSE,13,3,55,1,1,,,,,,,
,,,,,,0,2.176985322,#a3d0fb,"[""-0.25"",""0""]",right_blue.png,right,,,,,,,,right,right_blue.png,up_orange.png,up,left,down,5fad961b463be513d7486f86,2021-09-08_11h00.13.718,arrow_simon_vert,2021.1.2,Linux x86_64,60.0024001,,,,,,,,,,,,,,,,,,,,,right,1,1.8012,57,TRUE,FALSE,14,0,56,0,1,,,,,,,
,,,,,,0,2.282623763,#f3af84,"[""0"",""-0.25""]",down_orange.png,down,,,,,,,,left,left_blue.png,down_orange.png,down,left,down,5fad961b463be513d7486f86,2021-09-08_11h00.13.718,arrow_simon_vert,2021.1.2,Linux x86_64,60.0024001,,,,,,,,,,,,,,,,,,,,,down,1,1.8853,58,TRUE,FALSE,14,1,57,2,1,,,,,,,
,,,,,,0,2.053565187,#a3d0fb,"[""0.25"",""0""]",right_blue.png,right,,,,,,,,right,right_blue.png,up_orange.png,up,right,up,5fad961b463be513d7486f86,2021-09-08_11h00.13.718,arrow_simon_vert,2021.1.2,Linux x86_64,60.0024001,,,,,,,,,,,,,,,,,,,,,right,1,1.6568,59,TRUE,FALSE,14,2,58,1,1,,,,,,,
,,,,,,0,2.015224109,#f3af84,"[""0"",""-0.25""]",down_orange.png,down,,,,,,,,left,left_blue.png,down_orange.png,down,left,down,5fad961b463be513d7486f86,2021-09-08_11h00.13.718,arrow_simon_vert,2021.1.2,Linux x86_64,60.0024001,,,,,,,,,,,,,,,,,,,,,down,1,1.7052,60,TRUE,FALSE,14,3,59,2,1,,,,,,,
,,,,,,,,,,,,,,,,,,,,,,,,,5fad961b463be513d7486f86,2021-09-08_11h00.13.718,arrow_simon_vert,2021.1.2,Linux x86_64,60.0024001,,,,,,,,,,,,,,,,,,,,,,,,,,,,,,,,space,105.8736,2,0,2,0,1
,,,,,,0,1.582289288,#a3d0fb,"[""-0.25"",""0""]",right_blue.png,right,,,,,,,,right,right_blue.png,up_orange.png,up,left,down,5fad961b463be513d7486f86,2021-09-08_11h00.13.718,arrow_simon_vert,2021.1.2,Linux x86_64,60.0024001,,,,,,,,,,,,,,,,,,,,,right,1,1.8072,1,TRUE,FALSE,0,0,0,0,1,,,,,,,
,,,,,,0,2.156168715,#f3af84,"[""0"",""-0.25""]",down_orange.png,down,,,,,,,,left,left_blue.png,down_orange.png,down,left,down,5fad961b463be513d7486f86,2021-09-08_11h00.13.718,arrow_simon_vert,2021.1.2,Linux x86_64,60.0024001,,,,,,,,,,,,,,,,,,,,,down,1,2.1195,2,TRUE,FALSE,0,1,1,2,1,,,,,,,
,,,,,,0,2.485611934,#a3d0fb,"[""0.25"",""0""]",left_blue.png,left,,,,,,,,left,left_blue.png,down_orange.png,down,right,up,5fad961b463be513d7486f86,2021-09-08_11h00.13.718,arrow_simon_vert,2021.1.2,Linux x86_64,60.0024001,,,,,,,,,,,,,,,,,,,,,left,1,2.3337,3,TRUE,FALSE,0,2,2,3,1,,,,,,,
,,,,,,0,2.206279366,#f3af84,"[""0"",""-0.25""]",up_orange.png,up,,,,,,,,right,right_blue.png,up_orange.png,up,left,down,5fad961b463be513d7486f86,2021-09-08_11h00.13.718,arrow_simon_vert,2021.1.2,Linux x86_64,60.0024001,,,,,,,,,,,,,,,,,,,,,up,1,1.8346,4,TRUE,FALSE,0,3,3,0,1,,,,,,,
,,,,,,0,1.949663254,#a3d0fb,"[""-0.25"",""0""]",left_blue.png,left,,,,,,,,left,left_blue.png,down_orange.png,down,left,down,5fad961b463be513d7486f86,2021-09-08_11h00.13.718,arrow_simon_vert,2021.1.2,Linux x86_64,60.0024001,,,,,,,,,,,,,,,,,,,,,left,1,1.5839,5,FALSE,FALSE,1,0,4,2,1,,,,,,,
,,,,,,0,1.587828959,#f3af84,"[""0"",""-0.25""]",up_orange.png,up,,,,,,,,right,right_blue.png,up_orange.png,up,left,down,5fad961b463be513d7486f86,2021-09-08_11h00.13.718,arrow_simon_vert,2021.1.2,Linux x86_64,60.0024001,,,,,,,,,,,,,,,,,,,,,up,1,1.3638,6,FALSE,TRUE,1,1,5,0,1,,,,,,,
,,,,,,0,1.717926108,#a3d0fb,"[""0.25"",""0""]",right_blue.png,right,,,,,,,,right,right_blue.png,up_orange.png,up,right,up,5fad961b463be513d7486f86,2021-09-08_11h00.13.718,arrow_simon_vert,2021.1.2,Linux x86_64,60.0024001,,,,,,,,,,,,,,,,,,,,,right,1,1.2808,7,FALSE,TRUE,1,2,6,1,1,,,,,,,
