instruct_resp_simon.keys,instruct_resp_simon.corr,instruct_resp_simon.rt,trial_resp_simon.keys,trial_resp_simon.corr,trial_resp_simon.rt,kerr,target_onset,target_color,target_pos,target_file,target_resp,trials_train_simon.thisRepN,trials_train_simon.thisTrialN,trials_train_simon.thisN,trials_train_simon.thisIndex,trials_train_simon.ran,odd_target_pos,even_target_pos,odd_target_resp,odd_target_file,even_target_file,even_target_resp,odd_target_side,even_target_side,participant,date,expName,psychopyVersion,OS,frameRate,train_block_note_resp.keys,train_block_note_resp.rt,blocks_train.thisRepN,blocks_train.thisTrialN,blocks_train.thisN,blocks_train.thisIndex,blocks_train.ran,instruct_resp_timing.keys,instruct_resp_timing.corr,instruct_resp_timing.rt,trial_resp_timing.keys,trial_resp_timing.rt,trials_train_timing.thisRepN,trials_train_timing.thisTrialN,trials_train_timing.thisN,trials_train_timing.thisIndex,trials_train_timing.ran,instruct_resp.keys,instruct_resp.corr,instruct_resp.rt,trial_resp.keys,trial_resp.corr,trial_resp.rt,trial_num,too_slow,too_soon,trials.thisRepN,trials.thisTrialN,trials.thisN,trials.thisIndex,trials.ran,block_note_resp.keys,block_note_resp.rt,blocks.thisRepN,blocks.thisTrialN,blocks.thisN,blocks.thisIndex,blocks.ran
space,0,435.6423,left,1,2.6788,0,0.429650538,#a3d0fb,"[""0.25"",""0""]",left_blue.png,left,0,0,0,3,1,,,left,left_blue.png,down_orange.png,down,right,up,5fc50bb38378c80ac88354ef,2021-09-11_17h31.20.443,arrow_simon_vert,2021.1.2,Win32,59.61962678,,,,,,,,,,,,,,,,,,,,,,,,,,,,,,,,,,,,,,
,,,down,1,2.27,0,0.067911523,#f3af84,"[""0"",""0.25""]",down_orange.png,down,0,1,1,3,1,,,left,left_blue.png,down_orange.png,down,right,up,5fc50bb38378c80ac88354ef,2021-09-11_17h31.20.443,arrow_simon_vert,2021.1.2,Win32,59.61962678,,,,,,,,,,,,,,,,,,,,,,,,,,,,,,,,,,,,,,
,,,right,1,1.6544,0,0.865744918,#a3d0fb,"[""0.25"",""0""]",right_blue.png,right,0,2,2,1,1,,,right,right_blue.png,up_orange.png,up,right,up,5fc50bb38378c80ac88354ef,2021-09-11_17h31.20.443,arrow_simon_vert,2021.1.2,Win32,59.61962678,,,,,,,,,,,,,,,,,,,,,,,,,,,,,,,,,,,,,,
,,,down,1,1.4522,0,0.577221557,#f3af84,"[""0"",""-0.25""]",down_orange.png,down,0,3,3,2,1,,,left,left_blue.png,down_orange.png,down,left,down,5fc50bb38378c80ac88354ef,2021-09-11_17h31.20.443,arrow_simon_vert,2021.1.2,Win32,59.61962678,,,,,,,,,,,,,,,,,,,,,,,,,,,,,,,,,,,,,,
,,,left,1,1.8747,0,0.209370936,#a3d0fb,"[""0.25"",""0""]",left_blue.png,left,1,0,4,3,1,,,left,left_blue.png,down_orange.png,down,right,up,5fc50bb38378c80ac88354ef,2021-09-11_17h31.20.443,arrow_simon_vert,2021.1.2,Win32,59.61962678,,,,,,,,,,,,,,,,,,,,,,,,,,,,,,,,,,,,,,
,,,up,1,1.5191,0,0.082678778,#f3af84,"[""0"",""-0.25""]",up_orange.png,up,1,1,5,0,1,,,right,right_blue.png,up_orange.png,up,left,down,5fc50bb38378c80ac88354ef,2021-09-11_17h31.20.443,arrow_simon_vert,2021.1.2,Win32,59.61962678,,,,,,,,,,,,,,,,,,,,,,,,,,,,,,,,,,,,,,
,,,left,1,1.723,0,0.976630744,#a3d0fb,"[""0.25"",""0""]",left_blue.png,left,1,2,6,3,1,,,left,left_blue.png,down_orange.png,down,right,up,5fc50bb38378c80ac88354ef,2021-09-11_17h31.20.443,arrow_simon_vert,2021.1.2,Win32,59.61962678,,,,,,,,,,,,,,,,,,,,,,,,,,,,,,,,,,,,,,
,,,down,1,1.3898,0,0.208607791,#f3af84,"[""0"",""-0.25""]",down_orange.png,down,1,3,7,2,1,,,left,left_blue.png,down_orange.png,down,left,down,5fc50bb38378c80ac88354ef,2021-09-11_17h31.20.443,arrow_simon_vert,2021.1.2,Win32,59.61962678,,,,,,,,,,,,,,,,,,,,,,,,,,,,,,,,,,,,,,
,,,left,1,1.7024,0,0.160873447,#a3d0fb,"[""0.25"",""0""]",left_blue.png,left,2,0,8,3,1,,,left,left_blue.png,down_orange.png,down,right,up,5fc50bb38378c80ac88354ef,2021-09-11_17h31.20.443,arrow_simon_vert,2021.1.2,Win32,59.61962678,,,,,,,,,,,,,,,,,,,,,,,,,,,,,,,,,,,,,,
,,,down,1,1.1184,0,0.037219268,#f3af84,"[""0"",""-0.25""]",down_orange.png,down,2,1,9,2,1,,,left,left_blue.png,down_orange.png,down,left,down,5fc50bb38378c80ac88354ef,2021-09-11_17h31.20.443,arrow_simon_vert,2021.1.2,Win32,59.61962678,,,,,,,,,,,,,,,,,,,,,,,,,,,,,,,,,,,,,,
,,,left,1,1.202,0,0.303400803,#a3d0fb,"[""-0.25"",""0""]",left_blue.png,left,2,2,10,2,1,,,left,left_blue.png,down_orange.png,down,left,down,5fc50bb38378c80ac88354ef,2021-09-11_17h31.20.443,arrow_simon_vert,2021.1.2,Win32,59.61962678,,,,,,,,,,,,,,,,,,,,,,,,,,,,,,,,,,,,,,
,,,down,1,1.9528,0,0.955362372,#f3af84,"[""0"",""0.25""]",down_orange.png,down,2,3,11,3,1,,,left,left_blue.png,down_orange.png,down,right,up,5fc50bb38378c80ac88354ef,2021-09-11_17h31.20.443,arrow_simon_vert,2021.1.2,Win32,59.61962678,,,,,,,,,,,,,,,,,,,,,,,,,,,,,,,,,,,,,,
,,,left,1,1.2249,0,0.594537375,#a3d0fb,"[""-0.25"",""0""]",left_blue.png,left,3,0,12,2,1,,,left,left_blue.png,down_orange.png,down,left,down,5fc50bb38378c80ac88354ef,2021-09-11_17h31.20.443,arrow_simon_vert,2021.1.2,Win32,59.61962678,,,,,,,,,,,,,,,,,,,,,,,,,,,,,,,,,,,,,,
,,,up,1,2.5726,0,0.453560336,#f3af84,"[""0"",""-0.25""]",up_orange.png,up,3,1,13,0,1,,,right,right_blue.png,up_orange.png,up,left,down,5fc50bb38378c80ac88354ef,2021-09-11_17h31.20.443,arrow_simon_vert,2021.1.2,Win32,59.61962678,,,,,,,,,,,,,,,,,,,,,,,,,,,,,,,,,,,,,,
,,,right,1,1.1771,0,0.489790988,#a3d0fb,"[""0.25"",""0""]",right_blue.png,right,3,2,14,1,1,,,right,right_blue.png,up_orange.png,up,right,up,5fc50bb38378c80ac88354ef,2021-09-11_17h31.20.443,arrow_simon_vert,2021.1.2,Win32,59.61962678,,,,,,,,,,,,,,,,,,,,,,,,,,,,,,,,,,,,,,
,,,down,1,1.2253,0,0.260255262,#f3af84,"[""0"",""0.25""]",down_orange.png,down,3,3,15,3,1,,,left,left_blue.png,down_orange.png,down,right,up,5fc50bb38378c80ac88354ef,2021-09-11_17h31.20.443,arrow_simon_vert,2021.1.2,Win32,59.61962678,,,,,,,,,,,,,,,,,,,,,,,,,,,,,,,,,,,,,,
,,,right,1,1.102,0,0.182956271,#a3d0fb,"[""0.25"",""0""]",right_blue.png,right,4,0,16,1,1,,,right,right_blue.png,up_orange.png,up,right,up,5fc50bb38378c80ac88354ef,2021-09-11_17h31.20.443,arrow_simon_vert,2021.1.2,Win32,59.61962678,,,,,,,,,,,,,,,,,,,,,,,,,,,,,,,,,,,,,,
,,,down,1,1.1687,0,0.358576667,#f3af84,"[""0"",""0.25""]",down_orange.png,down,4,1,17,3,1,,,left,left_blue.png,down_orange.png,down,right,up,5fc50bb38378c80ac88354ef,2021-09-11_17h31.20.443,arrow_simon_vert,2021.1.2,Win32,59.61962678,,,,,,,,,,,,,,,,,,,,,,,,,,,,,,,,,,,,,,
,,,right,1,0.8881,0,0.189053763,#a3d0fb,"[""0.25"",""0""]",right_blue.png,right,4,2,18,1,1,,,right,right_blue.png,up_orange.png,up,right,up,5fc50bb38378c80ac88354ef,2021-09-11_17h31.20.443,arrow_simon_vert,2021.1.2,Win32,59.61962678,,,,,,,,,,,,,,,,,,,,,,,,,,,,,,,,,,,,,,
,,,up,1,1.6525,0,0.626316752,#f3af84,"[""0"",""0.25""]",up_orange.png,up,4,3,19,1,1,,,right,right_blue.png,up_orange.png,up,right,up,5fc50bb38378c80ac88354ef,2021-09-11_17h31.20.443,arrow_simon_vert,2021.1.2,Win32,59.61962678,,,,,,,,,,,,,,,,,,,,,,,,,,,,,,,,,,,,,,
,,,left,1,1.519,0,0.621692593,#a3d0fb,"[""-0.25"",""0""]",left_blue.png,left,5,0,20,2,1,,,left,left_blue.png,down_orange.png,down,left,down,5fc50bb38378c80ac88354ef,2021-09-11_17h31.20.443,arrow_simon_vert,2021.1.2,Win32,59.61962678,,,,,,,,,,,,,,,,,,,,,,,,,,,,,,,,,,,,,,
,,,down,1,1.3021,0,0.485467444,#f3af84,"[""0"",""-0.25""]",down_orange.png,down,5,1,21,2,1,,,left,left_blue.png,down_orange.png,down,left,down,5fc50bb38378c80ac88354ef,2021-09-11_17h31.20.443,arrow_simon_vert,2021.1.2,Win32,59.61962678,,,,,,,,,,,,,,,,,,,,,,,,,,,,,,,,,,,,,,
,,,left,1,1.1554,0,0.047834188,#a3d0fb,"[""0.25"",""0""]",left_blue.png,left,5,2,22,3,1,,,left,left_blue.png,down_orange.png,down,right,up,5fc50bb38378c80ac88354ef,2021-09-11_17h31.20.443,arrow_simon_vert,2021.1.2,Win32,59.61962678,,,,,,,,,,,,,,,,,,,,,,,,,,,,,,,,,,,,,,
,,,up,1,1.2173,0,0.221109446,#f3af84,"[""0"",""-0.25""]",up_orange.png,up,5,3,23,0,1,,,right,right_blue.png,up_orange.png,up,left,down,5fc50bb38378c80ac88354ef,2021-09-11_17h31.20.443,arrow_simon_vert,2021.1.2,Win32,59.61962678,,,,,,,,,,,,,,,,,,,,,,,,,,,,,,,,,,,,,,
,,,right,1,1.2689,0,0.622573759,#a3d0fb,"[""0.25"",""0""]",right_blue.png,right,6,0,24,1,1,,,right,right_blue.png,up_orange.png,up,right,up,5fc50bb38378c80ac88354ef,2021-09-11_17h31.20.443,arrow_simon_vert,2021.1.2,Win32,59.61962678,,,,,,,,,,,,,,,,,,,,,,,,,,,,,,,,,,,,,,
,,,up,1,1.1368,0,0.03947678,#f3af84,"[""0"",""0.25""]",up_orange.png,up,6,1,25,1,1,,,right,right_blue.png,up_orange.png,up,right,up,5fc50bb38378c80ac88354ef,2021-09-11_17h31.20.443,arrow_simon_vert,2021.1.2,Win32,59.61962678,,,,,,,,,,,,,,,,,,,,,,,,,,,,,,,,,,,,,,
,,,right,1,1.6868,0,0.916455199,#a3d0fb,"[""-0.25"",""0""]",right_blue.png,right,6,2,26,0,1,,,right,right_blue.png,up_orange.png,up,left,down,5fc50bb38378c80ac88354ef,2021-09-11_17h31.20.443,arrow_simon_vert,2021.1.2,Win32,59.61962678,,,,,,,,,,,,,,,,,,,,,,,,,,,,,,,,,,,,,,
,,,down,1,1.319,0,0.329668146,#f3af84,"[""0"",""0.25""]",down_orange.png,down,6,3,27,3,1,,,left,left_blue.png,down_orange.png,down,right,up,5fc50bb38378c80ac88354ef,2021-09-11_17h31.20.443,arrow_simon_vert,2021.1.2,Win32,59.61962678,,,,,,,,,,,,,,,,,,,,,,,,,,,,,,,,,,,,,,
,,,right,1,1.2519,0,0.474687424,#a3d0fb,"[""-0.25"",""0""]",right_blue.png,right,7,0,28,0,1,,,right,right_blue.png,up_orange.png,up,left,down,5fc50bb38378c80ac88354ef,2021-09-11_17h31.20.443,arrow_simon_vert,2021.1.2,Win32,59.61962678,,,,,,,,,,,,,,,,,,,,,,,,,,,,,,,,,,,,,,
,,,down,1,1.6191,0,0.930213969,#f3af84,"[""0"",""-0.25""]",down_orange.png,down,7,1,29,2,1,,,left,left_blue.png,down_orange.png,down,left,down,5fc50bb38378c80ac88354ef,2021-09-11_17h31.20.443,arrow_simon_vert,2021.1.2,Win32,59.61962678,,,,,,,,,,,,,,,,,,,,,,,,,,,,,,,,,,,,,,
,,,right,1,1.3764,0,0.748414569,#a3d0fb,"[""-0.25"",""0""]",right_blue.png,right,7,2,30,0,1,,,right,right_blue.png,up_orange.png,up,left,down,5fc50bb38378c80ac88354ef,2021-09-11_17h31.20.443,arrow_simon_vert,2021.1.2,Win32,59.61962678,,,,,,,,,,,,,,,,,,,,,,,,,,,,,,,,,,,,,,
,,,up,1,1.3215,0,0.179130972,#f3af84,"[""0"",""-0.25""]",up_orange.png,up,7,3,31,0,1,,,right,right_blue.png,up_orange.png,up,left,down,5fc50bb38378c80ac88354ef,2021-09-11_17h31.20.443,arrow_simon_vert,2021.1.2,Win32,59.61962678,,,,,,,,,,,,,,,,,,,,,,,,,,,,,,,,,,,,,,
,,,left,1,1.3694,0,0.782772895,#a3d0fb,"[""-0.25"",""0""]",left_blue.png,left,8,0,32,2,1,,,left,left_blue.png,down_orange.png,down,left,down,5fc50bb38378c80ac88354ef,2021-09-11_17h31.20.443,arrow_simon_vert,2021.1.2,Win32,59.61962678,,,,,,,,,,,,,,,,,,,,,,,,,,,,,,,,,,,,,,
,,,up,1,1.7527,0,0.937175482,#f3af84,"[""0"",""-0.25""]",up_orange.png,up,8,1,33,0,1,,,right,right_blue.png,up_orange.png,up,left,down,5fc50bb38378c80ac88354ef,2021-09-11_17h31.20.443,arrow_simon_vert,2021.1.2,Win32,59.61962678,,,,,,,,,,,,,,,,,,,,,,,,,,,,,,,,,,,,,,
,,,right,1,1.1084,0,0.28863924,#a3d0fb,"[""0.25"",""0""]",right_blue.png,right,8,2,34,1,1,,,right,right_blue.png,up_orange.png,up,right,up,5fc50bb38378c80ac88354ef,2021-09-11_17h31.20.443,arrow_simon_vert,2021.1.2,Win32,59.61962678,,,,,,,,,,,,,,,,,,,,,,,,,,,,,,,,,,,,,,
,,,up,1,1.0409,0,0.491620294,#f3af84,"[""0"",""0.25""]",up_orange.png,up,8,3,35,1,1,,,right,right_blue.png,up_orange.png,up,right,up,5fc50bb38378c80ac88354ef,2021-09-11_17h31.20.443,arrow_simon_vert,2021.1.2,Win32,59.61962678,,,,,,,,,,,,,,,,,,,,,,,,,,,,,,,,,,,,,,
,,,left,1,1.3599,0,0.414482947,#a3d0fb,"[""0.25"",""0""]",left_blue.png,left,9,0,36,3,1,,,left,left_blue.png,down_orange.png,down,right,up,5fc50bb38378c80ac88354ef,2021-09-11_17h31.20.443,arrow_simon_vert,2021.1.2,Win32,59.61962678,,,,,,,,,,,,,,,,,,,,,,,,,,,,,,,,,,,,,,
,,,down,1,1.2059,0,0.318974369,#f3af84,"[""0"",""-0.25""]",down_orange.png,down,9,1,37,2,1,,,left,left_blue.png,down_orange.png,down,left,down,5fc50bb38378c80ac88354ef,2021-09-11_17h31.20.443,arrow_simon_vert,2021.1.2,Win32,59.61962678,,,,,,,,,,,,,,,,,,,,,,,,,,,,,,,,,,,,,,
,,,right,1,0.9853,0,0.21429347,#a3d0fb,"[""-0.25"",""0""]",right_blue.png,right,9,2,38,0,1,,,right,right_blue.png,up_orange.png,up,left,down,5fc50bb38378c80ac88354ef,2021-09-11_17h31.20.443,arrow_simon_vert,2021.1.2,Win32,59.61962678,,,,,,,,,,,,,,,,,,,,,,,,,,,,,,,,,,,,,,
,,,down,1,1.1597,0,0.666643068,#f3af84,"[""0"",""-0.25""]",down_orange.png,down,9,3,39,2,1,,,left,left_blue.png,down_orange.png,down,left,down,5fc50bb38378c80ac88354ef,2021-09-11_17h31.20.443,arrow_simon_vert,2021.1.2,Win32,59.61962678,,,,,,,,,,,,,,,,,,,,,,,,,,,,,,,,,,,,,,
,,,right,1,1.2262,0,0.651430882,#a3d0fb,"[""-0.25"",""0""]",right_blue.png,right,10,0,40,0,1,,,right,right_blue.png,up_orange.png,up,left,down,5fc50bb38378c80ac88354ef,2021-09-11_17h31.20.443,arrow_simon_vert,2021.1.2,Win32,59.61962678,,,,,,,,,,,,,,,,,,,,,,,,,,,,,,,,,,,,,,
,,,down,1,1.4692,0,0.963909614,#f3af84,"[""0"",""-0.25""]",down_orange.png,down,10,1,41,2,1,,,left,left_blue.png,down_orange.png,down,left,down,5fc50bb38378c80ac88354ef,2021-09-11_17h31.20.443,arrow_simon_vert,2021.1.2,Win32,59.61962678,,,,,,,,,,,,,,,,,,,,,,,,,,,,,,,,,,,,,,
,,,right,1,1.0185,0,0.37768935,#a3d0fb,"[""0.25"",""0""]",right_blue.png,right,10,2,42,1,1,,,right,right_blue.png,up_orange.png,up,right,up,5fc50bb38378c80ac88354ef,2021-09-11_17h31.20.443,arrow_simon_vert,2021.1.2,Win32,59.61962678,,,,,,,,,,,,,,,,,,,,,,,,,,,,,,,,,,,,,,
,,,down,1,1.0225,0,0.484515464,#f3af84,"[""0"",""-0.25""]",down_orange.png,down,10,3,43,2,1,,,left,left_blue.png,down_orange.png,down,left,down,5fc50bb38378c80ac88354ef,2021-09-11_17h31.20.443,arrow_simon_vert,2021.1.2,Win32,59.61962678,,,,,,,,,,,,,,,,,,,,,,,,,,,,,,,,,,,,,,
,,,right,1,0.8905,0,0.052426301,#a3d0fb,"[""0.25"",""0""]",right_blue.png,right,11,0,44,1,1,,,right,right_blue.png,up_orange.png,up,right,up,5fc50bb38378c80ac88354ef,2021-09-11_17h31.20.443,arrow_simon_vert,2021.1.2,Win32,59.61962678,,,,,,,,,,,,,,,,,,,,,,,,,,,,,,,,,,,,,,
,,,up,1,1.4355,0,0.87551949,#f3af84,"[""0"",""0.25""]",up_orange.png,up,11,1,45,1,1,,,right,right_blue.png,up_orange.png,up,right,up,5fc50bb38378c80ac88354ef,2021-09-11_17h31.20.443,arrow_simon_vert,2021.1.2,Win32,59.61962678,,,,,,,,,,,,,,,,,,,,,,,,,,,,,,,,,,,,,,
,,,left,1,1.135,0,0.439068594,#a3d0fb,"[""0.25"",""0""]",left_blue.png,left,11,2,46,3,1,,,left,left_blue.png,down_orange.png,down,right,up,5fc50bb38378c80ac88354ef,2021-09-11_17h31.20.443,arrow_simon_vert,2021.1.2,Win32,59.61962678,,,,,,,,,,,,,,,,,,,,,,,,,,,,,,,,,,,,,,
,,,down,1,0.8695,0,0.116645159,#f3af84,"[""0"",""-0.25""]",down_orange.png,down,11,3,47,2,1,,,left,left_blue.png,down_orange.png,down,left,down,5fc50bb38378c80ac88354ef,2021-09-11_17h31.20.443,arrow_simon_vert,2021.1.2,Win32,59.61962678,,,,,,,,,,,,,,,,,,,,,,,,,,,,,,,,,,,,,,
,,,left,1,1.1758,0,0.59224411,#a3d0fb,"[""-0.25"",""0""]",left_blue.png,left,12,0,48,2,1,,,left,left_blue.png,down_orange.png,down,left,down,5fc50bb38378c80ac88354ef,2021-09-11_17h31.20.443,arrow_simon_vert,2021.1.2,Win32,59.61962678,,,,,,,,,,,,,,,,,,,,,,,,,,,,,,,,,,,,,,
,,,down,1,1.0533,0,0.070629493,#f3af84,"[""0"",""0.25""]",down_orange.png,down,12,1,49,3,1,,,left,left_blue.png,down_orange.png,down,right,up,5fc50bb38378c80ac88354ef,2021-09-11_17h31.20.443,arrow_simon_vert,2021.1.2,Win32,59.61962678,,,,,,,,,,,,,,,,,,,,,,,,,,,,,,,,,,,,,,
,,,right,1,0.8014,0,0.094421514,#a3d0fb,"[""-0.25"",""0""]",right_blue.png,right,12,2,50,0,1,,,right,right_blue.png,up_orange.png,up,left,down,5fc50bb38378c80ac88354ef,2021-09-11_17h31.20.443,arrow_simon_vert,2021.1.2,Win32,59.61962678,,,,,,,,,,,,,,,,,,,,,,,,,,,,,,,,,,,,,,
,,,down,1,1.0046,0,0.364778044,#f3af84,"[""0"",""0.25""]",down_orange.png,down,12,3,51,3,1,,,left,left_blue.png,down_orange.png,down,right,up,5fc50bb38378c80ac88354ef,2021-09-11_17h31.20.443,arrow_simon_vert,2021.1.2,Win32,59.61962678,,,,,,,,,,,,,,,,,,,,,,,,,,,,,,,,,,,,,,
,,,right,1,0.9773,0,0.307175624,#a3d0fb,"[""-0.25"",""0""]",right_blue.png,right,13,0,52,0,1,,,right,right_blue.png,up_orange.png,up,left,down,5fc50bb38378c80ac88354ef,2021-09-11_17h31.20.443,arrow_simon_vert,2021.1.2,Win32,59.61962678,,,,,,,,,,,,,,,,,,,,,,,,,,,,,,,,,,,,,,
,,,down,1,1.0351,0,0.285804139,#f3af84,"[""0"",""0.25""]",down_orange.png,down,13,1,53,3,1,,,left,left_blue.png,down_orange.png,down,right,up,5fc50bb38378c80ac88354ef,2021-09-11_17h31.20.443,arrow_simon_vert,2021.1.2,Win32,59.61962678,,,,,,,,,,,,,,,,,,,,,,,,,,,,,,,,,,,,,,
,,,right,1,1.2739,0,0.394006553,#a3d0fb,"[""-0.25"",""0""]",right_blue.png,right,13,2,54,0,1,,,right,right_blue.png,up_orange.png,up,left,down,5fc50bb38378c80ac88354ef,2021-09-11_17h31.20.443,arrow_simon_vert,2021.1.2,Win32,59.61962678,,,,,,,,,,,,,,,,,,,,,,,,,,,,,,,,,,,,,,
,,,up,1,1.9429,0,0.636805409,#f3af84,"[""0"",""-0.25""]",up_orange.png,up,13,3,55,0,1,,,right,right_blue.png,up_orange.png,up,left,down,5fc50bb38378c80ac88354ef,2021-09-11_17h31.20.443,arrow_simon_vert,2021.1.2,Win32,59.61962678,,,,,,,,,,,,,,,,,,,,,,,,,,,,,,,,,,,,,,
,,,right,1,1.0687,0,0.310964453,#a3d0fb,"[""-0.25"",""0""]",right_blue.png,right,14,0,56,0,1,,,right,right_blue.png,up_orange.png,up,left,down,5fc50bb38378c80ac88354ef,2021-09-11_17h31.20.443,arrow_simon_vert,2021.1.2,Win32,59.61962678,,,,,,,,,,,,,,,,,,,,,,,,,,,,,,,,,,,,,,
,,,up,1,1.6695,0,0.968131079,#f3af84,"[""0"",""0.25""]",up_orange.png,up,14,1,57,1,1,,,right,right_blue.png,up_orange.png,up,right,up,5fc50bb38378c80ac88354ef,2021-09-11_17h31.20.443,arrow_simon_vert,2021.1.2,Win32,59.61962678,,,,,,,,,,,,,,,,,,,,,,,,,,,,,,,,,,,,,,
,,,right,1,1.2611,0,0.697966967,#a3d0fb,"[""0.25"",""0""]",right_blue.png,right,14,2,58,1,1,,,right,right_blue.png,up_orange.png,up,right,up,5fc50bb38378c80ac88354ef,2021-09-11_17h31.20.443,arrow_simon_vert,2021.1.2,Win32,59.61962678,,,,,,,,,,,,,,,,,,,,,,,,,,,,,,,,,,,,,,
,,,up,1,1.3276,0,0.732105383,#f3af84,"[""0"",""0.25""]",up_orange.png,up,14,3,59,1,1,,,right,right_blue.png,up_orange.png,up,right,up,5fc50bb38378c80ac88354ef,2021-09-11_17h31.20.443,arrow_simon_vert,2021.1.2,Win32,59.61962678,,,,,,,,,,,,,,,,,,,,,,,,,,,,,,,,,,,,,,
,,,,,,,,,,,,,,,,,,,,,,,,,5fc50bb38378c80ac88354ef,2021-09-11_17h31.20.443,arrow_simon_vert,2021.1.2,Win32,59.61962678,space,19.8714,0,0,0,0,1,,,,,,,,,,,,,,,,,,,,,,,,,,,,,,,
,,,right,1,1.6542,0,0.601422208,#a3d0fb,"[""-0.25"",""0""]",right_blue.png,right,0,0,0,0,1,,,right,right_blue.png,up_orange.png,up,left,down,5fc50bb38378c80ac88354ef,2021-09-11_17h31.20.443,arrow_simon_vert,2021.1.2,Win32,59.61962678,,,,,,,,,,,,,,,,,,,,,,,,,,,,,,,,,,,,,,
,,,down,1,1.7361,0,0.909832002,#f3af84,"[""0"",""-0.25""]",down_orange.png,down,0,1,1,2,1,,,left,left_blue.png,down_orange.png,down,left,down,5fc50bb38378c80ac88354ef,2021-09-11_17h31.20.443,arrow_simon_vert,2021.1.2,Win32,59.61962678,,,,,,,,,,,,,,,,,,,,,,,,,,,,,,,,,,,,,,
,,,left,1,1.5692,0,0.876101989,#a3d0fb,"[""0.25"",""0""]",left_blue.png,left,0,2,2,3,1,,,left,left_blue.png,down_orange.png,down,right,up,5fc50bb38378c80ac88354ef,2021-09-11_17h31.20.443,arrow_simon_vert,2021.1.2,Win32,59.61962678,,,,,,,,,,,,,,,,,,,,,,,,,,,,,,,,,,,,,,
,,,down,1,1.044,0,0.284472936,#f3af84,"[""0"",""0.25""]",down_orange.png,down,0,3,3,3,1,,,left,left_blue.png,down_orange.png,down,right,up,5fc50bb38378c80ac88354ef,2021-09-11_17h31.20.443,arrow_simon_vert,2021.1.2,Win32,59.61962678,,,,,,,,,,,,,,,,,,,,,,,,,,,,,,,,,,,,,,
,,,right,1,1.2584,0,0.597920549,#a3d0fb,"[""-0.25"",""0""]",right_blue.png,right,1,0,4,0,1,,,right,right_blue.png,up_orange.png,up,left,down,5fc50bb38378c80ac88354ef,2021-09-11_17h31.20.443,arrow_simon_vert,2021.1.2,Win32,59.61962678,,,,,,,,,,,,,,,,,,,,,,,,,,,,,,,,,,,,,,
,,,up,1,1.5517,0,0.442791241,#f3af84,"[""0"",""-0.25""]",up_orange.png,up,1,1,5,0,1,,,right,right_blue.png,up_orange.png,up,left,down,5fc50bb38378c80ac88354ef,2021-09-11_17h31.20.443,arrow_simon_vert,2021.1.2,Win32,59.61962678,,,,,,,,,,,,,,,,,,,,,,,,,,,,,,,,,,,,,,
,,,right,1,1.1019,0,0.511901218,#a3d0fb,"[""0.25"",""0""]",right_blue.png,right,1,2,6,1,1,,,right,right_blue.png,up_orange.png,up,right,up,5fc50bb38378c80ac88354ef,2021-09-11_17h31.20.443,arrow_simon_vert,2021.1.2,Win32,59.61962678,,,,,,,,,,,,,,,,,,,,,,,,,,,,,,,,,,,,,,
,,,down,1,1.2019,0,0.252625022,#f3af84,"[""0"",""0.25""]",down_orange.png,down,1,3,7,3,1,,,left,left_blue.png,down_orange.png,down,right,up,5fc50bb38378c80ac88354ef,2021-09-11_17h31.20.443,arrow_simon_vert,2021.1.2,Win32,59.61962678,,,,,,,,,,,,,,,,,,,,,,,,,,,,,,,,,,,,,,
,,,right,1,1.1716,0,0.158258587,#a3d0fb,"[""0.25"",""0""]",right_blue.png,right,2,0,8,1,1,,,right,right_blue.png,up_orange.png,up,right,up,5fc50bb38378c80ac88354ef,2021-09-11_17h31.20.443,arrow_simon_vert,2021.1.2,Win32,59.61962678,,,,,,,,,,,,,,,,,,,,,,,,,,,,,,,,,,,,,,
,,,up,1,1.2539,0,0.248982677,#f3af84,"[""0"",""-0.25""]",up_orange.png,up,2,1,9,0,1,,,right,right_blue.png,up_orange.png,up,left,down,5fc50bb38378c80ac88354ef,2021-09-11_17h31.20.443,arrow_simon_vert,2021.1.2,Win32,59.61962678,,,,,,,,,,,,,,,,,,,,,,,,,,,,,,,,,,,,,,
,,,left,1,1.2196,0,0.676424661,#a3d0fb,"[""-0.25"",""0""]",left_blue.png,left,2,2,10,2,1,,,left,left_blue.png,down_orange.png,down,left,down,5fc50bb38378c80ac88354ef,2021-09-11_17h31.20.443,arrow_simon_vert,2021.1.2,Win32,59.61962678,,,,,,,,,,,,,,,,,,,,,,,,,,,,,,,,,,,,,,
,,,up,1,1.1189,0,0.174661076,#f3af84,"[""0"",""-0.25""]",up_orange.png,up,2,3,11,0,1,,,right,right_blue.png,up_orange.png,up,left,down,5fc50bb38378c80ac88354ef,2021-09-11_17h31.20.443,arrow_simon_vert,2021.1.2,Win32,59.61962678,,,,,,,,,,,,,,,,,,,,,,,,,,,,,,,,,,,,,,
,,,left,1,1.5591,0,0.981747205,#a3d0fb,"[""0.25"",""0""]",left_blue.png,left,3,0,12,3,1,,,left,left_blue.png,down_orange.png,down,right,up,5fc50bb38378c80ac88354ef,2021-09-11_17h31.20.443,arrow_simon_vert,2021.1.2,Win32,59.61962678,,,,,,,,,,,,,,,,,,,,,,,,,,,,,,,,,,,,,,
,,,down,1,1.2209,0,0.142957332,#f3af84,"[""0"",""0.25""]",down_orange.png,down,3,1,13,3,1,,,left,left_blue.png,down_orange.png,down,right,up,5fc50bb38378c80ac88354ef,2021-09-11_17h31.20.443,arrow_simon_vert,2021.1.2,Win32,59.61962678,,,,,,,,,,,,,,,,,,,,,,,,,,,,,,,,,,,,,,
,,,left,1,1.202,0,0.379861534,#a3d0fb,"[""0.25"",""0""]",left_blue.png,left,3,2,14,3,1,,,left,left_blue.png,down_orange.png,down,right,up,5fc50bb38378c80ac88354ef,2021-09-11_17h31.20.443,arrow_simon_vert,2021.1.2,Win32,59.61962678,,,,,,,,,,,,,,,,,,,,,,,,,,,,,,,,,,,,,,
,,,down,1,1.2854,0,0.529349562,#f3af84,"[""0"",""0.25""]",down_orange.png,down,3,3,15,3,1,,,left,left_blue.png,down_orange.png,down,right,up,5fc50bb38378c80ac88354ef,2021-09-11_17h31.20.443,arrow_simon_vert,2021.1.2,Win32,59.61962678,,,,,,,,,,,,,,,,,,,,,,,,,,,,,,,,,,,,,,
,,,left,1,1.0173,0,0.003302861,#a3d0fb,"[""0.25"",""0""]",left_blue.png,left,4,0,16,3,1,,,left,left_blue.png,down_orange.png,down,right,up,5fc50bb38378c80ac88354ef,2021-09-11_17h31.20.443,arrow_simon_vert,2021.1.2,Win32,59.61962678,,,,,,,,,,,,,,,,,,,,,,,,,,,,,,,,,,,,,,
,,,up,1,0.8736,0,0.017956483,#f3af84,"[""0"",""0.25""]",up_orange.png,up,4,1,17,1,1,,,right,right_blue.png,up_orange.png,up,right,up,5fc50bb38378c80ac88354ef,2021-09-11_17h31.20.443,arrow_simon_vert,2021.1.2,Win32,59.61962678,,,,,,,,,,,,,,,,,,,,,,,,,,,,,,,,,,,,,,
,,,left,1,0.6849,0,0.066180088,#a3d0fb,"[""-0.25"",""0""]",left_blue.png,left,4,2,18,2,1,,,left,left_blue.png,down_orange.png,down,left,down,5fc50bb38378c80ac88354ef,2021-09-11_17h31.20.443,arrow_simon_vert,2021.1.2,Win32,59.61962678,,,,,,,,,,,,,,,,,,,,,,,,,,,,,,,,,,,,,,
,,,up,1,0.7895,0,0.089994268,#f3af84,"[""0"",""0.25""]",up_orange.png,up,4,3,19,1,1,,,right,right_blue.png,up_orange.png,up,right,up,5fc50bb38378c80ac88354ef,2021-09-11_17h31.20.443,arrow_simon_vert,2021.1.2,Win32,59.61962678,,,,,,,,,,,,,,,,,,,,,,,,,,,,,,,,,,,,,,
,,,left,1,1.0061,0,0.263802867,#a3d0fb,"[""0.25"",""0""]",left_blue.png,left,5,0,20,3,1,,,left,left_blue.png,down_orange.png,down,right,up,5fc50bb38378c80ac88354ef,2021-09-11_17h31.20.443,arrow_simon_vert,2021.1.2,Win32,59.61962678,,,,,,,,,,,,,,,,,,,,,,,,,,,,,,,,,,,,,,
,,,down,1,1.0687,0,0.345849695,#f3af84,"[""0"",""0.25""]",down_orange.png,down,5,1,21,3,1,,,left,left_blue.png,down_orange.png,down,right,up,5fc50bb38378c80ac88354ef,2021-09-11_17h31.20.443,arrow_simon_vert,2021.1.2,Win32,59.61962678,,,,,,,,,,,,,,,,,,,,,,,,,,,,,,,,,,,,,,
,,,right,1,1.4733,0,0.911806164,#a3d0fb,"[""-0.25"",""0""]",right_blue.png,right,5,2,22,0,1,,,right,right_blue.png,up_orange.png,up,left,down,5fc50bb38378c80ac88354ef,2021-09-11_17h31.20.443,arrow_simon_vert,2021.1.2,Win32,59.61962678,,,,,,,,,,,,,,,,,,,,,,,,,,,,,,,,,,,,,,
,,,up,1,1.0853,0,0.488490785,#f3af84,"[""0"",""0.25""]",up_orange.png,up,5,3,23,1,1,,,right,right_blue.png,up_orange.png,up,right,up,5fc50bb38378c80ac88354ef,2021-09-11_17h31.20.443,arrow_simon_vert,2021.1.2,Win32,59.61962678,,,,,,,,,,,,,,,,,,,,,,,,,,,,,,,,,,,,,,
,,,right,1,1.2519,0,0.618177653,#a3d0fb,"[""-0.25"",""0""]",right_blue.png,right,6,0,24,0,1,,,right,right_blue.png,up_orange.png,up,left,down,5fc50bb38378c80ac88354ef,2021-09-11_17h31.20.443,arrow_simon_vert,2021.1.2,Win32,59.61962678,,,,,,,,,,,,,,,,,,,,,,,,,,,,,,,,,,,,,,
,,,down,1,1.1218,0,0.405843749,#f3af84,"[""0"",""0.25""]",down_orange.png,down,6,1,25,3,1,,,left,left_blue.png,down_orange.png,down,right,up,5fc50bb38378c80ac88354ef,2021-09-11_17h31.20.443,arrow_simon_vert,2021.1.2,Win32,59.61962678,,,,,,,,,,,,,,,,,,,,,,,,,,,,,,,,,,,,,,
,,,left,1,1.2521,0,0.616034496,#a3d0fb,"[""-0.25"",""0""]",left_blue.png,left,6,2,26,2,1,,,left,left_blue.png,down_orange.png,down,left,down,5fc50bb38378c80ac88354ef,2021-09-11_17h31.20.443,arrow_simon_vert,2021.1.2,Win32,59.61962678,,,,,,,,,,,,,,,,,,,,,,,,,,,,,,,,,,,,,,
,,,up,1,1.2353,0,0.71861243,#f3af84,"[""0"",""0.25""]",up_orange.png,up,6,3,27,1,1,,,right,right_blue.png,up_orange.png,up,right,up,5fc50bb38378c80ac88354ef,2021-09-11_17h31.20.443,arrow_simon_vert,2021.1.2,Win32,59.61962678,,,,,,,,,,,,,,,,,,,,,,,,,,,,,,,,,,,,,,
,,,left,1,1.2688,0,0.726400537,#a3d0fb,"[""-0.25"",""0""]",left_blue.png,left,7,0,28,2,1,,,left,left_blue.png,down_orange.png,down,left,down,5fc50bb38378c80ac88354ef,2021-09-11_17h31.20.443,arrow_simon_vert,2021.1.2,Win32,59.61962678,,,,,,,,,,,,,,,,,,,,,,,,,,,,,,,,,,,,,,
,,,up,1,1.1353,0,0.616775971,#f3af84,"[""0"",""0.25""]",up_orange.png,up,7,1,29,1,1,,,right,right_blue.png,up_orange.png,up,right,up,5fc50bb38378c80ac88354ef,2021-09-11_17h31.20.443,arrow_simon_vert,2021.1.2,Win32,59.61962678,,,,,,,,,,,,,,,,,,,,,,,,,,,,,,,,,,,,,,
,,,left,1,0.9592,0,0.039145341,#a3d0fb,"[""0.25"",""0""]",left_blue.png,left,7,2,30,3,1,,,left,left_blue.png,down_orange.png,down,right,up,5fc50bb38378c80ac88354ef,2021-09-11_17h31.20.443,arrow_simon_vert,2021.1.2,Win32,59.61962678,,,,,,,,,,,,,,,,,,,,,,,,,,,,,,,,,,,,,,
,,,down,1,1.3189,0,0.578688178,#f3af84,"[""0"",""0.25""]",down_orange.png,down,7,3,31,3,1,,,left,left_blue.png,down_orange.png,down,right,up,5fc50bb38378c80ac88354ef,2021-09-11_17h31.20.443,arrow_simon_vert,2021.1.2,Win32,59.61962678,,,,,,,,,,,,,,,,,,,,,,,,,,,,,,,,,,,,,,
,,,right,1,1.4573,0,0.88452691,#a3d0fb,"[""-0.25"",""0""]",right_blue.png,right,8,0,32,0,1,,,right,right_blue.png,up_orange.png,up,left,down,5fc50bb38378c80ac88354ef,2021-09-11_17h31.20.443,arrow_simon_vert,2021.1.2,Win32,59.61962678,,,,,,,,,,,,,,,,,,,,,,,,,,,,,,,,,,,,,,
,,,up,1,1.1712,0,0.272523626,#f3af84,"[""0"",""-0.25""]",up_orange.png,up,8,1,33,0,1,,,right,right_blue.png,up_orange.png,up,left,down,5fc50bb38378c80ac88354ef,2021-09-11_17h31.20.443,arrow_simon_vert,2021.1.2,Win32,59.61962678,,,,,,,,,,,,,,,,,,,,,,,,,,,,,,,,,,,,,,
,,,right,1,1.0851,0,0.565750645,#a3d0fb,"[""0.25"",""0""]",right_blue.png,right,8,2,34,1,1,,,right,right_blue.png,up_orange.png,up,right,up,5fc50bb38378c80ac88354ef,2021-09-11_17h31.20.443,arrow_simon_vert,2021.1.2,Win32,59.61962678,,,,,,,,,,,,,,,,,,,,,,,,,,,,,,,,,,,,,,
,,,up,1,1.1735,0,0.647712477,#f3af84,"[""0"",""0.25""]",up_orange.png,up,8,3,35,1,1,,,right,right_blue.png,up_orange.png,up,right,up,5fc50bb38378c80ac88354ef,2021-09-11_17h31.20.443,arrow_simon_vert,2021.1.2,Win32,59.61962678,,,,,,,,,,,,,,,,,,,,,,,,,,,,,,,,,,,,,,
,,,right,1,1.5193,0,0.936231057,#a3d0fb,"[""-0.25"",""0""]",right_blue.png,right,9,0,36,0,1,,,right,right_blue.png,up_orange.png,up,left,down,5fc50bb38378c80ac88354ef,2021-09-11_17h31.20.443,arrow_simon_vert,2021.1.2,Win32,59.61962678,,,,,,,,,,,,,,,,,,,,,,,,,,,,,,,,,,,,,,
,,,down,1,1.0711,0,0.415555246,#f3af84,"[""0"",""-0.25""]",down_orange.png,down,9,1,37,2,1,,,left,left_blue.png,down_orange.png,down,left,down,5fc50bb38378c80ac88354ef,2021-09-11_17h31.20.443,arrow_simon_vert,2021.1.2,Win32,59.61962678,,,,,,,,,,,,,,,,,,,,,,,,,,,,,,,,,,,,,,
,,,right,1,0.9849,0,0.341456609,#a3d0fb,"[""-0.25"",""0""]",right_blue.png,right,9,2,38,0,1,,,right,right_blue.png,up_orange.png,up,left,down,5fc50bb38378c80ac88354ef,2021-09-11_17h31.20.443,arrow_simon_vert,2021.1.2,Win32,59.61962678,,,,,,,,,,,,,,,,,,,,,,,,,,,,,,,,,,,,,,
,,,up,1,1.1353,0,0.600668647,#f3af84,"[""0"",""0.25""]",up_orange.png,up,9,3,39,1,1,,,right,right_blue.png,up_orange.png,up,right,up,5fc50bb38378c80ac88354ef,2021-09-11_17h31.20.443,arrow_simon_vert,2021.1.2,Win32,59.61962678,,,,,,,,,,,,,,,,,,,,,,,,,,,,,,,,,,,,,,
,,,right,1,0.9863,0,0.424498922,#a3d0fb,"[""0.25"",""0""]",right_blue.png,right,10,0,40,1,1,,,right,right_blue.png,up_orange.png,up,right,up,5fc50bb38378c80ac88354ef,2021-09-11_17h31.20.443,arrow_simon_vert,2021.1.2,Win32,59.61962678,,,,,,,,,,,,,,,,,,,,,,,,,,,,,,,,,,,,,,
,,,down,1,0.7181,0,0.089018176,#f3af84,"[""0"",""-0.25""]",down_orange.png,down,10,1,41,2,1,,,left,left_blue.png,down_orange.png,down,left,down,5fc50bb38378c80ac88354ef,2021-09-11_17h31.20.443,arrow_simon_vert,2021.1.2,Win32,59.61962678,,,,,,,,,,,,,,,,,,,,,,,,,,,,,,,,,,,,,,
,,,left,1,1.0586,0,0.366139093,#a3d0fb,"[""0.25"",""0""]",left_blue.png,left,10,2,42,3,1,,,left,left_blue.png,down_orange.png,down,right,up,5fc50bb38378c80ac88354ef,2021-09-11_17h31.20.443,arrow_simon_vert,2021.1.2,Win32,59.61962678,,,,,,,,,,,,,,,,,,,,,,,,,,,,,,,,,,,,,,
,,,up,1,0.9251,0,0.456433406,#f3af84,"[""0"",""0.25""]",up_orange.png,up,10,3,43,1,1,,,right,right_blue.png,up_orange.png,up,right,up,5fc50bb38378c80ac88354ef,2021-09-11_17h31.20.443,arrow_simon_vert,2021.1.2,Win32,59.61962678,,,,,,,,,,,,,,,,,,,,,,,,,,,,,,,,,,,,,,
,,,left,1,1.3021,0,0.780918895,#a3d0fb,"[""-0.25"",""0""]",left_blue.png,left,11,0,44,2,1,,,left,left_blue.png,down_orange.png,down,left,down,5fc50bb38378c80ac88354ef,2021-09-11_17h31.20.443,arrow_simon_vert,2021.1.2,Win32,59.61962678,,,,,,,,,,,,,,,,,,,,,,,,,,,,,,,,,,,,,,
,,,up,1,1.2853,0,0.286820834,#f3af84,"[""0"",""-0.25""]",up_orange.png,up,11,1,45,0,1,,,right,right_blue.png,up_orange.png,up,left,down,5fc50bb38378c80ac88354ef,2021-09-11_17h31.20.443,arrow_simon_vert,2021.1.2,Win32,59.61962678,,,,,,,,,,,,,,,,,,,,,,,,,,,,,,,,,,,,,,
,,,left,1,1.4856,0,0.936832789,#a3d0fb,"[""-0.25"",""0""]",left_blue.png,left,11,2,46,2,1,,,left,left_blue.png,down_orange.png,down,left,down,5fc50bb38378c80ac88354ef,2021-09-11_17h31.20.443,arrow_simon_vert,2021.1.2,Win32,59.61962678,,,,,,,,,,,,,,,,,,,,,,,,,,,,,,,,,,,,,,
,,,down,1,1.0711,0,0.247778802,#f3af84,"[""0"",""0.25""]",down_orange.png,down,11,3,47,3,1,,,left,left_blue.png,down_orange.png,down,right,up,5fc50bb38378c80ac88354ef,2021-09-11_17h31.20.443,arrow_simon_vert,2021.1.2,Win32,59.61962678,,,,,,,,,,,,,,,,,,,,,,,,,,,,,,,,,,,,,,
,,,right,1,1.425,0,0.879154235,#a3d0fb,"[""0.25"",""0""]",right_blue.png,right,12,0,48,1,1,,,right,right_blue.png,up_orange.png,up,right,up,5fc50bb38378c80ac88354ef,2021-09-11_17h31.20.443,arrow_simon_vert,2021.1.2,Win32,59.61962678,,,,,,,,,,,,,,,,,,,,,,,,,,,,,,,,,,,,,,
,,,up,1,1.1021,0,0.366756221,#f3af84,"[""0"",""0.25""]",up_orange.png,up,12,1,49,1,1,,,right,right_blue.png,up_orange.png,up,right,up,5fc50bb38378c80ac88354ef,2021-09-11_17h31.20.443,arrow_simon_vert,2021.1.2,Win32,59.61962678,,,,,,,,,,,,,,,,,,,,,,,,,,,,,,,,,,,,,,
,,,left,1,1.4857,0,0.979487109,#a3d0fb,"[""-0.25"",""0""]",left_blue.png,left,12,2,50,2,1,,,left,left_blue.png,down_orange.png,down,left,down,5fc50bb38378c80ac88354ef,2021-09-11_17h31.20.443,arrow_simon_vert,2021.1.2,Win32,59.61962678,,,,,,,,,,,,,,,,,,,,,,,,,,,,,,,,,,,,,,
,,,down,1,0.8181,0,0.229935911,#f3af84,"[""0"",""-0.25""]",down_orange.png,down,12,3,51,2,1,,,left,left_blue.png,down_orange.png,down,left,down,5fc50bb38378c80ac88354ef,2021-09-11_17h31.20.443,arrow_simon_vert,2021.1.2,Win32,59.61962678,,,,,,,,,,,,,,,,,,,,,,,,,,,,,,,,,,,,,,
,,,right,1,0.7515,0,0.084118909,#a3d0fb,"[""-0.25"",""0""]",right_blue.png,right,13,0,52,0,1,,,right,right_blue.png,up_orange.png,up,left,down,5fc50bb38378c80ac88354ef,2021-09-11_17h31.20.443,arrow_simon_vert,2021.1.2,Win32,59.61962678,,,,,,,,,,,,,,,,,,,,,,,,,,,,,,,,,,,,,,
,,,down,1,0.8404,0,0.238057329,#f3af84,"[""0"",""-0.25""]",down_orange.png,down,13,1,53,2,1,,,left,left_blue.png,down_orange.png,down,left,down,5fc50bb38378c80ac88354ef,2021-09-11_17h31.20.443,arrow_simon_vert,2021.1.2,Win32,59.61962678,,,,,,,,,,,,,,,,,,,,,,,,,,,,,,,,,,,,,,
,,,left,1,0.8601,0,0.346585625,#a3d0fb,"[""-0.25"",""0""]",left_blue.png,left,13,2,54,2,1,,,left,left_blue.png,down_orange.png,down,left,down,5fc50bb38378c80ac88354ef,2021-09-11_17h31.20.443,arrow_simon_vert,2021.1.2,Win32,59.61962678,,,,,,,,,,,,,,,,,,,,,,,,,,,,,,,,,,,,,,
,,,down,1,1.2704,0,0.798710626,#f3af84,"[""0"",""-0.25""]",down_orange.png,down,13,3,55,2,1,,,left,left_blue.png,down_orange.png,down,left,down,5fc50bb38378c80ac88354ef,2021-09-11_17h31.20.443,arrow_simon_vert,2021.1.2,Win32,59.61962678,,,,,,,,,,,,,,,,,,,,,,,,,,,,,,,,,,,,,,
,,,left,1,0.9016,0,0.396155359,#a3d0fb,"[""-0.25"",""0""]",left_blue.png,left,14,0,56,2,1,,,left,left_blue.png,down_orange.png,down,left,down,5fc50bb38378c80ac88354ef,2021-09-11_17h31.20.443,arrow_simon_vert,2021.1.2,Win32,59.61962678,,,,,,,,,,,,,,,,,,,,,,,,,,,,,,,,,,,,,,
,,,up,1,1.7024,0,0.850722544,#f3af84,"[""0"",""-0.25""]",up_orange.png,up,14,1,57,0,1,,,right,right_blue.png,up_orange.png,up,left,down,5fc50bb38378c80ac88354ef,2021-09-11_17h31.20.443,arrow_simon_vert,2021.1.2,Win32,59.61962678,,,,,,,,,,,,,,,,,,,,,,,,,,,,,,,,,,,,,,
,,,right,1,0.8723,0,0.274530779,#a3d0fb,"[""0.25"",""0""]",right_blue.png,right,14,2,58,1,1,,,right,right_blue.png,up_orange.png,up,right,up,5fc50bb38378c80ac88354ef,2021-09-11_17h31.20.443,arrow_simon_vert,2021.1.2,Win32,59.61962678,,,,,,,,,,,,,,,,,,,,,,,,,,,,,,,,,,,,,,
,,,up,1,1.6525,0,0.97196088,#f3af84,"[""0"",""-0.25""]",up_orange.png,up,14,3,59,0,1,,,right,right_blue.png,up_orange.png,up,left,down,5fc50bb38378c80ac88354ef,2021-09-11_17h31.20.443,arrow_simon_vert,2021.1.2,Win32,59.61962678,,,,,,,,,,,,,,,,,,,,,,,,,,,,,,,,,,,,,,
,,,,,,,,,,,,,,,,,,,,,,,,,5fc50bb38378c80ac88354ef,2021-09-11_17h31.20.443,arrow_simon_vert,2021.1.2,Win32,59.61962678,space,6.4228,1,0,1,0,1,,,,,,,,,,,,,,,,,,,,,,,,,,,,,,,
,,,,,,,,,,,,,,,,,,,,,,,,,5fc50bb38378c80ac88354ef,2021-09-11_17h31.20.443,arrow_simon_vert,2021.1.2,Win32,59.61962678,,,,,,,,space,0,91.8778,left,3.0372,0,0,0,0,1,,,,,,,,,,,,,,,,,,,,,
,,,,,,,,,,,,,,,,,,,,,,,,,5fc50bb38378c80ac88354ef,2021-09-11_17h31.20.443,arrow_simon_vert,2021.1.2,Win32,59.61962678,,,,,,,,,,,right,2.8874,1,0,1,0,1,,,,,,,,,,,,,,,,,,,,,
,,,,,,,,,,,,,,,,,,,,,,,,,5fc50bb38378c80ac88354ef,2021-09-11_17h31.20.443,arrow_simon_vert,2021.1.2,Win32,59.61962678,,,,,,,,,,,left,3.1375,2,0,2,0,1,,,,,,,,,,,,,,,,,,,,,
,,,,,,,,,,,,,,,,,,,,,,,,,5fc50bb38378c80ac88354ef,2021-09-11_17h31.20.443,arrow_simon_vert,2021.1.2,Win32,59.61962678,,,,,,,,,,,right,2.9369,3,0,3,0,1,,,,,,,,,,,,,,,,,,,,,
,,,,,,,,,,,,,,,,,,,,,,,,,5fc50bb38378c80ac88354ef,2021-09-11_17h31.20.443,arrow_simon_vert,2021.1.2,Win32,59.61962678,,,,,,,,,,,left,2.9208,4,0,4,0,1,,,,,,,,,,,,,,,,,,,,,
,,,,,,,,,,,,,,,,,,,,,,,,,5fc50bb38378c80ac88354ef,2021-09-11_17h31.20.443,arrow_simon_vert,2021.1.2,Win32,59.61962678,,,,,,,,,,,right,2.7429,5,0,5,0,1,,,,,,,,,,,,,,,,,,,,,
,,,,,,,,,,,,,,,,,,,,,,,,,5fc50bb38378c80ac88354ef,2021-09-11_17h31.20.443,arrow_simon_vert,2021.1.2,Win32,59.61962678,,,,,,,,,,,left,2.9712,6,0,6,0,1,,,,,,,,,,,,,,,,,,,,,
,,,,,,,,,,,,,,,,,,,,,,,,,5fc50bb38378c80ac88354ef,2021-09-11_17h31.20.443,arrow_simon_vert,2021.1.2,Win32,59.61962678,,,,,,,,,,,left,2.7713,7,0,7,0,1,,,,,,,,,,,,,,,,,,,,,
,,,,,,,,,,,,,,,,,,,,,,,,,5fc50bb38378c80ac88354ef,2021-09-11_17h31.20.443,arrow_simon_vert,2021.1.2,Win32,59.61962678,,,,,,,,,,,right,2.7034,8,0,8,0,1,,,,,,,,,,,,,,,,,,,,,
,,,,,,,,,,,,,,,,,,,,,,,,,5fc50bb38378c80ac88354ef,2021-09-11_17h31.20.443,arrow_simon_vert,2021.1.2,Win32,59.61962678,,,,,,,,,,,right,2.2692,9,0,9,0,1,,,,,,,,,,,,,,,,,,,,,
,,,,,,,,,,,,,,,,,,,,,,,,,5fc50bb38378c80ac88354ef,2021-09-11_17h31.20.443,arrow_simon_vert,2021.1.2,Win32,59.61962678,,,,,,,,,,,left,2.7909,10,0,10,0,1,,,,,,,,,,,,,,,,,,,,,
,,,,,,,,,,,,,,,,,,,,,,,,,5fc50bb38378c80ac88354ef,2021-09-11_17h31.20.443,arrow_simon_vert,2021.1.2,Win32,59.61962678,,,,,,,,,,,right,2.7256,11,0,11,0,1,,,,,,,,,,,,,,,,,,,,,
,,,,,,,,,,,,,,,,,,,,,,,,,5fc50bb38378c80ac88354ef,2021-09-11_17h31.20.443,arrow_simon_vert,2021.1.2,Win32,59.61962678,,,,,,,,,,,left,2.7371,12,0,12,0,1,,,,,,,,,,,,,,,,,,,,,
,,,,,,,,,,,,,,,,,,,,,,,,,5fc50bb38378c80ac88354ef,2021-09-11_17h31.20.443,arrow_simon_vert,2021.1.2,Win32,59.61962678,,,,,,,,,,,left,2.8038,13,0,13,0,1,,,,,,,,,,,,,,,,,,,,,
,,,,,,,,,,,,,,,,,,,,,,,,,5fc50bb38378c80ac88354ef,2021-09-11_17h31.20.443,arrow_simon_vert,2021.1.2,Win32,59.61962678,,,,,,,,,,,right,2.6601,14,0,14,0,1,,,,,,,,,,,,,,,,,,,,,
,,,,,,,,,,,,,,,,,,,,,,,,,5fc50bb38378c80ac88354ef,2021-09-11_17h31.20.443,arrow_simon_vert,2021.1.2,Win32,59.61962678,,,,,,,,,,,right,2.6704,15,0,15,0,1,,,,,,,,,,,,,,,,,,,,,
,,,,,,,,,,,,,,,,,,,,,,,,,5fc50bb38378c80ac88354ef,2021-09-11_17h31.20.443,arrow_simon_vert,2021.1.2,Win32,59.61962678,,,,,,,,,,,left,2.804,16,0,16,0,1,,,,,,,,,,,,,,,,,,,,,
,,,,,,,,,,,,,,,,,,,,,,,,,5fc50bb38378c80ac88354ef,2021-09-11_17h31.20.443,arrow_simon_vert,2021.1.2,Win32,59.61962678,,,,,,,,,,,left,2.7221,17,0,17,0,1,,,,,,,,,,,,,,,,,,,,,
,,,,,,,,,,,,,,,,,,,,,,,,,5fc50bb38378c80ac88354ef,2021-09-11_17h31.20.443,arrow_simon_vert,2021.1.2,Win32,59.61962678,,,,,,,,,,,up,2.7389,18,0,18,0,1,,,,,,,,,,,,,,,,,,,,,
,,,,,,,,,,,,,,,,,,,,,,,,,5fc50bb38378c80ac88354ef,2021-09-11_17h31.20.443,arrow_simon_vert,2021.1.2,Win32,59.61962678,,,,,,,,,,,right,2.7204,19,0,19,0,1,,,,,,,,,,,,,,,,,,,,,
,,,,,,,,,,,,,,,,,,,,,,,,,5fc50bb38378c80ac88354ef,2021-09-11_17h31.20.443,arrow_simon_vert,2021.1.2,Win32,59.61962678,,,,,,,,,,,left,2.2581,20,0,20,0,1,,,,,,,,,,,,,,,,,,,,,
,,,,,,,,,,,,,,,,,,,,,,,,,5fc50bb38378c80ac88354ef,2021-09-11_17h31.20.443,arrow_simon_vert,2021.1.2,Win32,59.61962678,,,,,,,,,,,left,2.8072,21,0,21,0,1,,,,,,,,,,,,,,,,,,,,,
,,,,,,,,,,,,,,,,,,,,,,,,,5fc50bb38378c80ac88354ef,2021-09-11_17h31.20.443,arrow_simon_vert,2021.1.2,Win32,59.61962678,,,,,,,,,,,right,2.8263,22,0,22,0,1,,,,,,,,,,,,,,,,,,,,,
,,,,,,,,,,,,,,,,,,,,,,,,,5fc50bb38378c80ac88354ef,2021-09-11_17h31.20.443,arrow_simon_vert,2021.1.2,Win32,59.61962678,,,,,,,,,,,left,2.7517,23,0,23,0,1,,,,,,,,,,,,,,,,,,,,,
,,,,,,,,,,,,,,,,,,,,,,,,,5fc50bb38378c80ac88354ef,2021-09-11_17h31.20.443,arrow_simon_vert,2021.1.2,Win32,59.61962678,,,,,,,,,,,right,2.7205,24,0,24,0,1,,,,,,,,,,,,,,,,,,,,,
,,,,,,,,,,,,,,,,,,,,,,,,,5fc50bb38378c80ac88354ef,2021-09-11_17h31.20.443,arrow_simon_vert,2021.1.2,Win32,59.61962678,,,,,,,,,,,right,2.737,25,0,25,0,1,,,,,,,,,,,,,,,,,,,,,
,,,,,,,,,,,,,,,,,,,,,,,,,5fc50bb38378c80ac88354ef,2021-09-11_17h31.20.443,arrow_simon_vert,2021.1.2,Win32,59.61962678,,,,,,,,,,,right,2.7203,26,0,26,0,1,,,,,,,,,,,,,,,,,,,,,
,,,,,,,,,,,,,,,,,,,,,,,,,5fc50bb38378c80ac88354ef,2021-09-11_17h31.20.443,arrow_simon_vert,2021.1.2,Win32,59.61962678,,,,,,,,,,,left,2.5036,27,0,27,0,1,,,,,,,,,,,,,,,,,,,,,
,,,,,,,,,,,,,,,,,,,,,,,,,5fc50bb38378c80ac88354ef,2021-09-11_17h31.20.443,arrow_simon_vert,2021.1.2,Win32,59.61962678,,,,,,,,,,,right,2.3046,28,0,28,0,1,,,,,,,,,,,,,,,,,,,,,
,,,,,,,,,,,,,,,,,,,,,,,,,5fc50bb38378c80ac88354ef,2021-09-11_17h31.20.443,arrow_simon_vert,2021.1.2,Win32,59.61962678,,,,,,,,,,,left,2.6709,29,0,29,0,1,,,,,,,,,,,,,,,,,,,,,
,,,,,,,,,,,,,,,,,,,,,,,,,5fc50bb38378c80ac88354ef,2021-09-11_17h31.20.443,arrow_simon_vert,2021.1.2,Win32,59.61962678,,,,,,,,,,,right,2.5369,30,0,30,0,1,,,,,,,,,,,,,,,,,,,,,
,,,,,,,,,,,,,,,,,,,,,,,,,5fc50bb38378c80ac88354ef,2021-09-11_17h31.20.443,arrow_simon_vert,2021.1.2,Win32,59.61962678,,,,,,,,,,,left,2.8067,31,0,31,0,1,,,,,,,,,,,,,,,,,,,,,
,,,,,,,,,,,,,,,,,,,,,,,,,5fc50bb38378c80ac88354ef,2021-09-11_17h31.20.443,arrow_simon_vert,2021.1.2,Win32,59.61962678,,,,,,,,,,,right,2.2355,32,0,32,0,1,,,,,,,,,,,,,,,,,,,,,
,,,,,,,,,,,,,,,,,,,,,,,,,5fc50bb38378c80ac88354ef,2021-09-11_17h31.20.443,arrow_simon_vert,2021.1.2,Win32,59.61962678,,,,,,,,,,,right,2.3872,33,0,33,0,1,,,,,,,,,,,,,,,,,,,,,
,,,,,,,,,,,,,,,,,,,,,,,,,5fc50bb38378c80ac88354ef,2021-09-11_17h31.20.443,arrow_simon_vert,2021.1.2,Win32,59.61962678,,,,,,,,,,,left,2.3193,34,0,34,0,1,,,,,,,,,,,,,,,,,,,,,
,,,,,,,,,,,,,,,,,,,,,,,,,5fc50bb38378c80ac88354ef,2021-09-11_17h31.20.443,arrow_simon_vert,2021.1.2,Win32,59.61962678,,,,,,,,,,,left,2.8538,35,0,35,0,1,,,,,,,,,,,,,,,,,,,,,
,,,,,,,,,,,,,,,,,,,,,,,,,5fc50bb38378c80ac88354ef,2021-09-11_17h31.20.443,arrow_simon_vert,2021.1.2,Win32,59.61962678,,,,,,,,,,,right,2.7034,36,0,36,0,1,,,,,,,,,,,,,,,,,,,,,
,,,,,,,,,,,,,,,,,,,,,,,,,5fc50bb38378c80ac88354ef,2021-09-11_17h31.20.443,arrow_simon_vert,2021.1.2,Win32,59.61962678,,,,,,,,,,,left,2.3412,37,0,37,0,1,,,,,,,,,,,,,,,,,,,,,
,,,,,,,,,,,,,,,,,,,,,,,,,5fc50bb38378c80ac88354ef,2021-09-11_17h31.20.443,arrow_simon_vert,2021.1.2,Win32,59.61962678,,,,,,,,,,,right,2.302,38,0,38,0,1,,,,,,,,,,,,,,,,,,,,,
,,,,,,,,,,,,,,,,,,,,,,,,,5fc50bb38378c80ac88354ef,2021-09-11_17h31.20.443,arrow_simon_vert,2021.1.2,Win32,59.61962678,,,,,,,,,,,right,2.7382,39,0,39,0,1,,,,,,,,,,,,,,,,,,,,,
,,,,,,,,,,,,,,,,,,,,,,,,,5fc50bb38378c80ac88354ef,2021-09-11_17h31.20.443,arrow_simon_vert,2021.1.2,Win32,59.61962678,,,,,,,,,,,left,2.6395,40,0,40,0,1,,,,,,,,,,,,,,,,,,,,,
,,,,,,,,,,,,,,,,,,,,,,,,,5fc50bb38378c80ac88354ef,2021-09-11_17h31.20.443,arrow_simon_vert,2021.1.2,Win32,59.61962678,,,,,,,,,,,left,2.587,41,0,41,0,1,,,,,,,,,,,,,,,,,,,,,
,,,,,,,,,,,,,,,,,,,,,,,,,5fc50bb38378c80ac88354ef,2021-09-11_17h31.20.443,arrow_simon_vert,2021.1.2,Win32,59.61962678,,,,,,,,,,,right,2.2364,42,0,42,0,1,,,,,,,,,,,,,,,,,,,,,
,,,,,,,,,,,,,,,,,,,,,,,,,5fc50bb38378c80ac88354ef,2021-09-11_17h31.20.443,arrow_simon_vert,2021.1.2,Win32,59.61962678,,,,,,,,,,,left,2.7905,43,0,43,0,1,,,,,,,,,,,,,,,,,,,,,
,,,,,,,,,,,,,,,,,,,,,,,,,5fc50bb38378c80ac88354ef,2021-09-11_17h31.20.443,arrow_simon_vert,2021.1.2,Win32,59.61962678,,,,,,,,,,,right,2.6729,44,0,44,0,1,,,,,,,,,,,,,,,,,,,,,
,,,,,,,,,,,,,,,,,,,,,,,,,5fc50bb38378c80ac88354ef,2021-09-11_17h31.20.443,arrow_simon_vert,2021.1.2,Win32,59.61962678,,,,,,,,,,,right,2.354,45,0,45,0,1,,,,,,,,,,,,,,,,,,,,,
,,,,,,,,,,,,,,,,,,,,,,,,,5fc50bb38378c80ac88354ef,2021-09-11_17h31.20.443,arrow_simon_vert,2021.1.2,Win32,59.61962678,,,,,,,,,,,left,2.4229,46,0,46,0,1,,,,,,,,,,,,,,,,,,,,,
,,,,,,,,,,,,,,,,,,,,,,,,,5fc50bb38378c80ac88354ef,2021-09-11_17h31.20.443,arrow_simon_vert,2021.1.2,Win32,59.61962678,,,,,,,,,,,right,2.5571,47,0,47,0,1,,,,,,,,,,,,,,,,,,,,,
,,,,,,,,,,,,,,,,,,,,,,,,,5fc50bb38378c80ac88354ef,2021-09-11_17h31.20.443,arrow_simon_vert,2021.1.2,Win32,59.61962678,,,,,,,,,,,left,2.7372,48,0,48,0,1,,,,,,,,,,,,,,,,,,,,,
,,,,,,,,,,,,,,,,,,,,,,,,,5fc50bb38378c80ac88354ef,2021-09-11_17h31.20.443,arrow_simon_vert,2021.1.2,Win32,59.61962678,,,,,,,,,,,right,2.7078,49,0,49,0,1,,,,,,,,,,,,,,,,,,,,,
,,,,,,,,,,,,,,,,,,,,,,,,,5fc50bb38378c80ac88354ef,2021-09-11_17h31.20.443,arrow_simon_vert,2021.1.2,Win32,59.61962678,,,,,,,,,,,left,2.5425,50,0,50,0,1,,,,,,,,,,,,,,,,,,,,,
,,,,,,,,,,,,,,,,,,,,,,,,,5fc50bb38378c80ac88354ef,2021-09-11_17h31.20.443,arrow_simon_vert,2021.1.2,Win32,59.61962678,,,,,,,,,,,right,2.6701,51,0,51,0,1,,,,,,,,,,,,,,,,,,,,,
,,,,,,,,,,,,,,,,,,,,,,,,,5fc50bb38378c80ac88354ef,2021-09-11_17h31.20.443,arrow_simon_vert,2021.1.2,Win32,59.61962678,,,,,,,,,,,left,2.4561,52,0,52,0,1,,,,,,,,,,,,,,,,,,,,,
,,,,,,,,,,,,,,,,,,,,,,,,,5fc50bb38378c80ac88354ef,2021-09-11_17h31.20.443,arrow_simon_vert,2021.1.2,Win32,59.61962678,,,,,,,,,,,left,2.5724,53,0,53,0,1,,,,,,,,,,,,,,,,,,,,,
,,,,,,,,,,,,,,,,,,,,,,,,,5fc50bb38378c80ac88354ef,2021-09-11_17h31.20.443,arrow_simon_vert,2021.1.2,Win32,59.61962678,,,,,,,,,,,left,2.687,54,0,54,0,1,,,,,,,,,,,,,,,,,,,,,
,,,,,,,,,,,,,,,,,,,,,,,,,5fc50bb38378c80ac88354ef,2021-09-11_17h31.20.443,arrow_simon_vert,2021.1.2,Win32,59.61962678,,,,,,,,,,,right,1.9567,55,0,55,0,1,,,,,,,,,,,,,,,,,,,,,
,,,,,,,,,,,,,,,,,,,,,,,,,5fc50bb38378c80ac88354ef,2021-09-11_17h31.20.443,arrow_simon_vert,2021.1.2,Win32,59.61962678,,,,,,,,,,,right,2.0528,56,0,56,0,1,,,,,,,,,,,,,,,,,,,,,
,,,,,,,,,,,,,,,,,,,,,,,,,5fc50bb38378c80ac88354ef,2021-09-11_17h31.20.443,arrow_simon_vert,2021.1.2,Win32,59.61962678,,,,,,,,,,,right,1.9872,57,0,57,0,1,,,,,,,,,,,,,,,,,,,,,
,,,,,,,,,,,,,,,,,,,,,,,,,5fc50bb38378c80ac88354ef,2021-09-11_17h31.20.443,arrow_simon_vert,2021.1.2,Win32,59.61962678,,,,,,,,,,,right,2.1197,58,0,58,0,1,,,,,,,,,,,,,,,,,,,,,
,,,,,,,,,,,,,,,,,,,,,,,,,5fc50bb38378c80ac88354ef,2021-09-11_17h31.20.443,arrow_simon_vert,2021.1.2,Win32,59.61962678,,,,,,,,,,,left,2.0063,59,0,59,0,1,,,,,,,,,,,,,,,,,,,,,
,,,,,,0,1.614590109,#a3d0fb,"[""-0.25"",""0""]",left_blue.png,left,,,,,,,,left,left_blue.png,down_orange.png,down,left,down,5fc50bb38378c80ac88354ef,2021-09-11_17h31.20.443,arrow_simon_vert,2021.1.2,Win32,59.61962678,,,,,,,,,,,,,,,,,,space,0,29.2645,left,1,4.455,1,TRUE,FALSE,0,0,0,2,1,,,,,,,
,,,,,,0,2.228547746,#f3af84,"[""0"",""0.25""]",up_orange.png,up,,,,,,,,right,right_blue.png,up_orange.png,up,right,up,5fc50bb38378c80ac88354ef,2021-09-11_17h31.20.443,arrow_simon_vert,2021.1.2,Win32,59.61962678,,,,,,,,,,,,,,,,,,,,,right,0,1.7526,2,TRUE,FALSE,0,1,1,1,1,,,,,,,
,,,,,,0,1.925641705,#a3d0fb,"[""0.25"",""0""]",left_blue.png,left,,,,,,,,left,left_blue.png,down_orange.png,down,right,up,5fc50bb38378c80ac88354ef,2021-09-11_17h31.20.443,arrow_simon_vert,2021.1.2,Win32,59.61962678,,,,,,,,,,,,,,,,,,,,,down,0,1.3171,3,FALSE,TRUE,0,2,2,3,1,,,,,,,
,,,,,,0,1.702729134,#f3af84,"[""0"",""0.25""]",down_orange.png,down,,,,,,,,left,left_blue.png,down_orange.png,down,right,up,5fc50bb38378c80ac88354ef,2021-09-11_17h31.20.443,arrow_simon_vert,2021.1.2,Win32,59.61962678,,,,,,,,,,,,,,,,,,,,,right,0,1.2238,4,FALSE,TRUE,0,3,3,3,1,,,,,,,
,,,,,,0,1.612169347,#a3d0fb,"[""0.25"",""0""]",right_blue.png,right,,,,,,,,right,right_blue.png,up_orange.png,up,right,up,5fc50bb38378c80ac88354ef,2021-09-11_17h31.20.443,arrow_simon_vert,2021.1.2,Win32,59.61962678,,,,,,,,,,,,,,,,,,,,,right,1,1.1018,5,FALSE,TRUE,1,0,4,1,1,,,,,,,
,,,,,,1,2.16245489,#f3af84,"[""0"",""-0.25""]",up_orange.png,up,,,,,,,,right,right_blue.png,up_orange.png,up,left,down,5fc50bb38378c80ac88354ef,2021-09-11_17h31.20.443,arrow_simon_vert,2021.1.2,Win32,59.61962678,,,,,,,,,,,,,,,,,,,,,down,0,1.586,6,FALSE,FALSE,1,1,5,0,1,,,,,,,
,,,,,,1,2.122929957,#a3d0fb,"[""-0.25"",""0""]",right_blue.png,right,,,,,,,,right,right_blue.png,up_orange.png,up,left,down,5fc50bb38378c80ac88354ef,2021-09-11_17h31.20.443,arrow_simon_vert,2021.1.2,Win32,59.61962678,,,,,,,,,,,,,,,,,,,,,up,0,1.7102,7,TRUE,FALSE,1,2,6,0,1,,,,,,,
,,,,,,1,2.321097287,#f3af84,"[""0"",""0.25""]",down_orange.png,down,,,,,,,,left,left_blue.png,down_orange.png,down,right,up,5fc50bb38378c80ac88354ef,2021-09-11_17h31.20.443,arrow_simon_vert,2021.1.2,Win32,59.61962678,,,,,,,,,,,,,,,,,,,,,right,0,1.8193,8,TRUE,FALSE,1,3,7,3,1,,,,,,,
,,,,,,1,1.588505893,#a3d0fb,"[""-0.25"",""0""]",right_blue.png,right,,,,,,,,right,right_blue.png,up_orange.png,up,left,down,5fc50bb38378c80ac88354ef,2021-09-11_17h31.20.443,arrow_simon_vert,2021.1.2,Win32,59.61962678,,,,,,,,,,,,,,,,,,,,,down,0,1.1063,9,FALSE,TRUE,2,0,8,0,1,,,,,,,
,,,,,,1,1.666479176,#f3af84,"[""0"",""0.25""]",up_orange.png,up,,,,,,,,right,right_blue.png,up_orange.png,up,right,up,5fc50bb38378c80ac88354ef,2021-09-11_17h31.20.443,arrow_simon_vert,2021.1.2,Win32,59.61962678,,,,,,,,,,,,,,,,,,,,,right,0,1.342,10,FALSE,TRUE,2,1,9,1,1,,,,,,,
,,,,,,1,1.531916854,#a3d0fb,"[""-0.25"",""0""]",left_blue.png,left,,,,,,,,left,left_blue.png,down_orange.png,down,left,down,5fc50bb38378c80ac88354ef,2021-09-11_17h31.20.443,arrow_simon_vert,2021.1.2,Win32,59.61962678,,,,,,,,,,,,,,,,,,,,,left,1,1.3563,11,FALSE,TRUE,2,2,10,2,1,,,,,,,
,,,,,,1,2.134667375,#f3af84,"[""0"",""-0.25""]",down_orange.png,down,,,,,,,,left,left_blue.png,down_orange.png,down,left,down,5fc50bb38378c80ac88354ef,2021-09-11_17h31.20.443,arrow_simon_vert,2021.1.2,Win32,59.61962678,,,,,,,,,,,,,,,,,,,,,down,1,1.8869,12,TRUE,FALSE,2,3,11,2,1,,,,,,,
,,,,,,1,2.333018312,#a3d0fb,"[""0.25"",""0""]",left_blue.png,left,,,,,,,,left,left_blue.png,down_orange.png,down,right,up,5fc50bb38378c80ac88354ef,2021-09-11_17h31.20.443,arrow_simon_vert,2021.1.2,Win32,59.61962678,,,,,,,,,,,,,,,,,,,,,left,1,2.0028,13,TRUE,FALSE,3,0,12,3,1,,,,,,,
,,,,,,1,1.528222043,#f3af84,"[""0"",""-0.25""]",up_orange.png,up,,,,,,,,right,right_blue.png,up_orange.png,up,left,down,5fc50bb38378c80ac88354ef,2021-09-11_17h31.20.443,arrow_simon_vert,2021.1.2,Win32,59.61962678,,,,,,,,,,,,,,,,,,,,,up,1,1.8591,14,TRUE,FALSE,3,1,13,0,1,,,,,,,
,,,,,,1,1.780904463,#a3d0fb,"[""0.25"",""0""]",right_blue.png,right,,,,,,,,right,right_blue.png,up_orange.png,up,right,up,5fc50bb38378c80ac88354ef,2021-09-11_17h31.20.443,arrow_simon_vert,2021.1.2,Win32,59.61962678,,,,,,,,,,,,,,,,,,,,,right,1,1.235,15,FALSE,TRUE,3,2,14,1,1,,,,,,,
,,,,,,1,2.228728006,#f3af84,"[""0"",""0.25""]",up_orange.png,up,,,,,,,,right,right_blue.png,up_orange.png,up,right,up,5fc50bb38378c80ac88354ef,2021-09-11_17h31.20.443,arrow_simon_vert,2021.1.2,Win32,59.61962678,,,,,,,,,,,,,,,,,,,,,up,1,1.8356,16,TRUE,FALSE,3,3,15,1,1,,,,,,,
,,,,,,1,1.843136109,#a3d0fb,"[""0.25"",""0""]",right_blue.png,right,,,,,,,,right,right_blue.png,up_orange.png,up,right,up,5fc50bb38378c80ac88354ef,2021-09-11_17h31.20.443,arrow_simon_vert,2021.1.2,Win32,59.61962678,,,,,,,,,,,,,,,,,,,,,right,1,1.3186,17,FALSE,TRUE,4,0,16,1,1,,,,,,,
,,,,,,1,1.840178838,#f3af84,"[""0"",""-0.25""]",down_orange.png,down,,,,,,,,left,left_blue.png,down_orange.png,down,left,down,5fc50bb38378c80ac88354ef,2021-09-11_17h31.20.443,arrow_simon_vert,2021.1.2,Win32,59.61962678,,,,,,,,,,,,,,,,,,,,,down,1,2.0258,18,TRUE,FALSE,4,1,17,2,1,,,,,,,
,,,,,,1,2.311279285,#a3d0fb,"[""0.25"",""0""]",right_blue.png,right,,,,,,,,right,right_blue.png,up_orange.png,up,right,up,5fc50bb38378c80ac88354ef,2021-09-11_17h31.20.443,arrow_simon_vert,2021.1.2,Win32,59.61962678,,,,,,,,,,,,,,,,,,,,,right,1,1.8875,19,TRUE,FALSE,4,2,18,1,1,,,,,,,
,,,,,,1,2.100628098,#f3af84,"[""0"",""-0.25""]",up_orange.png,up,,,,,,,,right,right_blue.png,up_orange.png,up,left,down,5fc50bb38378c80ac88354ef,2021-09-11_17h31.20.443,arrow_simon_vert,2021.1.2,Win32,59.61962678,,,,,,,,,,,,,,,,,,,,,up,1,1.8667,20,TRUE,FALSE,4,3,19,0,1,,,,,,,
,,,,,,1,2.12325991,#a3d0fb,"[""-0.25"",""0""]",right_blue.png,right,,,,,,,,right,right_blue.png,up_orange.png,up,left,down,5fc50bb38378c80ac88354ef,2021-09-11_17h31.20.443,arrow_simon_vert,2021.1.2,Win32,59.61962678,,,,,,,,,,,,,,,,,,,,,up,0,1.6857,21,TRUE,FALSE,5,0,20,0,1,,,,,,,
,,,,,,0,2.039418786,#f3af84,"[""0"",""-0.25""]",down_orange.png,down,,,,,,,,left,left_blue.png,down_orange.png,down,left,down,5fc50bb38378c80ac88354ef,2021-09-11_17h31.20.443,arrow_simon_vert,2021.1.2,Win32,59.61962678,,,,,,,,,,,,,,,,,,,,,down,1,1.5745,22,FALSE,FALSE,5,1,21,2,1,,,,,,,
,,,,,,0,1.965825396,#a3d0fb,"[""0.25"",""0""]",left_blue.png,left,,,,,,,,left,left_blue.png,down_orange.png,down,right,up,5fc50bb38378c80ac88354ef,2021-09-11_17h31.20.443,arrow_simon_vert,2021.1.2,Win32,59.61962678,,,,,,,,,,,,,,,,,,,,,left,1,1.6745,23,TRUE,FALSE,5,2,22,3,1,,,,,,,
,,,,,,0,1.664515105,#f3af84,"[""0"",""-0.25""]",up_orange.png,up,,,,,,,,right,right_blue.png,up_orange.png,up,left,down,5fc50bb38378c80ac88354ef,2021-09-11_17h31.20.443,arrow_simon_vert,2021.1.2,Win32,59.61962678,,,,,,,,,,,,,,,,,,,,,up,1,1.3686,24,FALSE,TRUE,5,3,23,0,1,,,,,,,
,,,,,,0,1.581757198,#a3d0fb,"[""0.25"",""0""]",left_blue.png,left,,,,,,,,left,left_blue.png,down_orange.png,down,right,up,5fc50bb38378c80ac88354ef,2021-09-11_17h31.20.443,arrow_simon_vert,2021.1.2,Win32,59.61962678,,,,,,,,,,,,,,,,,,,,,left,1,2.1035,25,TRUE,FALSE,6,0,24,3,1,,,,,,,
,,,,,,0,1.890769734,#f3af84,"[""0"",""0.25""]",down_orange.png,down,,,,,,,,left,left_blue.png,down_orange.png,down,right,up,5fc50bb38378c80ac88354ef,2021-09-11_17h31.20.443,arrow_simon_vert,2021.1.2,Win32,59.61962678,,,,,,,,,,,,,,,,,,,,,down,1,1.7193,26,TRUE,FALSE,6,1,25,3,1,,,,,,,
,,,,,,0,1.6991535,#a3d0fb,"[""-0.25"",""0""]",right_blue.png,right,,,,,,,,right,right_blue.png,up_orange.png,up,left,down,5fc50bb38378c80ac88354ef,2021-09-11_17h31.20.443,arrow_simon_vert,2021.1.2,Win32,59.61962678,,,,,,,,,,,,,,,,,,,,,right,1,1.285,27,FALSE,TRUE,6,2,26,0,1,,,,,,,
,,,,,,0,1.592037098,#f3af84,"[""0"",""0.25""]",down_orange.png,down,,,,,,,,left,left_blue.png,down_orange.png,down,right,up,5fc50bb38378c80ac88354ef,2021-09-11_17h31.20.443,arrow_simon_vert,2021.1.2,Win32,59.61962678,,,,,,,,,,,,,,,,,,,,,down,1,1.8039,28,TRUE,FALSE,6,3,27,3,1,,,,,,,
,,,,,,0,2.25414716,#a3d0fb,"[""-0.25"",""0""]",left_blue.png,left,,,,,,,,left,left_blue.png,down_orange.png,down,left,down,5fc50bb38378c80ac88354ef,2021-09-11_17h31.20.443,arrow_simon_vert,2021.1.2,Win32,59.61962678,,,,,,,,,,,,,,,,,,,,,left,1,1.786,29,TRUE,FALSE,7,0,28,2,1,,,,,,,
,,,,,,0,1.748416559,#f3af84,"[""0"",""-0.25""]",down_orange.png,down,,,,,,,,left,left_blue.png,down_orange.png,down,left,down,5fc50bb38378c80ac88354ef,2021-09-11_17h31.20.443,arrow_simon_vert,2021.1.2,Win32,59.61962678,,,,,,,,,,,,,,,,,,,,,down,1,1.6516,30,TRUE,FALSE,7,1,29,2,1,,,,,,,
,,,,,,0,1.543491281,#a3d0fb,"[""-0.25"",""0""]",right_blue.png,right,,,,,,,,right,right_blue.png,up_orange.png,up,left,down,5fc50bb38378c80ac88354ef,2021-09-11_17h31.20.443,arrow_simon_vert,2021.1.2,Win32,59.61962678,,,,,,,,,,,,,,,,,,,,,right,1,1.8357,31,TRUE,FALSE,7,2,30,0,1,,,,,,,
,,,,,,0,2.125198746,#f3af84,"[""0"",""-0.25""]",up_orange.png,up,,,,,,,,right,right_blue.png,up_orange.png,up,left,down,5fc50bb38378c80ac88354ef,2021-09-11_17h31.20.443,arrow_simon_vert,2021.1.2,Win32,59.61962678,,,,,,,,,,,,,,,,,,,,,down,0,1.6693,32,TRUE,FALSE,7,3,31,0,1,,,,,,,
,,,,,,1,1.734086913,#a3d0fb,"[""0.25"",""0""]",left_blue.png,left,,,,,,,,left,left_blue.png,down_orange.png,down,right,up,5fc50bb38378c80ac88354ef,2021-09-11_17h31.20.443,arrow_simon_vert,2021.1.2,Win32,59.61962678,,,,,,,,,,,,,,,,,,,,,right,0,1.569,33,FALSE,FALSE,8,0,32,3,1,,,,,,,
,,,,,,1,2.182132674,#f3af84,"[""0"",""0.25""]",up_orange.png,up,,,,,,,,right,right_blue.png,up_orange.png,up,right,up,5fc50bb38378c80ac88354ef,2021-09-11_17h31.20.443,arrow_simon_vert,2021.1.2,Win32,59.61962678,,,,,,,,,,,,,,,,,,,,,right,0,1.8358,34,TRUE,FALSE,8,1,33,1,1,,,,,,,
,,,,,,1,1.881168133,#a3d0fb,"[""0.25"",""0""]",right_blue.png,right,,,,,,,,right,right_blue.png,up_orange.png,up,right,up,5fc50bb38378c80ac88354ef,2021-09-11_17h31.20.443,arrow_simon_vert,2021.1.2,Win32,59.61962678,,,,,,,,,,,,,,,,,,,,,right,1,1.3226,35,FALSE,TRUE,8,2,34,1,1,,,,,,,
,,,,,,1,2.484577976,#f3af84,"[""0"",""0.25""]",down_orange.png,down,,,,,,,,left,left_blue.png,down_orange.png,down,right,up,5fc50bb38378c80ac88354ef,2021-09-11_17h31.20.443,arrow_simon_vert,2021.1.2,Win32,59.61962678,,,,,,,,,,,,,,,,,,,,,down,1,2.2219,36,TRUE,FALSE,8,3,35,3,1,,,,,,,
,,,,,,1,1.696928042,#a3d0fb,"[""0.25"",""0""]",left_blue.png,left,,,,,,,,left,left_blue.png,down_orange.png,down,right,up,5fc50bb38378c80ac88354ef,2021-09-11_17h31.20.443,arrow_simon_vert,2021.1.2,Win32,59.61962678,,,,,,,,,,,,,,,,,,,,,left,1,1.8357,37,TRUE,FALSE,9,0,36,3,1,,,,,,,
,,,,,,1,1.720370755,#f3af84,"[""0"",""-0.25""]",down_orange.png,down,,,,,,,,left,left_blue.png,down_orange.png,down,left,down,5fc50bb38378c80ac88354ef,2021-09-11_17h31.20.443,arrow_simon_vert,2021.1.2,Win32,59.61962678,,,,,,,,,,,,,,,,,,,,,down,1,1.3245,38,FALSE,TRUE,9,1,37,2,1,,,,,,,
,,,,,,1,2.018174085,#a3d0fb,"[""-0.25"",""0""]",left_blue.png,left,,,,,,,,left,left_blue.png,down_orange.png,down,left,down,5fc50bb38378c80ac88354ef,2021-09-11_17h31.20.443,arrow_simon_vert,2021.1.2,Win32,59.61962678,,,,,,,,,,,,,,,,,,,,,left,1,1.6565,39,TRUE,FALSE,9,2,38,2,1,,,,,,,
,,,,,,1,1.795895036,#f3af84,"[""0"",""-0.25""]",down_orange.png,down,,,,,,,,left,left_blue.png,down_orange.png,down,left,down,5fc50bb38378c80ac88354ef,2021-09-11_17h31.20.443,arrow_simon_vert,2021.1.2,Win32,59.61962678,,,,,,,,,,,,,,,,,,,,,down,1,1.3187,40,FALSE,TRUE,9,3,39,2,1,,,,,,,
,,,,,,1,2.365333564,#a3d0fb,"[""0.25"",""0""]",left_blue.png,left,,,,,,,,left,left_blue.png,down_orange.png,down,right,up,5fc50bb38378c80ac88354ef,2021-09-11_17h31.20.443,arrow_simon_vert,2021.1.2,Win32,59.61962678,,,,,,,,,,,,,,,,,,,,,left,1,2.011,41,TRUE,FALSE,10,0,40,3,1,,,,,,,
,,,,,,1,2.230321674,#f3af84,"[""0"",""0.25""]",down_orange.png,down,,,,,,,,left,left_blue.png,down_orange.png,down,right,up,5fc50bb38378c80ac88354ef,2021-09-11_17h31.20.443,arrow_simon_vert,2021.1.2,Win32,59.61962678,,,,,,,,,,,,,,,,,,,,,down,1,1.7192,42,TRUE,FALSE,10,1,41,3,1,,,,,,,
,,,,,,1,1.826646264,#a3d0fb,"[""0.25"",""0""]",right_blue.png,right,,,,,,,,right,right_blue.png,up_orange.png,up,right,up,5fc50bb38378c80ac88354ef,2021-09-11_17h31.20.443,arrow_simon_vert,2021.1.2,Win32,59.61962678,,,,,,,,,,,,,,,,,,,,,right,1,1.3714,43,FALSE,TRUE,10,2,42,1,1,,,,,,,
,,,,,,1,2.237161549,#f3af84,"[""0"",""-0.25""]",up_orange.png,up,,,,,,,,right,right_blue.png,up_orange.png,up,left,down,5fc50bb38378c80ac88354ef,2021-09-11_17h31.20.443,arrow_simon_vert,2021.1.2,Win32,59.61962678,,,,,,,,,,,,,,,,,,,,,down,0,1.8398,44,TRUE,FALSE,10,3,43,0,1,,,,,,,
,,,,,,1,2.363622791,#a3d0fb,"[""-0.25"",""0""]",right_blue.png,right,,,,,,,,right,right_blue.png,up_orange.png,up,left,down,5fc50bb38378c80ac88354ef,2021-09-11_17h31.20.443,arrow_simon_vert,2021.1.2,Win32,59.61962678,,,,,,,,,,,,,,,,,,,,,down,0,2.0224,45,TRUE,FALSE,11,0,44,0,1,,,,,,,
,,,,,,1,2.182062954,#f3af84,"[""0"",""-0.25""]",up_orange.png,up,,,,,,,,right,right_blue.png,up_orange.png,up,left,down,5fc50bb38378c80ac88354ef,2021-09-11_17h31.20.443,arrow_simon_vert,2021.1.2,Win32,59.61962678,,,,,,,,,,,,,,,,,,,,,right,0,1.7547,46,TRUE,FALSE,11,1,45,0,1,,,,,,,
,,,,,,1,2.405794837,#a3d0fb,"[""-0.25"",""0""]",left_blue.png,left,,,,,,,,left,left_blue.png,down_orange.png,down,left,down,5fc50bb38378c80ac88354ef,2021-09-11_17h31.20.443,arrow_simon_vert,2021.1.2,Win32,59.61962678,,,,,,,,,,,,,,,,,,,,,left,1,1.9752,47,TRUE,FALSE,11,2,46,2,1,,,,,,,
,,,,,,1,2.064059451,#f3af84,"[""0"",""0.25""]",up_orange.png,up,,,,,,,,right,right_blue.png,up_orange.png,up,right,up,5fc50bb38378c80ac88354ef,2021-09-11_17h31.20.443,arrow_simon_vert,2021.1.2,Win32,59.61962678,,,,,,,,,,,,,,,,,,,,,up,1,1.6355,48,TRUE,FALSE,11,3,47,1,1,,,,,,,
,,,,,,1,2.16693094,#a3d0fb,"[""0.25"",""0""]",right_blue.png,right,,,,,,,,right,right_blue.png,up_orange.png,up,right,up,5fc50bb38378c80ac88354ef,2021-09-11_17h31.20.443,arrow_simon_vert,2021.1.2,Win32,59.61962678,,,,,,,,,,,,,,,,,,,,,right,1,1.6692,49,TRUE,FALSE,12,0,48,1,1,,,,,,,
,,,,,,1,1.736487449,#f3af84,"[""0"",""-0.25""]",down_orange.png,down,,,,,,,,left,left_blue.png,down_orange.png,down,left,down,5fc50bb38378c80ac88354ef,2021-09-11_17h31.20.443,arrow_simon_vert,2021.1.2,Win32,59.61962678,,,,,,,,,,,,,,,,,,,,,down,1,1.3253,50,FALSE,TRUE,12,1,49,2,1,,,,,,,
,,,,,,1,2.195018139,#a3d0fb,"[""0.25"",""0""]",right_blue.png,right,,,,,,,,right,right_blue.png,up_orange.png,up,right,up,5fc50bb38378c80ac88354ef,2021-09-11_17h31.20.443,arrow_simon_vert,2021.1.2,Win32,59.61962678,,,,,,,,,,,,,,,,,,,,,right,1,0.3004,51,FALSE,TRUE,12,2,50,1,1,,,,,,,
,,,,,,0,1.650519963,#f3af84,"[""0"",""-0.25""]",down_orange.png,down,,,,,,,,left,left_blue.png,down_orange.png,down,left,down,5fc50bb38378c80ac88354ef,2021-09-11_17h31.20.443,arrow_simon_vert,2021.1.2,Win32,59.61962678,,,,,,,,,,,,,,,,,,,,,down,1,1.4404,52,FALSE,FALSE,12,3,51,2,1,,,,,,,
,,,,,,0,2.438967735,#a3d0fb,"[""0.25"",""0""]",right_blue.png,right,,,,,,,,right,right_blue.png,up_orange.png,up,right,up,5fc50bb38378c80ac88354ef,2021-09-11_17h31.20.443,arrow_simon_vert,2021.1.2,Win32,59.61962678,,,,,,,,,,,,,,,,,,,,,right,1,1.7745,53,TRUE,FALSE,13,0,52,1,1,,,,,,,
,,,,,,0,1.895407641,#f3af84,"[""0"",""0.25""]",down_orange.png,down,,,,,,,,left,left_blue.png,down_orange.png,down,right,up,5fc50bb38378c80ac88354ef,2021-09-11_17h31.20.443,arrow_simon_vert,2021.1.2,Win32,59.61962678,,,,,,,,,,,,,,,,,,,,,down,1,1.6524,54,TRUE,FALSE,13,1,53,3,1,,,,,,,
,,,,,,0,2.127787584,#a3d0fb,"[""-0.25"",""0""]",left_blue.png,left,,,,,,,,left,left_blue.png,down_orange.png,down,left,down,5fc50bb38378c80ac88354ef,2021-09-11_17h31.20.443,arrow_simon_vert,2021.1.2,Win32,59.61962678,,,,,,,,,,,,,,,,,,,,,left,1,1.6563,55,TRUE,FALSE,13,2,54,2,1,,,,,,,
,,,,,,0,2.259778832,#f3af84,"[""0"",""-0.25""]",down_orange.png,down,,,,,,,,left,left_blue.png,down_orange.png,down,left,down,5fc50bb38378c80ac88354ef,2021-09-11_17h31.20.443,arrow_simon_vert,2021.1.2,Win32,59.61962678,,,,,,,,,,,,,,,,,,,,,down,1,1.7691,56,TRUE,FALSE,13,3,55,2,1,,,,,,,
,,,,,,0,1.95451437,#a3d0fb,"[""0.25"",""0""]",right_blue.png,right,,,,,,,,right,right_blue.png,up_orange.png,up,right,up,5fc50bb38378c80ac88354ef,2021-09-11_17h31.20.443,arrow_simon_vert,2021.1.2,Win32,59.61962678,,,,,,,,,,,,,,,,,,,,,right,1,1.3371,57,FALSE,TRUE,14,0,56,1,1,,,,,,,
,,,,,,0,2.065488026,#f3af84,"[""0"",""0.25""]",down_orange.png,down,,,,,,,,left,left_blue.png,down_orange.png,down,right,up,5fc50bb38378c80ac88354ef,2021-09-11_17h31.20.443,arrow_simon_vert,2021.1.2,Win32,59.61962678,,,,,,,,,,,,,,,,,,,,,down,1,1.7547,58,TRUE,FALSE,14,1,57,3,1,,,,,,,
,,,,,,0,2.217558521,#a3d0fb,"[""-0.25"",""0""]",right_blue.png,right,,,,,,,,right,right_blue.png,up_orange.png,up,left,down,5fc50bb38378c80ac88354ef,2021-09-11_17h31.20.443,arrow_simon_vert,2021.1.2,Win32,59.61962678,,,,,,,,,,,,,,,,,,,,,left,0,1.707,59,TRUE,FALSE,14,2,58,0,1,,,,,,,
,,,,,,0,1.623670123,#f3af84,"[""0"",""-0.25""]",up_orange.png,up,,,,,,,,right,right_blue.png,up_orange.png,up,left,down,5fc50bb38378c80ac88354ef,2021-09-11_17h31.20.443,arrow_simon_vert,2021.1.2,Win32,59.61962678,,,,,,,,,,,,,,,,,,,,,right,0,1.1516,60,FALSE,TRUE,14,3,59,0,1,,,,,,,
,,,,,,,,,,,,,,,,,,,,,,,,,5fc50bb38378c80ac88354ef,2021-09-11_17h31.20.443,arrow_simon_vert,2021.1.2,Win32,59.61962678,,,,,,,,,,,,,,,,,,,,,,,,,,,,,,,,space,6.7929,0,0,0,0,1
,,,,,,0,1.632848954,#a3d0fb,"[""0.25"",""0""]",right_blue.png,right,,,,,,,,right,right_blue.png,up_orange.png,up,right,up,5fc50bb38378c80ac88354ef,2021-09-11_17h31.20.443,arrow_simon_vert,2021.1.2,Win32,59.61962678,,,,,,,,,,,,,,,,,,,,,right,1,1.2519,1,FALSE,TRUE,0,0,0,1,1,,,,,,,
,,,,,,0,2.063047875,#f3af84,"[""0"",""-0.25""]",up_orange.png,up,,,,,,,,right,right_blue.png,up_orange.png,up,left,down,5fc50bb38378c80ac88354ef,2021-09-11_17h31.20.443,arrow_simon_vert,2021.1.2,Win32,59.61962678,,,,,,,,,,,,,,,,,,,,,right,0,1.8191,2,TRUE,FALSE,0,1,1,0,1,,,,,,,
,,,,,,0,1.858194203,#a3d0fb,"[""-0.25"",""0""]",left_blue.png,left,,,,,,,,left,left_blue.png,down_orange.png,down,left,down,5fc50bb38378c80ac88354ef,2021-09-11_17h31.20.443,arrow_simon_vert,2021.1.2,Win32,59.61962678,,,,,,,,,,,,,,,,,,,,,left,1,1.6029,3,TRUE,FALSE,0,2,2,2,1,,,,,,,
,,,,,,0,1.615153885,#f3af84,"[""0"",""0.25""]",down_orange.png,down,,,,,,,,left,left_blue.png,down_orange.png,down,right,up,5fc50bb38378c80ac88354ef,2021-09-11_17h31.20.443,arrow_simon_vert,2021.1.2,Win32,59.61962678,,,,,,,,,,,,,,,,,,,,,up,0,1.1017,4,FALSE,TRUE,0,3,3,3,1,,,,,,,
,,,,,,0,2.051197353,#a3d0fb,"[""-0.25"",""0""]",left_blue.png,left,,,,,,,,left,left_blue.png,down_orange.png,down,left,down,5fc50bb38378c80ac88354ef,2021-09-11_17h31.20.443,arrow_simon_vert,2021.1.2,Win32,59.61962678,,,,,,,,,,,,,,,,,,,,,left,1,1.7899,5,TRUE,FALSE,1,0,4,2,1,,,,,,,
,,,,,,0,1.64322808,#f3af84,"[""0"",""0.25""]",up_orange.png,up,,,,,,,,right,right_blue.png,up_orange.png,up,right,up,5fc50bb38378c80ac88354ef,2021-09-11_17h31.20.443,arrow_simon_vert,2021.1.2,Win32,59.61962678,,,,,,,,,,,,,,,,,,,,,up,1,1.1672,6,FALSE,TRUE,1,1,5,1,1,,,,,,,
,,,,,,0,1.734793246,#a3d0fb,"[""-0.25"",""0""]",left_blue.png,left,,,,,,,,left,left_blue.png,down_orange.png,down,left,down,5fc50bb38378c80ac88354ef,2021-09-11_17h31.20.443,arrow_simon_vert,2021.1.2,Win32,59.61962678,,,,,,,,,,,,,,,,,,,,,left,1,1.302,7,FALSE,TRUE,1,2,6,2,1,,,,,,,
,,,,,,0,1.523417407,#f3af84,"[""0"",""0.25""]",down_orange.png,down,,,,,,,,left,left_blue.png,down_orange.png,down,right,up,5fc50bb38378c80ac88354ef,2021-09-11_17h31.20.443,arrow_simon_vert,2021.1.2,Win32,59.61962678,,,,,,,,,,,,,,,,,,,,,up,0,1.6538,8,TRUE,FALSE,1,3,7,3,1,,,,,,,
,,,,,,1,1.596804428,#a3d0fb,"[""-0.25"",""0""]",right_blue.png,right,,,,,,,,right,right_blue.png,up_orange.png,up,left,down,5fc50bb38378c80ac88354ef,2021-09-11_17h31.20.443,arrow_simon_vert,2021.1.2,Win32,59.61962678,,,,,,,,,,,,,,,,,,,,,down,0,1.4853,9,FALSE,FALSE,2,0,8,0,1,,,,,,,
,,,,,,1,2.284584306,#f3af84,"[""0"",""-0.25""]",up_orange.png,up,,,,,,,,right,right_blue.png,up_orange.png,up,left,down,5fc50bb38378c80ac88354ef,2021-09-11_17h31.20.443,arrow_simon_vert,2021.1.2,Win32,59.61962678,,,,,,,,,,,,,,,,,,,,,up,1,1.9858,10,TRUE,FALSE,2,1,9,0,1,,,,,,,
,,,,,,1,2.088433216,#a3d0fb,"[""0.25"",""0""]",left_blue.png,left,,,,,,,,left,left_blue.png,down_orange.png,down,right,up,5fc50bb38378c80ac88354ef,2021-09-11_17h31.20.443,arrow_simon_vert,2021.1.2,Win32,59.61962678,,,,,,,,,,,,,,,,,,,,,right,0,1.4258,11,FALSE,FALSE,2,2,10,3,1,,,,,,,
,,,,,,1,1.511817656,#f3af84,"[""0"",""0.25""]",down_orange.png,down,,,,,,,,left,left_blue.png,down_orange.png,down,right,up,5fc50bb38378c80ac88354ef,2021-09-11_17h31.20.443,arrow_simon_vert,2021.1.2,Win32,59.61962678,,,,,,,,,,,,,,,,,,,,,down,1,1.3522,12,FALSE,TRUE,2,3,11,3,1,,,,,,,
,,,,,,1,1.946059925,#a3d0fb,"[""-0.25"",""0""]",right_blue.png,right,,,,,,,,right,right_blue.png,up_orange.png,up,left,down,5fc50bb38378c80ac88354ef,2021-09-11_17h31.20.443,arrow_simon_vert,2021.1.2,Win32,59.61962678,,,,,,,,,,,,,,,,,,,,,down,0,1.458,13,FALSE,FALSE,3,0,12,0,1,,,,,,,
,,,,,,1,2.233292627,#f3af84,"[""0"",""0.25""]",down_orange.png,down,,,,,,,,left,left_blue.png,down_orange.png,down,right,up,5fc50bb38378c80ac88354ef,2021-09-11_17h31.20.443,arrow_simon_vert,2021.1.2,Win32,59.61962678,,,,,,,,,,,,,,,,,,,,,up,0,1.669,14,TRUE,FALSE,3,1,13,3,1,,,,,,,
,,,,,,1,2.168219354,#a3d0fb,"[""-0.25"",""0""]",left_blue.png,left,,,,,,,,left,left_blue.png,down_orange.png,down,left,down,5fc50bb38378c80ac88354ef,2021-09-11_17h31.20.443,arrow_simon_vert,2021.1.2,Win32,59.61962678,,,,,,,,,,,,,,,,,,,,,left,1,1.656,15,TRUE,FALSE,3,2,14,2,1,,,,,,,
,,,,,,0,2.035598056,#f3af84,"[""0"",""0.25""]",up_orange.png,up,,,,,,,,right,right_blue.png,up_orange.png,up,right,up,5fc50bb38378c80ac88354ef,2021-09-11_17h31.20.443,arrow_simon_vert,2021.1.2,Win32,59.61962678,,,,,,,,,,,,,,,,,,,,,up,1,1.5523,16,FALSE,FALSE,3,3,15,1,1,,,,,,,
,,,,,,0,2.317028283,#a3d0fb,"[""0.25"",""0""]",right_blue.png,right,,,,,,,,right,right_blue.png,up_orange.png,up,right,up,5fc50bb38378c80ac88354ef,2021-09-11_17h31.20.443,arrow_simon_vert,2021.1.2,Win32,59.61962678,,,,,,,,,,,,,,,,,,,,,right,1,1.6691,17,TRUE,FALSE,4,0,16,1,1,,,,,,,
,,,,,,0,1.595159756,#f3af84,"[""0"",""0.25""]",down_orange.png,down,,,,,,,,left,left_blue.png,down_orange.png,down,right,up,5fc50bb38378c80ac88354ef,2021-09-11_17h31.20.443,arrow_simon_vert,2021.1.2,Win32,59.61962678,,,,,,,,,,,,,,,,,,,,,up,0,1.2213,18,FALSE,TRUE,4,1,17,3,1,,,,,,,
,,,,,,0,2.435884225,#a3d0fb,"[""-0.25"",""0""]",left_blue.png,left,,,,,,,,left,left_blue.png,down_orange.png,down,left,down,5fc50bb38378c80ac88354ef,2021-09-11_17h31.20.443,arrow_simon_vert,2021.1.2,Win32,59.61962678,,,,,,,,,,,,,,,,,,,,,left,1,1.8602,19,TRUE,FALSE,4,2,18,2,1,,,,,,,
,,,,,,0,1.523014435,#f3af84,"[""0"",""-0.25""]",up_orange.png,up,,,,,,,,right,right_blue.png,up_orange.png,up,left,down,5fc50bb38378c80ac88354ef,2021-09-11_17h31.20.443,arrow_simon_vert,2021.1.2,Win32,59.61962678,,,,,,,,,,,,,,,,,,,,,right,0,1.2353,20,FALSE,TRUE,4,3,19,0,1,,,,,,,
,,,,,,1,1.934233922,#a3d0fb,"[""-0.25"",""0""]",right_blue.png,right,,,,,,,,right,right_blue.png,up_orange.png,up,left,down,5fc50bb38378c80ac88354ef,2021-09-11_17h31.20.443,arrow_simon_vert,2021.1.2,Win32,59.61962678,,,,,,,,,,,,,,,,,,,,,down,0,1.4689,21,FALSE,FALSE,5,0,20,0,1,,,,,,,
,,,,,,1,2.330968016,#f3af84,"[""0"",""-0.25""]",up_orange.png,up,,,,,,,,right,right_blue.png,up_orange.png,up,left,down,5fc50bb38378c80ac88354ef,2021-09-11_17h31.20.443,arrow_simon_vert,2021.1.2,Win32,59.61962678,,,,,,,,,,,,,,,,,,,,,right,0,1.6358,22,TRUE,FALSE,5,1,21,0,1,,,,,,,
,,,,,,1,1.530276276,#a3d0fb,"[""0.25"",""0""]",right_blue.png,right,,,,,,,,right,right_blue.png,up_orange.png,up,right,up,5fc50bb38378c80ac88354ef,2021-09-11_17h31.20.443,arrow_simon_vert,2021.1.2,Win32,59.61962678,,,,,,,,,,,,,,,,,,,,,right,1,1.1182,23,FALSE,TRUE,5,2,22,1,1,,,,,,,
,,,,,,0,1.614865375,#f3af84,"[""0"",""-0.25""]",up_orange.png,up,,,,,,,,right,right_blue.png,up_orange.png,up,left,down,5fc50bb38378c80ac88354ef,2021-09-11_17h31.20.443,arrow_simon_vert,2021.1.2,Win32,59.61962678,,,,,,,,,,,,,,,,,,,,,up,1,1.4749,24,FALSE,FALSE,5,3,23,0,1,,,,,,,
,,,,,,0,1.546003363,#a3d0fb,"[""-0.25"",""0""]",left_blue.png,left,,,,,,,,left,left_blue.png,down_orange.png,down,left,down,5fc50bb38378c80ac88354ef,2021-09-11_17h31.20.443,arrow_simon_vert,2021.1.2,Win32,59.61962678,,,,,,,,,,,,,,,,,,,,,left,1,1.4879,25,FALSE,FALSE,6,0,24,2,1,,,,,,,
,,,,,,0,1.895480666,#f3af84,"[""0"",""-0.25""]",up_orange.png,up,,,,,,,,right,right_blue.png,up_orange.png,up,left,down,5fc50bb38378c80ac88354ef,2021-09-11_17h31.20.443,arrow_simon_vert,2021.1.2,Win32,59.61962678,,,,,,,,,,,,,,,,,,,,,up,1,1.4355,26,FALSE,FALSE,6,1,25,0,1,,,,,,,
,,,,,,0,1.810971169,#a3d0fb,"[""-0.25"",""0""]",left_blue.png,left,,,,,,,,left,left_blue.png,down_orange.png,down,left,down,5fc50bb38378c80ac88354ef,2021-09-11_17h31.20.443,arrow_simon_vert,2021.1.2,Win32,59.61962678,,,,,,,,,,,,,,,,,,,,,left,1,1.3265,27,FALSE,TRUE,6,2,26,2,1,,,,,,,
,,,,,,0,2.483588016,#f3af84,"[""0"",""0.25""]",down_orange.png,down,,,,,,,,left,left_blue.png,down_orange.png,down,right,up,5fc50bb38378c80ac88354ef,2021-09-11_17h31.20.443,arrow_simon_vert,2021.1.2,Win32,59.61962678,,,,,,,,,,,,,,,,,,,,,up,0,1.7763,28,TRUE,FALSE,6,3,27,3,1,,,,,,,
,,,,,,1,1.640728288,#a3d0fb,"[""-0.25"",""0""]",right_blue.png,right,,,,,,,,right,right_blue.png,up_orange.png,up,left,down,5fc50bb38378c80ac88354ef,2021-09-11_17h31.20.443,arrow_simon_vert,2021.1.2,Win32,59.61962678,,,,,,,,,,,,,,,,,,,,,left,0,1.4762,29,FALSE,FALSE,7,0,28,0,1,,,,,,,
,,,,,,0,1.572936876,#f3af84,"[""0"",""-0.25""]",down_orange.png,down,,,,,,,,left,left_blue.png,down_orange.png,down,left,down,5fc50bb38378c80ac88354ef,2021-09-11_17h31.20.443,arrow_simon_vert,2021.1.2,Win32,59.61962678,,,,,,,,,,,,,,,,,,,,,down,1,1.5051,30,FALSE,FALSE,7,1,29,2,1,,,,,,,
,,,,,,0,2.41173809,#a3d0fb,"[""0.25"",""0""]",left_blue.png,left,,,,,,,,left,left_blue.png,down_orange.png,down,right,up,5fc50bb38378c80ac88354ef,2021-09-11_17h31.20.443,arrow_simon_vert,2021.1.2,Win32,59.61962678,,,,,,,,,,,,,,,,,,,,,left,1,1.9722,31,TRUE,FALSE,7,2,30,3,1,,,,,,,
,,,,,,0,2.333969668,#f3af84,"[""0"",""-0.25""]",down_orange.png,down,,,,,,,,left,left_blue.png,down_orange.png,down,left,down,5fc50bb38378c80ac88354ef,2021-09-11_17h31.20.443,arrow_simon_vert,2021.1.2,Win32,59.61962678,,,,,,,,,,,,,,,,,,,,,down,1,1.752,32,TRUE,FALSE,7,3,31,2,1,,,,,,,
,,,,,,1,1.883774532,#a3d0fb,"[""0.25"",""0""]",left_blue.png,left,,,,,,,,left,left_blue.png,down_orange.png,down,right,up,5fc50bb38378c80ac88354ef,2021-09-11_17h31.20.443,arrow_simon_vert,2021.1.2,Win32,59.61962678,,,,,,,,,,,,,,,,,,,,,right,0,1.5538,33,FALSE,FALSE,8,0,32,3,1,,,,,,,
,,,,,,1,2.085551658,#f3af84,"[""0"",""-0.25""]",down_orange.png,down,,,,,,,,left,left_blue.png,down_orange.png,down,left,down,5fc50bb38378c80ac88354ef,2021-09-11_17h31.20.443,arrow_simon_vert,2021.1.2,Win32,59.61962678,,,,,,,,,,,,,,,,,,,,,up,0,1.5192,34,FALSE,FALSE,8,1,33,2,1,,,,,,,
,,,,,,1,2.156903715,#a3d0fb,"[""0.25"",""0""]",right_blue.png,right,,,,,,,,right,right_blue.png,up_orange.png,up,right,up,5fc50bb38378c80ac88354ef,2021-09-11_17h31.20.443,arrow_simon_vert,2021.1.2,Win32,59.61962678,,,,,,,,,,,,,,,,,,,,,right,1,1.6357,35,TRUE,FALSE,8,2,34,1,1,,,,,,,
,,,,,,0,1.558488314,#f3af84,"[""0"",""-0.25""]",up_orange.png,up,,,,,,,,right,right_blue.png,up_orange.png,up,left,down,5fc50bb38378c80ac88354ef,2021-09-11_17h31.20.443,arrow_simon_vert,2021.1.2,Win32,59.61962678,,,,,,,,,,,,,,,,,,,,,up,1,1.402,36,FALSE,FALSE,8,3,35,0,1,,,,,,,
,,,,,,0,2.196937527,#a3d0fb,"[""-0.25"",""0""]",right_blue.png,right,,,,,,,,right,right_blue.png,up_orange.png,up,left,down,5fc50bb38378c80ac88354ef,2021-09-11_17h31.20.443,arrow_simon_vert,2021.1.2,Win32,59.61962678,,,,,,,,,,,,,,,,,,,,,left,0,1.8208,37,TRUE,FALSE,9,0,36,0,1,,,,,,,
,,,,,,0,2.19800576,#f3af84,"[""0"",""0.25""]",up_orange.png,up,,,,,,,,right,right_blue.png,up_orange.png,up,right,up,5fc50bb38378c80ac88354ef,2021-09-11_17h31.20.443,arrow_simon_vert,2021.1.2,Win32,59.61962678,,,,,,,,,,,,,,,,,,,,,up,1,1.5855,38,FALSE,FALSE,9,1,37,1,1,,,,,,,
,,,,,,0,1.686839973,#a3d0fb,"[""-0.25"",""0""]",right_blue.png,right,,,,,,,,right,right_blue.png,up_orange.png,up,left,down,5fc50bb38378c80ac88354ef,2021-09-11_17h31.20.443,arrow_simon_vert,2021.1.2,Win32,59.61962678,,,,,,,,,,,,,,,,,,,,,right,1,1.4544,39,FALSE,FALSE,9,2,38,0,1,,,,,,,
,,,,,,0,2.43382704,#f3af84,"[""0"",""0.25""]",up_orange.png,up,,,,,,,,right,right_blue.png,up_orange.png,up,right,up,5fc50bb38378c80ac88354ef,2021-09-11_17h31.20.443,arrow_simon_vert,2021.1.2,Win32,59.61962678,,,,,,,,,,,,,,,,,,,,,up,1,1.8434,40,TRUE,FALSE,9,3,39,1,1,,,,,,,
,,,,,,0,2.254330512,#a3d0fb,"[""-0.25"",""0""]",left_blue.png,left,,,,,,,,left,left_blue.png,down_orange.png,down,left,down,5fc50bb38378c80ac88354ef,2021-09-11_17h31.20.443,arrow_simon_vert,2021.1.2,Win32,59.61962678,,,,,,,,,,,,,,,,,,,,,left,1,1.7087,41,TRUE,FALSE,10,0,40,2,1,,,,,,,
,,,,,,0,2.454836576,#f3af84,"[""0"",""-0.25""]",down_orange.png,down,,,,,,,,left,left_blue.png,down_orange.png,down,left,down,5fc50bb38378c80ac88354ef,2021-09-11_17h31.20.443,arrow_simon_vert,2021.1.2,Win32,59.61962678,,,,,,,,,,,,,,,,,,,,,right,0,1.8525,42,TRUE,FALSE,10,1,41,2,1,,,,,,,
,,,,,,0,2.465600659,#a3d0fb,"[""0.25"",""0""]",right_blue.png,right,,,,,,,,right,right_blue.png,up_orange.png,up,right,up,5fc50bb38378c80ac88354ef,2021-09-11_17h31.20.443,arrow_simon_vert,2021.1.2,Win32,59.61962678,,,,,,,,,,,,,,,,,,,,,right,1,1.7561,43,TRUE,FALSE,10,2,42,1,1,,,,,,,
,,,,,,0,2.351979828,#f3af84,"[""0"",""0.25""]",up_orange.png,up,,,,,,,,right,right_blue.png,up_orange.png,up,right,up,5fc50bb38378c80ac88354ef,2021-09-11_17h31.20.443,arrow_simon_vert,2021.1.2,Win32,59.61962678,,,,,,,,,,,,,,,,,,,,,up,1,1.7696,44,TRUE,FALSE,10,3,43,1,1,,,,,,,
,,,,,,0,2.06655624,#a3d0fb,"[""-0.25"",""0""]",left_blue.png,left,,,,,,,,left,left_blue.png,down_orange.png,down,left,down,5fc50bb38378c80ac88354ef,2021-09-11_17h31.20.443,arrow_simon_vert,2021.1.2,Win32,59.61962678,,,,,,,,,,,,,,,,,,,,,left,1,1.6193,45,TRUE,FALSE,11,0,44,2,1,,,,,,,
,,,,,,0,1.652715241,#f3af84,"[""0"",""-0.25""]",down_orange.png,down,,,,,,,,left,left_blue.png,down_orange.png,down,left,down,5fc50bb38378c80ac88354ef,2021-09-11_17h31.20.443,arrow_simon_vert,2021.1.2,Win32,59.61962678,,,,,,,,,,,,,,,,,,,,,down,1,1.1594,46,FALSE,TRUE,11,1,45,2,1,,,,,,,
,,,,,,0,2.252825232,#a3d0fb,"[""-0.25"",""0""]",right_blue.png,right,,,,,,,,right,right_blue.png,up_orange.png,up,left,down,5fc50bb38378c80ac88354ef,2021-09-11_17h31.20.443,arrow_simon_vert,2021.1.2,Win32,59.61962678,,,,,,,,,,,,,,,,,,,,,left,0,1.6693,47,TRUE,FALSE,11,2,46,0,1,,,,,,,
,,,,,,0,1.620647175,#f3af84,"[""0"",""0.25""]",up_orange.png,up,,,,,,,,right,right_blue.png,up_orange.png,up,right,up,5fc50bb38378c80ac88354ef,2021-09-11_17h31.20.443,arrow_simon_vert,2021.1.2,Win32,59.61962678,,,,,,,,,,,,,,,,,,,,,up,1,1.3841,48,FALSE,TRUE,11,3,47,1,1,,,,,,,
,,,,,,0,2.048390691,#a3d0fb,"[""-0.25"",""0""]",right_blue.png,right,,,,,,,,right,right_blue.png,up_orange.png,up,left,down,5fc50bb38378c80ac88354ef,2021-09-11_17h31.20.443,arrow_simon_vert,2021.1.2,Win32,59.61962678,,,,,,,,,,,,,,,,,,,,,right,1,1.8265,49,TRUE,FALSE,12,0,48,0,1,,,,,,,
,,,,,,0,1.844851324,#f3af84,"[""0"",""0.25""]",down_orange.png,down,,,,,,,,left,left_blue.png,down_orange.png,down,right,up,5fc50bb38378c80ac88354ef,2021-09-11_17h31.20.443,arrow_simon_vert,2021.1.2,Win32,59.61962678,,,,,,,,,,,,,,,,,,,,,up,0,1.6202,50,TRUE,FALSE,12,1,49,3,1,,,,,,,
,,,,,,0,2.149891105,#a3d0fb,"[""0.25"",""0""]",left_blue.png,left,,,,,,,,left,left_blue.png,down_orange.png,down,right,up,5fc50bb38378c80ac88354ef,2021-09-11_17h31.20.443,arrow_simon_vert,2021.1.2,Win32,59.61962678,,,,,,,,,,,,,,,,,,,,,left,1,1.9024,51,TRUE,FALSE,12,2,50,3,1,,,,,,,
,,,,,,0,2.0948294,#f3af84,"[""0"",""0.25""]",down_orange.png,down,,,,,,,,left,left_blue.png,down_orange.png,down,right,up,5fc50bb38378c80ac88354ef,2021-09-11_17h31.20.443,arrow_simon_vert,2021.1.2,Win32,59.61962678,,,,,,,,,,,,,,,,,,,,,up,0,1.926,52,TRUE,FALSE,12,3,51,3,1,,,,,,,
,,,,,,0,1.622453792,#a3d0fb,"[""0.25"",""0""]",right_blue.png,right,,,,,,,,right,right_blue.png,up_orange.png,up,right,up,5fc50bb38378c80ac88354ef,2021-09-11_17h31.20.443,arrow_simon_vert,2021.1.2,Win32,59.61962678,,,,,,,,,,,,,,,,,,,,,right,1,1.6023,53,TRUE,FALSE,13,0,52,1,1,,,,,,,
,,,,,,0,2.176821459,#f3af84,"[""0"",""-0.25""]",down_orange.png,down,,,,,,,,left,left_blue.png,down_orange.png,down,left,down,5fc50bb38378c80ac88354ef,2021-09-11_17h31.20.443,arrow_simon_vert,2021.1.2,Win32,59.61962678,,,,,,,,,,,,,,,,,,,,,down,1,1.9361,54,TRUE,FALSE,13,1,53,2,1,,,,,,,
,,,,,,0,2.112453396,#a3d0fb,"[""0.25"",""0""]",right_blue.png,right,,,,,,,,right,right_blue.png,up_orange.png,up,right,up,5fc50bb38378c80ac88354ef,2021-09-11_17h31.20.443,arrow_simon_vert,2021.1.2,Win32,59.61962678,,,,,,,,,,,,,,,,,,,,,right,1,1.6035,55,TRUE,FALSE,13,2,54,1,1,,,,,,,
,,,,,,0,1.673192083,#f3af84,"[""0"",""0.25""]",up_orange.png,up,,,,,,,,right,right_blue.png,up_orange.png,up,right,up,5fc50bb38378c80ac88354ef,2021-09-11_17h31.20.443,arrow_simon_vert,2021.1.2,Win32,59.61962678,,,,,,,,,,,,,,,,,,,,,up,1,1.2863,56,FALSE,TRUE,13,3,55,1,1,,,,,,,
,,,,,,0,1.786877641,#a3d0fb,"[""0.25"",""0""]",left_blue.png,left,,,,,,,,left,left_blue.png,down_orange.png,down,right,up,5fc50bb38378c80ac88354ef,2021-09-11_17h31.20.443,arrow_simon_vert,2021.1.2,Win32,59.61962678,,,,,,,,,,,,,,,,,,,,,left,1,1.6268,57,TRUE,FALSE,14,0,56,3,1,,,,,,,
,,,,,,1,1.900851204,#f3af84,"[""0"",""0.25""]",down_orange.png,down,,,,,,,,left,left_blue.png,down_orange.png,down,right,up,5fc50bb38378c80ac88354ef,2021-09-11_17h31.20.443,arrow_simon_vert,2021.1.2,Win32,59.61962678,,,,,,,,,,,,,,,,,,,,,up,0,1.4854,58,FALSE,FALSE,14,1,57,3,1,,,,,,,
,,,,,,1,2.42154268,#a3d0fb,"[""0.25"",""0""]",left_blue.png,left,,,,,,,,left,left_blue.png,down_orange.png,down,right,up,5fc50bb38378c80ac88354ef,2021-09-11_17h31.20.443,arrow_simon_vert,2021.1.2,Win32,59.61962678,,,,,,,,,,,,,,,,,,,,,right,0,2.1608,59,TRUE,FALSE,14,2,58,3,1,,,,,,,
,,,,,,1,2.442823592,#f3af84,"[""0"",""0.25""]",up_orange.png,up,,,,,,,,right,right_blue.png,up_orange.png,up,right,up,5fc50bb38378c80ac88354ef,2021-09-11_17h31.20.443,arrow_simon_vert,2021.1.2,Win32,59.61962678,,,,,,,,,,,,,,,,,,,,,up,1,1.9028,60,TRUE,FALSE,14,3,59,1,1,,,,,,,
,,,,,,,,,,,,,,,,,,,,,,,,,5fc50bb38378c80ac88354ef,2021-09-11_17h31.20.443,arrow_simon_vert,2021.1.2,Win32,59.61962678,,,,,,,,,,,,,,,,,,,,,,,,,,,,,,,,space,6.4559,1,0,1,0,1
,,,,,,1,1.900527716,#a3d0fb,"[""-0.25"",""0""]",left_blue.png,left,,,,,,,,left,left_blue.png,down_orange.png,down,left,down,5fc50bb38378c80ac88354ef,2021-09-11_17h31.20.443,arrow_simon_vert,2021.1.2,Win32,59.61962678,,,,,,,,,,,,,,,,,,,,,left,1,1.6022,1,TRUE,FALSE,0,0,0,2,1,,,,,,,
,,,,,,0,2.136047128,#f3af84,"[""0"",""0.25""]",up_orange.png,up,,,,,,,,right,right_blue.png,up_orange.png,up,right,up,5fc50bb38378c80ac88354ef,2021-09-11_17h31.20.443,arrow_simon_vert,2021.1.2,Win32,59.61962678,,,,,,,,,,,,,,,,,,,,,up,1,1.5404,2,FALSE,FALSE,0,1,1,1,1,,,,,,,
,,,,,,0,1.826901078,#a3d0fb,"[""0.25"",""0""]",right_blue.png,right,,,,,,,,right,right_blue.png,up_orange.png,up,right,up,5fc50bb38378c80ac88354ef,2021-09-11_17h31.20.443,arrow_simon_vert,2021.1.2,Win32,59.61962678,,,,,,,,,,,,,,,,,,,,,right,1,1.106,3,FALSE,TRUE,0,2,2,1,1,,,,,,,
,,,,,,0,2.160597866,#f3af84,"[""0"",""-0.25""]",down_orange.png,down,,,,,,,,left,left_blue.png,down_orange.png,down,left,down,5fc50bb38378c80ac88354ef,2021-09-11_17h31.20.443,arrow_simon_vert,2021.1.2,Win32,59.61962678,,,,,,,,,,,,,,,,,,,,,down,1,1.4926,4,FALSE,FALSE,0,3,3,2,1,,,,,,,
,,,,,,0,1.607198024,#a3d0fb,"[""-0.25"",""0""]",left_blue.png,left,,,,,,,,left,left_blue.png,down_orange.png,down,left,down,5fc50bb38378c80ac88354ef,2021-09-11_17h31.20.443,arrow_simon_vert,2021.1.2,Win32,59.61962678,,,,,,,,,,,,,,,,,,,,,left,1,1.1021,5,FALSE,TRUE,1,0,4,2,1,,,,,,,
,,,,,,0,2.187234013,#f3af84,"[""0"",""-0.25""]",down_orange.png,down,,,,,,,,left,left_blue.png,down_orange.png,down,left,down,5fc50bb38378c80ac88354ef,2021-09-11_17h31.20.443,arrow_simon_vert,2021.1.2,Win32,59.61962678,,,,,,,,,,,,,,,,,,,,,down,1,1.6358,6,TRUE,FALSE,1,1,5,2,1,,,,,,,
,,,,,,0,2.01253902,#a3d0fb,"[""-0.25"",""0""]",left_blue.png,left,,,,,,,,left,left_blue.png,down_orange.png,down,left,down,5fc50bb38378c80ac88354ef,2021-09-11_17h31.20.443,arrow_simon_vert,2021.1.2,Win32,59.61962678,,,,,,,,,,,,,,,,,,,,,left,1,1.5523,7,FALSE,FALSE,1,2,6,2,1,,,,,,,
,,,,,,0,2.140325479,#f3af84,"[""0"",""-0.25""]",up_orange.png,up,,,,,,,,right,right_blue.png,up_orange.png,up,left,down,5fc50bb38378c80ac88354ef,2021-09-11_17h31.20.443,arrow_simon_vert,2021.1.2,Win32,59.61962678,,,,,,,,,,,,,,,,,,,,,down,0,1.6711,8,TRUE,FALSE,1,3,7,0,1,,,,,,,
,,,,,,0,2.411414173,#a3d0fb,"[""-0.25"",""0""]",right_blue.png,right,,,,,,,,right,right_blue.png,up_orange.png,up,left,down,5fc50bb38378c80ac88354ef,2021-09-11_17h31.20.443,arrow_simon_vert,2021.1.2,Win32,59.61962678,,,,,,,,,,,,,,,,,,,,,left,0,1.9278,9,TRUE,FALSE,2,0,8,0,1,,,,,,,
,,,,,,0,2.386101345,#f3af84,"[""0"",""-0.25""]",down_orange.png,down,,,,,,,,left,left_blue.png,down_orange.png,down,left,down,5fc50bb38378c80ac88354ef,2021-09-11_17h31.20.443,arrow_simon_vert,2021.1.2,Win32,59.61962678,,,,,,,,,,,,,,,,,,,,,down,1,2.0891,10,TRUE,FALSE,2,1,9,2,1,,,,,,,
,,,,,,0,1.972119594,#a3d0fb,"[""0.25"",""0""]",left_blue.png,left,,,,,,,,left,left_blue.png,down_orange.png,down,right,up,5fc50bb38378c80ac88354ef,2021-09-11_17h31.20.443,arrow_simon_vert,2021.1.2,Win32,59.61962678,,,,,,,,,,,,,,,,,,,,,right,0,1.2849,11,FALSE,TRUE,2,2,10,3,1,,,,,,,
,,,,,,0,1.626034344,#f3af84,"[""0"",""-0.25""]",up_orange.png,up,,,,,,,,right,right_blue.png,up_orange.png,up,left,down,5fc50bb38378c80ac88354ef,2021-09-11_17h31.20.443,arrow_simon_vert,2021.1.2,Win32,59.61962678,,,,,,,,,,,,,,,,,,,,,up,1,1.4758,12,FALSE,FALSE,2,3,11,0,1,,,,,,,
,,,,,,0,1.737699641,#a3d0fb,"[""-0.25"",""0""]",right_blue.png,right,,,,,,,,right,right_blue.png,up_orange.png,up,left,down,5fc50bb38378c80ac88354ef,2021-09-11_17h31.20.443,arrow_simon_vert,2021.1.2,Win32,59.61962678,,,,,,,,,,,,,,,,,,,,,right,1,1.7355,13,TRUE,FALSE,3,0,12,0,1,,,,,,,
,,,,,,0,1.897779154,#f3af84,"[""0"",""0.25""]",down_orange.png,down,,,,,,,,left,left_blue.png,down_orange.png,down,right,up,5fc50bb38378c80ac88354ef,2021-09-11_17h31.20.443,arrow_simon_vert,2021.1.2,Win32,59.61962678,,,,,,,,,,,,,,,,,,,,,up,0,1.8112,14,TRUE,FALSE,3,1,13,3,1,,,,,,,
,,,,,,0,2.043195306,#a3d0fb,"[""-0.25"",""0""]",left_blue.png,left,,,,,,,,left,left_blue.png,down_orange.png,down,left,down,5fc50bb38378c80ac88354ef,2021-09-11_17h31.20.443,arrow_simon_vert,2021.1.2,Win32,59.61962678,,,,,,,,,,,,,,,,,,,,,left,1,1.6938,15,TRUE,FALSE,3,2,14,2,1,,,,,,,
,,,,,,0,1.860955841,#f3af84,"[""0"",""-0.25""]",down_orange.png,down,,,,,,,,left,left_blue.png,down_orange.png,down,left,down,5fc50bb38378c80ac88354ef,2021-09-11_17h31.20.443,arrow_simon_vert,2021.1.2,Win32,59.61962678,,,,,,,,,,,,,,,,,,,,,down,1,1.5346,16,FALSE,FALSE,3,3,15,2,1,,,,,,,
,,,,,,0,1.701432914,#a3d0fb,"[""0.25"",""0""]",right_blue.png,right,,,,,,,,right,right_blue.png,up_orange.png,up,right,up,5fc50bb38378c80ac88354ef,2021-09-11_17h31.20.443,arrow_simon_vert,2021.1.2,Win32,59.61962678,,,,,,,,,,,,,,,,,,,,,right,1,1.6023,17,TRUE,FALSE,4,0,16,1,1,,,,,,,
,,,,,,0,2.091896278,#f3af84,"[""0"",""0.25""]",up_orange.png,up,,,,,,,,right,right_blue.png,up_orange.png,up,right,up,5fc50bb38378c80ac88354ef,2021-09-11_17h31.20.443,arrow_simon_vert,2021.1.2,Win32,59.61962678,,,,,,,,,,,,,,,,,,,,,up,1,1.7102,18,TRUE,FALSE,4,1,17,1,1,,,,,,,
,,,,,,1,2.010607799,#a3d0fb,"[""-0.25"",""0""]",right_blue.png,right,,,,,,,,right,right_blue.png,up_orange.png,up,left,down,5fc50bb38378c80ac88354ef,2021-09-11_17h31.20.443,arrow_simon_vert,2021.1.2,Win32,59.61962678,,,,,,,,,,,,,,,,,,,,,left,0,1.409,19,FALSE,FALSE,4,2,18,0,1,,,,,,,
,,,,,,1,1.906721454,#f3af84,"[""0"",""0.25""]",down_orange.png,down,,,,,,,,left,left_blue.png,down_orange.png,down,right,up,5fc50bb38378c80ac88354ef,2021-09-11_17h31.20.443,arrow_simon_vert,2021.1.2,Win32,59.61962678,,,,,,,,,,,,,,,,,,,,,up,0,1.6353,20,TRUE,FALSE,4,3,19,3,1,,,,,,,
,,,,,,1,1.68050278,#a3d0fb,"[""0.25"",""0""]",left_blue.png,left,,,,,,,,left,left_blue.png,down_orange.png,down,right,up,5fc50bb38378c80ac88354ef,2021-09-11_17h31.20.443,arrow_simon_vert,2021.1.2,Win32,59.61962678,,,,,,,,,,,,,,,,,,,,,right,0,1.7692,21,TRUE,FALSE,5,0,20,3,1,,,,,,,
,,,,,,1,1.929847876,#f3af84,"[""0"",""0.25""]",down_orange.png,down,,,,,,,,left,left_blue.png,down_orange.png,down,right,up,5fc50bb38378c80ac88354ef,2021-09-11_17h31.20.443,arrow_simon_vert,2021.1.2,Win32,59.61962678,,,,,,,,,,,,,,,,,,,,,down,1,1.8264,22,TRUE,FALSE,5,1,21,3,1,,,,,,,
,,,,,,1,2.166723141,#a3d0fb,"[""-0.25"",""0""]",left_blue.png,left,,,,,,,,left,left_blue.png,down_orange.png,down,left,down,5fc50bb38378c80ac88354ef,2021-09-11_17h31.20.443,arrow_simon_vert,2021.1.2,Win32,59.61962678,,,,,,,,,,,,,,,,,,,,,left,1,1.6692,23,TRUE,FALSE,5,2,22,2,1,,,,,,,
,,,,,,1,2.354468058,#f3af84,"[""0"",""0.25""]",down_orange.png,down,,,,,,,,left,left_blue.png,down_orange.png,down,right,up,5fc50bb38378c80ac88354ef,2021-09-11_17h31.20.443,arrow_simon_vert,2021.1.2,Win32,59.61962678,,,,,,,,,,,,,,,,,,,,,right,0,1.7035,24,TRUE,FALSE,5,3,23,3,1,,,,,,,
,,,,,,1,1.687685282,#a3d0fb,"[""0.25"",""0""]",left_blue.png,left,,,,,,,,left,left_blue.png,down_orange.png,down,right,up,5fc50bb38378c80ac88354ef,2021-09-11_17h31.20.443,arrow_simon_vert,2021.1.2,Win32,59.61962678,,,,,,,,,,,,,,,,,,,,,left,1,1.6581,25,TRUE,FALSE,6,0,24,3,1,,,,,,,
,,,,,,1,1.72480213,#f3af84,"[""0"",""0.25""]",down_orange.png,down,,,,,,,,left,left_blue.png,down_orange.png,down,right,up,5fc50bb38378c80ac88354ef,2021-09-11_17h31.20.443,arrow_simon_vert,2021.1.2,Win32,59.61962678,,,,,,,,,,,,,,,,,,,,,up,0,1.369,26,FALSE,TRUE,6,1,25,3,1,,,,,,,
,,,,,,1,2.474364808,#a3d0fb,"[""-0.25"",""0""]",left_blue.png,left,,,,,,,,left,left_blue.png,down_orange.png,down,left,down,5fc50bb38378c80ac88354ef,2021-09-11_17h31.20.443,arrow_simon_vert,2021.1.2,Win32,59.61962678,,,,,,,,,,,,,,,,,,,,,left,1,1.8204,27,TRUE,FALSE,6,2,26,2,1,,,,,,,
,,,,,,1,1.814673301,#f3af84,"[""0"",""-0.25""]",up_orange.png,up,,,,,,,,right,right_blue.png,up_orange.png,up,left,down,5fc50bb38378c80ac88354ef,2021-09-11_17h31.20.443,arrow_simon_vert,2021.1.2,Win32,59.61962678,,,,,,,,,,,,,,,,,,,,,down,0,1.3989,28,FALSE,TRUE,6,3,27,0,1,,,,,,,
,,,,,,1,2.04936555,#a3d0fb,"[""0.25"",""0""]",left_blue.png,left,,,,,,,,left,left_blue.png,down_orange.png,down,right,up,5fc50bb38378c80ac88354ef,2021-09-11_17h31.20.443,arrow_simon_vert,2021.1.2,Win32,59.61962678,,,,,,,,,,,,,,,,,,,,,right,0,1.8263,29,TRUE,FALSE,7,0,28,3,1,,,,,,,
,,,,,,1,2.023372018,#f3af84,"[""0"",""-0.25""]",up_orange.png,up,,,,,,,,right,right_blue.png,up_orange.png,up,left,down,5fc50bb38378c80ac88354ef,2021-09-11_17h31.20.443,arrow_simon_vert,2021.1.2,Win32,59.61962678,,,,,,,,,,,,,,,,,,,,,down,0,1.6761,30,TRUE,FALSE,7,1,29,0,1,,,,,,,
,,,,,,1,2.371233537,#a3d0fb,"[""0.25"",""0""]",right_blue.png,right,,,,,,,,right,right_blue.png,up_orange.png,up,right,up,5fc50bb38378c80ac88354ef,2021-09-11_17h31.20.443,arrow_simon_vert,2021.1.2,Win32,59.61962678,,,,,,,,,,,,,,,,,,,,,right,1,1.9191,31,TRUE,FALSE,7,2,30,1,1,,,,,,,
,,,,,,1,2.346251168,#f3af84,"[""0"",""0.25""]",up_orange.png,up,,,,,,,,right,right_blue.png,up_orange.png,up,right,up,5fc50bb38378c80ac88354ef,2021-09-11_17h31.20.443,arrow_simon_vert,2021.1.2,Win32,59.61962678,,,,,,,,,,,,,,,,,,,,,up,1,1.719,32,TRUE,FALSE,7,3,31,1,1,,,,,,,
,,,,,,1,2.212779045,#a3d0fb,"[""-0.25"",""0""]",left_blue.png,left,,,,,,,,left,left_blue.png,down_orange.png,down,left,down,5fc50bb38378c80ac88354ef,2021-09-11_17h31.20.443,arrow_simon_vert,2021.1.2,Win32,59.61962678,,,,,,,,,,,,,,,,,,,,,left,1,1.6689,33,TRUE,FALSE,8,0,32,2,1,,,,,,,
,,,,,,1,1.750827573,#f3af84,"[""0"",""0.25""]",up_orange.png,up,,,,,,,,right,right_blue.png,up_orange.png,up,right,up,5fc50bb38378c80ac88354ef,2021-09-11_17h31.20.443,arrow_simon_vert,2021.1.2,Win32,59.61962678,,,,,,,,,,,,,,,,,,,,,up,1,1.1684,34,FALSE,TRUE,8,1,33,1,1,,,,,,,
,,,,,,1,1.961310805,#a3d0fb,"[""0.25"",""0""]",right_blue.png,right,,,,,,,,right,right_blue.png,up_orange.png,up,right,up,5fc50bb38378c80ac88354ef,2021-09-11_17h31.20.443,arrow_simon_vert,2021.1.2,Win32,59.61962678,,,,,,,,,,,,,,,,,,,,,up,0,1.2542,35,FALSE,TRUE,8,2,34,1,1,,,,,,,
,,,,,,1,1.608330846,#f3af84,"[""0"",""-0.25""]",down_orange.png,down,,,,,,,,left,left_blue.png,down_orange.png,down,left,down,5fc50bb38378c80ac88354ef,2021-09-11_17h31.20.443,arrow_simon_vert,2021.1.2,Win32,59.61962678,,,,,,,,,,,,,,,,,,,,,down,1,1.1912,36,FALSE,TRUE,8,3,35,2,1,,,,,,,
,,,,,,1,2.287103403,#a3d0fb,"[""0.25"",""0""]",right_blue.png,right,,,,,,,,right,right_blue.png,up_orange.png,up,right,up,5fc50bb38378c80ac88354ef,2021-09-11_17h31.20.443,arrow_simon_vert,2021.1.2,Win32,59.61962678,,,,,,,,,,,,,,,,,,,,,up,0,1.7025,37,TRUE,FALSE,9,0,36,1,1,,,,,,,
,,,,,,1,2.44682414,#f3af84,"[""0"",""0.25""]",down_orange.png,down,,,,,,,,left,left_blue.png,down_orange.png,down,right,up,5fc50bb38378c80ac88354ef,2021-09-11_17h31.20.443,arrow_simon_vert,2021.1.2,Win32,59.61962678,,,,,,,,,,,,,,,,,,,,,up,0,1.7527,38,TRUE,FALSE,9,1,37,3,1,,,,,,,
,,,,,,1,2.165589478,#a3d0fb,"[""-0.25"",""0""]",right_blue.png,right,,,,,,,,right,right_blue.png,up_orange.png,up,left,down,5fc50bb38378c80ac88354ef,2021-09-11_17h31.20.443,arrow_simon_vert,2021.1.2,Win32,59.61962678,,,,,,,,,,,,,,,,,,,,,left,0,1.543,39,FALSE,FALSE,9,2,38,0,1,,,,,,,
,,,,,,1,2.360413516,#f3af84,"[""0"",""0.25""]",down_orange.png,down,,,,,,,,left,left_blue.png,down_orange.png,down,right,up,5fc50bb38378c80ac88354ef,2021-09-11_17h31.20.443,arrow_simon_vert,2021.1.2,Win32,59.61962678,,,,,,,,,,,,,,,,,,,,,up,0,1.9873,40,TRUE,FALSE,9,3,39,3,1,,,,,,,
,,,,,,1,2.489375223,#a3d0fb,"[""0.25"",""0""]",left_blue.png,left,,,,,,,,left,left_blue.png,down_orange.png,down,right,up,5fc50bb38378c80ac88354ef,2021-09-11_17h31.20.443,arrow_simon_vert,2021.1.2,Win32,59.61962678,,,,,,,,,,,,,,,,,,,,,right,0,2.0528,41,TRUE,FALSE,10,0,40,3,1,,,,,,,
,,,,,,1,1.640646687,#f3af84,"[""0"",""0.25""]",up_orange.png,up,,,,,,,,right,right_blue.png,up_orange.png,up,right,up,5fc50bb38378c80ac88354ef,2021-09-11_17h31.20.443,arrow_simon_vert,2021.1.2,Win32,59.61962678,,,,,,,,,,,,,,,,,,,,,up,1,1.1351,42,FALSE,TRUE,10,1,41,1,1,,,,,,,
,,,,,,1,2.342839747,#a3d0fb,"[""-0.25"",""0""]",left_blue.png,left,,,,,,,,left,left_blue.png,down_orange.png,down,left,down,5fc50bb38378c80ac88354ef,2021-09-11_17h31.20.443,arrow_simon_vert,2021.1.2,Win32,59.61962678,,,,,,,,,,,,,,,,,,,,,left,1,1.8692,43,TRUE,FALSE,10,2,42,2,1,,,,,,,
,,,,,,1,2.391199037,#f3af84,"[""0"",""-0.25""]",up_orange.png,up,,,,,,,,right,right_blue.png,up_orange.png,up,left,down,5fc50bb38378c80ac88354ef,2021-09-11_17h31.20.443,arrow_simon_vert,2021.1.2,Win32,59.61962678,,,,,,,,,,,,,,,,,,,,,up,1,2.0693,44,TRUE,FALSE,10,3,43,0,1,,,,,,,
,,,,,,1,2.462444131,#a3d0fb,"[""-0.25"",""0""]",right_blue.png,right,,,,,,,,right,right_blue.png,up_orange.png,up,left,down,5fc50bb38378c80ac88354ef,2021-09-11_17h31.20.443,arrow_simon_vert,2021.1.2,Win32,59.61962678,,,,,,,,,,,,,,,,,,,,,right,1,2.0528,45,TRUE,FALSE,11,0,44,0,1,,,,,,,
,,,,,,1,2.477639634,#f3af84,"[""0"",""-0.25""]",down_orange.png,down,,,,,,,,left,left_blue.png,down_orange.png,down,left,down,5fc50bb38378c80ac88354ef,2021-09-11_17h31.20.443,arrow_simon_vert,2021.1.2,Win32,59.61962678,,,,,,,,,,,,,,,,,,,,,down,1,2.1353,46,TRUE,FALSE,11,1,45,2,1,,,,,,,
,,,,,,1,2.282830068,#a3d0fb,"[""-0.25"",""0""]",right_blue.png,right,,,,,,,,right,right_blue.png,up_orange.png,up,left,down,5fc50bb38378c80ac88354ef,2021-09-11_17h31.20.443,arrow_simon_vert,2021.1.2,Win32,59.61962678,,,,,,,,,,,,,,,,,,,,,right,1,1.8205,47,TRUE,FALSE,11,2,46,0,1,,,,,,,
,,,,,,1,1.932451369,#f3af84,"[""0"",""-0.25""]",up_orange.png,up,,,,,,,,right,right_blue.png,up_orange.png,up,left,down,5fc50bb38378c80ac88354ef,2021-09-11_17h31.20.443,arrow_simon_vert,2021.1.2,Win32,59.61962678,,,,,,,,,,,,,,,,,,,,,up,1,1.711,48,TRUE,FALSE,11,3,47,0,1,,,,,,,
,,,,,,1,2.253149733,#a3d0fb,"[""-0.25"",""0""]",right_blue.png,right,,,,,,,,right,right_blue.png,up_orange.png,up,left,down,5fc50bb38378c80ac88354ef,2021-09-11_17h31.20.443,arrow_simon_vert,2021.1.2,Win32,59.61962678,,,,,,,,,,,,,,,,,,,,,up,0,1.7927,49,TRUE,FALSE,12,0,48,0,1,,,,,,,
,,,,,,1,1.911872162,#f3af84,"[""0"",""0.25""]",down_orange.png,down,,,,,,,,left,left_blue.png,down_orange.png,down,right,up,5fc50bb38378c80ac88354ef,2021-09-11_17h31.20.443,arrow_simon_vert,2021.1.2,Win32,59.61962678,,,,,,,,,,,,,,,,,,,,,up,0,1.2686,50,FALSE,TRUE,12,1,49,3,1,,,,,,,
,,,,,,1,2.440154143,#a3d0fb,"[""0.25"",""0""]",left_blue.png,left,,,,,,,,left,left_blue.png,down_orange.png,down,right,up,5fc50bb38378c80ac88354ef,2021-09-11_17h31.20.443,arrow_simon_vert,2021.1.2,Win32,59.61962678,,,,,,,,,,,,,,,,,,,,,right,0,2.1048,51,TRUE,FALSE,12,2,50,3,1,,,,,,,
,,,,,,1,2.07719118,#f3af84,"[""0"",""0.25""]",down_orange.png,down,,,,,,,,left,left_blue.png,down_orange.png,down,right,up,5fc50bb38378c80ac88354ef,2021-09-11_17h31.20.443,arrow_simon_vert,2021.1.2,Win32,59.61962678,,,,,,,,,,,,,,,,,,,,,right,0,1.6371,52,TRUE,FALSE,12,3,51,3,1,,,,,,,
,,,,,,1,1.799628691,#a3d0fb,"[""0.25"",""0""]",right_blue.png,right,,,,,,,,right,right_blue.png,up_orange.png,up,right,up,5fc50bb38378c80ac88354ef,2021-09-11_17h31.20.443,arrow_simon_vert,2021.1.2,Win32,59.61962678,,,,,,,,,,,,,,,,,,,,,right,1,1.2729,53,FALSE,TRUE,13,0,52,1,1,,,,,,,
,,,,,,1,1.687238225,#f3af84,"[""0"",""0.25""]",up_orange.png,up,,,,,,,,right,right_blue.png,up_orange.png,up,right,up,5fc50bb38378c80ac88354ef,2021-09-11_17h31.20.443,arrow_simon_vert,2021.1.2,Win32,59.61962678,,,,,,,,,,,,,,,,,,,,,up,1,2.642,54,TRUE,FALSE,13,1,53,1,1,,,,,,,
,,,,,,1,1.630380195,#a3d0fb,"[""-0.25"",""0""]",right_blue.png,right,,,,,,,,right,right_blue.png,up_orange.png,up,left,down,5fc50bb38378c80ac88354ef,2021-09-11_17h31.20.443,arrow_simon_vert,2021.1.2,Win32,59.61962678,,,,,,,,,,,,,,,,,,,,,right,1,1.3852,55,FALSE,TRUE,13,2,54,0,1,,,,,,,
,,,,,,1,1.812690194,#f3af84,"[""0"",""-0.25""]",up_orange.png,up,,,,,,,,right,right_blue.png,up_orange.png,up,left,down,5fc50bb38378c80ac88354ef,2021-09-11_17h31.20.443,arrow_simon_vert,2021.1.2,Win32,59.61962678,,,,,,,,,,,,,,,,,,,,,down,0,1.4226,56,FALSE,FALSE,13,3,55,0,1,,,,,,,
,,,,,,1,2.170891308,#a3d0fb,"[""0.25"",""0""]",right_blue.png,right,,,,,,,,right,right_blue.png,up_orange.png,up,right,up,5fc50bb38378c80ac88354ef,2021-09-11_17h31.20.443,arrow_simon_vert,2021.1.2,Win32,59.61962678,,,,,,,,,,,,,,,,,,,,,right,1,1.786,57,TRUE,FALSE,14,0,56,1,1,,,,,,,
,,,,,,1,2.021878317,#f3af84,"[""0"",""-0.25""]",down_orange.png,down,,,,,,,,left,left_blue.png,down_orange.png,down,left,down,5fc50bb38378c80ac88354ef,2021-09-11_17h31.20.443,arrow_simon_vert,2021.1.2,Win32,59.61962678,,,,,,,,,,,,,,,,,,,,,right,0,1.5021,58,FALSE,FALSE,14,1,57,2,1,,,,,,,
,,,,,,1,2.40726406,#a3d0fb,"[""0.25"",""0""]",right_blue.png,right,,,,,,,,right,right_blue.png,up_orange.png,up,right,up,5fc50bb38378c80ac88354ef,2021-09-11_17h31.20.443,arrow_simon_vert,2021.1.2,Win32,59.61962678,,,,,,,,,,,,,,,,,,,,,right,1,1.836,59,TRUE,FALSE,14,2,58,1,1,,,,,,,
,,,,,,1,1.550803884,#f3af84,"[""0"",""0.25""]",up_orange.png,up,,,,,,,,right,right_blue.png,up_orange.png,up,right,up,5fc50bb38378c80ac88354ef,2021-09-11_17h31.20.443,arrow_simon_vert,2021.1.2,Win32,59.61962678,,,,,,,,,,,,,,,,,,,,,up,1,1.2373,60,FALSE,TRUE,14,3,59,1,1,,,,,,,
,,,,,,,,,,,,,,,,,,,,,,,,,5fc50bb38378c80ac88354ef,2021-09-11_17h31.20.443,arrow_simon_vert,2021.1.2,Win32,59.61962678,,,,,,,,,,,,,,,,,,,,,,,,,,,,,,,,space,3.1585,2,0,2,0,1
,,,,,,1,1.57029801,#a3d0fb,"[""-0.25"",""0""]",left_blue.png,left,,,,,,,,left,left_blue.png,down_orange.png,down,left,down,5fc50bb38378c80ac88354ef,2021-09-11_17h31.20.443,arrow_simon_vert,2021.1.2,Win32,59.61962678,,,,,,,,,,,,,,,,,,,,,left,1,1.2607,1,FALSE,TRUE,0,0,0,2,1,,,,,,,
,,,,,,1,2.087355017,#f3af84,"[""0"",""-0.25""]",down_orange.png,down,,,,,,,,left,left_blue.png,down_orange.png,down,left,down,5fc50bb38378c80ac88354ef,2021-09-11_17h31.20.443,arrow_simon_vert,2021.1.2,Win32,59.61962678,,,,,,,,,,,,,,,,,,,,,down,1,1.6021,2,TRUE,FALSE,0,1,1,2,1,,,,,,,
,,,,,,1,1.600881052,#a3d0fb,"[""-0.25"",""0""]",right_blue.png,right,,,,,,,,right,right_blue.png,up_orange.png,up,left,down,5fc50bb38378c80ac88354ef,2021-09-11_17h31.20.443,arrow_simon_vert,2021.1.2,Win32,59.61962678,,,,,,,,,,,,,,,,,,,,,right,1,1.2184,3,FALSE,TRUE,0,2,2,0,1,,,,,,,
,,,,,,1,1.743095909,#f3af84,"[""0"",""0.25""]",up_orange.png,up,,,,,,,,right,right_blue.png,up_orange.png,up,right,up,5fc50bb38378c80ac88354ef,2021-09-11_17h31.20.443,arrow_simon_vert,2021.1.2,Win32,59.61962678,,,,,,,,,,,,,,,,,,,,,up,1,1.2687,4,FALSE,TRUE,0,3,3,1,1,,,,,,,
,,,,,,0,1.962585106,#a3d0fb,"[""-0.25"",""0""]",left_blue.png,left,,,,,,,,left,left_blue.png,down_orange.png,down,left,down,5fc50bb38378c80ac88354ef,2021-09-11_17h31.20.443,arrow_simon_vert,2021.1.2,Win32,59.61962678,,,,,,,,,,,,,,,,,,,,,left,1,1.5188,5,FALSE,FALSE,1,0,4,2,1,,,,,,,
,,,,,,1,2.073629056,#f3af84,"[""0"",""-0.25""]",up_orange.png,up,,,,,,,,right,right_blue.png,up_orange.png,up,left,down,5fc50bb38378c80ac88354ef,2021-09-11_17h31.20.443,arrow_simon_vert,2021.1.2,Win32,59.61962678,,,,,,,,,,,,,,,,,,,,,down,0,1.5382,6,FALSE,FALSE,1,1,5,0,1,,,,,,,
,,,,,,0,1.918861145,#a3d0fb,"[""-0.25"",""0""]",right_blue.png,right,,,,,,,,right,right_blue.png,up_orange.png,up,left,down,5fc50bb38378c80ac88354ef,2021-09-11_17h31.20.443,arrow_simon_vert,2021.1.2,Win32,59.61962678,,,,,,,,,,,,,,,,,,,,,right,1,1.4355,7,FALSE,FALSE,1,2,6,0,1,,,,,,,
,,,,,,0,2.460554239,#f3af84,"[""0"",""0.25""]",up_orange.png,up,,,,,,,,right,right_blue.png,up_orange.png,up,right,up,5fc50bb38378c80ac88354ef,2021-09-11_17h31.20.443,arrow_simon_vert,2021.1.2,Win32,59.61962678,,,,,,,,,,,,,,,,,,,,,up,1,1.9193,8,TRUE,FALSE,1,3,7,1,1,,,,,,,
,,,,,,0,1.509928127,#a3d0fb,"[""0.25"",""0""]",right_blue.png,right,,,,,,,,right,right_blue.png,up_orange.png,up,right,up,5fc50bb38378c80ac88354ef,2021-09-11_17h31.20.443,arrow_simon_vert,2021.1.2,Win32,59.61962678,,,,,,,,,,,,,,,,,,,,,right,1,1.0211,9,FALSE,TRUE,2,0,8,1,1,,,,,,,
,,,,,,0,1.809996228,#f3af84,"[""0"",""0.25""]",up_orange.png,up,,,,,,,,right,right_blue.png,up_orange.png,up,right,up,5fc50bb38378c80ac88354ef,2021-09-11_17h31.20.443,arrow_simon_vert,2021.1.2,Win32,59.61962678,,,,,,,,,,,,,,,,,,,,,up,1,1.3687,10,FALSE,TRUE,2,1,9,1,1,,,,,,,
,,,,,,0,2.004589981,#a3d0fb,"[""-0.25"",""0""]",left_blue.png,left,,,,,,,,left,left_blue.png,down_orange.png,down,left,down,5fc50bb38378c80ac88354ef,2021-09-11_17h31.20.443,arrow_simon_vert,2021.1.2,Win32,59.61962678,,,,,,,,,,,,,,,,,,,,,left,1,1.6248,11,TRUE,FALSE,2,2,10,2,1,,,,,,,
,,,,,,0,1.525874079,#f3af84,"[""0"",""0.25""]",down_orange.png,down,,,,,,,,left,left_blue.png,down_orange.png,down,right,up,5fc50bb38378c80ac88354ef,2021-09-11_17h31.20.443,arrow_simon_vert,2021.1.2,Win32,59.61962678,,,,,,,,,,,,,,,,,,,,,up,0,1.1017,12,FALSE,TRUE,2,3,11,3,1,,,,,,,
,,,,,,0,1.787504436,#a3d0fb,"[""0.25"",""0""]",right_blue.png,right,,,,,,,,right,right_blue.png,up_orange.png,up,right,up,5fc50bb38378c80ac88354ef,2021-09-11_17h31.20.443,arrow_simon_vert,2021.1.2,Win32,59.61962678,,,,,,,,,,,,,,,,,,,,,right,1,1.2035,13,FALSE,TRUE,3,0,12,1,1,,,,,,,
,,,,,,1,1.869593725,#f3af84,"[""0"",""0.25""]",down_orange.png,down,,,,,,,,left,left_blue.png,down_orange.png,down,right,up,5fc50bb38378c80ac88354ef,2021-09-11_17h31.20.443,arrow_simon_vert,2021.1.2,Win32,59.61962678,,,,,,,,,,,,,,,,,,,,,up,0,1.4228,14,FALSE,FALSE,3,1,13,3,1,,,,,,,
,,,,,,1,2.275237816,#a3d0fb,"[""0.25"",""0""]",left_blue.png,left,,,,,,,,left,left_blue.png,down_orange.png,down,right,up,5fc50bb38378c80ac88354ef,2021-09-11_17h31.20.443,arrow_simon_vert,2021.1.2,Win32,59.61962678,,,,,,,,,,,,,,,,,,,,,right,0,1.9251,15,TRUE,FALSE,3,2,14,3,1,,,,,,,
