instruct_resp_simon.keys,instruct_resp_simon.corr,instruct_resp_simon.rt,trial_resp_simon.keys,trial_resp_simon.corr,trial_resp_simon.rt,kerr,target_onset,target_color,target_pos,target_file,target_resp,trials_train_simon.thisRepN,trials_train_simon.thisTrialN,trials_train_simon.thisN,trials_train_simon.thisIndex,trials_train_simon.ran,odd_target_pos,even_target_pos,odd_target_resp,odd_target_file,even_target_file,even_target_resp,odd_target_side,even_target_side,participant,date,expName,psychopyVersion,OS,frameRate,train_block_note_resp.keys,train_block_note_resp.rt,blocks_train.thisRepN,blocks_train.thisTrialN,blocks_train.thisN,blocks_train.thisIndex,blocks_train.ran,instruct_resp_timing.keys,instruct_resp_timing.corr,instruct_resp_timing.rt,trial_resp_timing.keys,trial_resp_timing.rt,trials_train_timing.thisRepN,trials_train_timing.thisTrialN,trials_train_timing.thisN,trials_train_timing.thisIndex,trials_train_timing.ran,instruct_resp.keys,instruct_resp.corr,instruct_resp.rt,trial_resp.keys,trial_resp.corr,trial_resp.rt,trial_num,too_slow,too_soon,trials.thisRepN,trials.thisTrialN,trials.thisN,trials.thisIndex,trials.ran,block_note_resp.keys,block_note_resp.rt,blocks.thisRepN,blocks.thisTrialN,blocks.thisN,blocks.thisIndex,blocks.ran
space,0,97.087,left,1,2.658,0,0.606707883,#a3d0fb,"[""0.25"",""0""]",left_blue.png,left,0,0,0,3,1,,,left,left_blue.png,down_orange.png,down,right,up,5fd43da30be3161b9a3ec2d6,2021-09-11_16h51.49.167,arrow_simon_vert,2021.1.2,Win32,59.95203837,,,,,,,,,,,,,,,,,,,,,,,,,,,,,,,,,,,,,,
,,,down,1,2.417,0,0.577941984,#f3af84,"[""0"",""0.25""]",down_orange.png,down,0,1,1,3,1,,,left,left_blue.png,down_orange.png,down,right,up,5fd43da30be3161b9a3ec2d6,2021-09-11_16h51.49.167,arrow_simon_vert,2021.1.2,Win32,59.95203837,,,,,,,,,,,,,,,,,,,,,,,,,,,,,,,,,,,,,,
,,,left,1,1.487,0,0.681390198,#a3d0fb,"[""-0.25"",""0""]",left_blue.png,left,0,2,2,2,1,,,left,left_blue.png,down_orange.png,down,left,down,5fd43da30be3161b9a3ec2d6,2021-09-11_16h51.49.167,arrow_simon_vert,2021.1.2,Win32,59.95203837,,,,,,,,,,,,,,,,,,,,,,,,,,,,,,,,,,,,,,
,,,left,0,1.683,1,0.499435919,#f3af84,"[""0"",""0.25""]",down_orange.png,down,0,3,3,3,1,,,left,left_blue.png,down_orange.png,down,right,up,5fd43da30be3161b9a3ec2d6,2021-09-11_16h51.49.167,arrow_simon_vert,2021.1.2,Win32,59.95203837,,,,,,,,,,,,,,,,,,,,,,,,,,,,,,,,,,,,,,
,,,left,1,1.402,0,0.830147608,#a3d0fb,"[""-0.25"",""0""]",left_blue.png,left,1,0,4,2,1,,,left,left_blue.png,down_orange.png,down,left,down,5fd43da30be3161b9a3ec2d6,2021-09-11_16h51.49.167,arrow_simon_vert,2021.1.2,Win32,59.95203837,,,,,,,,,,,,,,,,,,,,,,,,,,,,,,,,,,,,,,
,,,up,1,1.95,0,0.277618618,#f3af84,"[""0"",""0.25""]",up_orange.png,up,1,1,5,1,1,,,right,right_blue.png,up_orange.png,up,right,up,5fd43da30be3161b9a3ec2d6,2021-09-11_16h51.49.167,arrow_simon_vert,2021.1.2,Win32,59.95203837,,,,,,,,,,,,,,,,,,,,,,,,,,,,,,,,,,,,,,
,,,left,1,1.307,0,0.120188187,#a3d0fb,"[""-0.25"",""0""]",left_blue.png,left,1,2,6,2,1,,,left,left_blue.png,down_orange.png,down,left,down,5fd43da30be3161b9a3ec2d6,2021-09-11_16h51.49.167,arrow_simon_vert,2021.1.2,Win32,59.95203837,,,,,,,,,,,,,,,,,,,,,,,,,,,,,,,,,,,,,,
,,,down,1,2.681,0,0.484126642,#f3af84,"[""0"",""0.25""]",down_orange.png,down,1,3,7,3,1,,,left,left_blue.png,down_orange.png,down,right,up,5fd43da30be3161b9a3ec2d6,2021-09-11_16h51.49.167,arrow_simon_vert,2021.1.2,Win32,59.95203837,,,,,,,,,,,,,,,,,,,,,,,,,,,,,,,,,,,,,,
,,,right,1,1.117,0,0.298279146,#a3d0fb,"[""0.25"",""0""]",right_blue.png,right,2,0,8,1,1,,,right,right_blue.png,up_orange.png,up,right,up,5fd43da30be3161b9a3ec2d6,2021-09-11_16h51.49.167,arrow_simon_vert,2021.1.2,Win32,59.95203837,,,,,,,,,,,,,,,,,,,,,,,,,,,,,,,,,,,,,,
,,,up,1,2.058,0,0.944393611,#f3af84,"[""0"",""0.25""]",up_orange.png,up,2,1,9,1,1,,,right,right_blue.png,up_orange.png,up,right,up,5fd43da30be3161b9a3ec2d6,2021-09-11_16h51.49.167,arrow_simon_vert,2021.1.2,Win32,59.95203837,,,,,,,,,,,,,,,,,,,,,,,,,,,,,,,,,,,,,,
,,,left,1,1.613,0,0.740619104,#a3d0fb,"[""-0.25"",""0""]",left_blue.png,left,2,2,10,2,1,,,left,left_blue.png,down_orange.png,down,left,down,5fd43da30be3161b9a3ec2d6,2021-09-11_16h51.49.167,arrow_simon_vert,2021.1.2,Win32,59.95203837,,,,,,,,,,,,,,,,,,,,,,,,,,,,,,,,,,,,,,
,,,up,1,1.397,0,0.107871428,#f3af84,"[""0"",""0.25""]",up_orange.png,up,2,3,11,1,1,,,right,right_blue.png,up_orange.png,up,right,up,5fd43da30be3161b9a3ec2d6,2021-09-11_16h51.49.167,arrow_simon_vert,2021.1.2,Win32,59.95203837,,,,,,,,,,,,,,,,,,,,,,,,,,,,,,,,,,,,,,
,,,right,1,1.153,0,0.456536121,#a3d0fb,"[""-0.25"",""0""]",right_blue.png,right,3,0,12,0,1,,,right,right_blue.png,up_orange.png,up,left,down,5fd43da30be3161b9a3ec2d6,2021-09-11_16h51.49.167,arrow_simon_vert,2021.1.2,Win32,59.95203837,,,,,,,,,,,,,,,,,,,,,,,,,,,,,,,,,,,,,,
,,,down,1,2.499,0,0.58643231,#f3af84,"[""0"",""0.25""]",down_orange.png,down,3,1,13,3,1,,,left,left_blue.png,down_orange.png,down,right,up,5fd43da30be3161b9a3ec2d6,2021-09-11_16h51.49.167,arrow_simon_vert,2021.1.2,Win32,59.95203837,,,,,,,,,,,,,,,,,,,,,,,,,,,,,,,,,,,,,,
,,,left,1,1.187,0,0.178809282,#a3d0fb,"[""-0.25"",""0""]",left_blue.png,left,3,2,14,2,1,,,left,left_blue.png,down_orange.png,down,left,down,5fd43da30be3161b9a3ec2d6,2021-09-11_16h51.49.167,arrow_simon_vert,2021.1.2,Win32,59.95203837,,,,,,,,,,,,,,,,,,,,,,,,,,,,,,,,,,,,,,
,,,down,1,2.051,0,0.894470205,#f3af84,"[""0"",""0.25""]",down_orange.png,down,3,3,15,3,1,,,left,left_blue.png,down_orange.png,down,right,up,5fd43da30be3161b9a3ec2d6,2021-09-11_16h51.49.167,arrow_simon_vert,2021.1.2,Win32,59.95203837,,,,,,,,,,,,,,,,,,,,,,,,,,,,,,,,,,,,,,
,,,right,1,1.369,0,0.063034333,#a3d0fb,"[""0.25"",""0""]",right_blue.png,right,4,0,16,1,1,,,right,right_blue.png,up_orange.png,up,right,up,5fd43da30be3161b9a3ec2d6,2021-09-11_16h51.49.167,arrow_simon_vert,2021.1.2,Win32,59.95203837,,,,,,,,,,,,,,,,,,,,,,,,,,,,,,,,,,,,,,
,,,up,1,1.656,0,0.706779179,#f3af84,"[""0"",""0.25""]",up_orange.png,up,4,1,17,1,1,,,right,right_blue.png,up_orange.png,up,right,up,5fd43da30be3161b9a3ec2d6,2021-09-11_16h51.49.167,arrow_simon_vert,2021.1.2,Win32,59.95203837,,,,,,,,,,,,,,,,,,,,,,,,,,,,,,,,,,,,,,
,,,left,1,1.8,0,0.726719173,#a3d0fb,"[""-0.25"",""0""]",left_blue.png,left,4,2,18,2,1,,,left,left_blue.png,down_orange.png,down,left,down,5fd43da30be3161b9a3ec2d6,2021-09-11_16h51.49.167,arrow_simon_vert,2021.1.2,Win32,59.95203837,,,,,,,,,,,,,,,,,,,,,,,,,,,,,,,,,,,,,,
,,,up,1,1.216,0,0.396074197,#f3af84,"[""0"",""0.25""]",up_orange.png,up,4,3,19,1,1,,,right,right_blue.png,up_orange.png,up,right,up,5fd43da30be3161b9a3ec2d6,2021-09-11_16h51.49.167,arrow_simon_vert,2021.1.2,Win32,59.95203837,,,,,,,,,,,,,,,,,,,,,,,,,,,,,,,,,,,,,,
,,,right,1,1.438,0,0.691711647,#a3d0fb,"[""-0.25"",""0""]",right_blue.png,right,5,0,20,0,1,,,right,right_blue.png,up_orange.png,up,left,down,5fd43da30be3161b9a3ec2d6,2021-09-11_16h51.49.167,arrow_simon_vert,2021.1.2,Win32,59.95203837,,,,,,,,,,,,,,,,,,,,,,,,,,,,,,,,,,,,,,
,,,up,1,0.937,0,0.002255225,#f3af84,"[""0"",""0.25""]",up_orange.png,up,5,1,21,1,1,,,right,right_blue.png,up_orange.png,up,right,up,5fd43da30be3161b9a3ec2d6,2021-09-11_16h51.49.167,arrow_simon_vert,2021.1.2,Win32,59.95203837,,,,,,,,,,,,,,,,,,,,,,,,,,,,,,,,,,,,,,
,,,right,1,1.035,0,0.351982834,#a3d0fb,"[""-0.25"",""0""]",right_blue.png,right,5,2,22,0,1,,,right,right_blue.png,up_orange.png,up,left,down,5fd43da30be3161b9a3ec2d6,2021-09-11_16h51.49.167,arrow_simon_vert,2021.1.2,Win32,59.95203837,,,,,,,,,,,,,,,,,,,,,,,,,,,,,,,,,,,,,,
,,,up,1,1.573,0,0.846701713,#f3af84,"[""0"",""0.25""]",up_orange.png,up,5,3,23,1,1,,,right,right_blue.png,up_orange.png,up,right,up,5fd43da30be3161b9a3ec2d6,2021-09-11_16h51.49.167,arrow_simon_vert,2021.1.2,Win32,59.95203837,,,,,,,,,,,,,,,,,,,,,,,,,,,,,,,,,,,,,,
,,,right,0,1.53,1,0.657134967,#a3d0fb,"[""0.25"",""0""]",left_blue.png,left,6,0,24,3,1,,,left,left_blue.png,down_orange.png,down,right,up,5fd43da30be3161b9a3ec2d6,2021-09-11_16h51.49.167,arrow_simon_vert,2021.1.2,Win32,59.95203837,,,,,,,,,,,,,,,,,,,,,,,,,,,,,,,,,,,,,,
,,,up,1,3.702,0,0.815041689,#f3af84,"[""0"",""-0.25""]",up_orange.png,up,6,1,25,0,1,,,right,right_blue.png,up_orange.png,up,left,down,5fd43da30be3161b9a3ec2d6,2021-09-11_16h51.49.167,arrow_simon_vert,2021.1.2,Win32,59.95203837,,,,,,,,,,,,,,,,,,,,,,,,,,,,,,,,,,,,,,
,,,right,1,1.428,0,0.603390711,#a3d0fb,"[""0.25"",""0""]",right_blue.png,right,6,2,26,1,1,,,right,right_blue.png,up_orange.png,up,right,up,5fd43da30be3161b9a3ec2d6,2021-09-11_16h51.49.167,arrow_simon_vert,2021.1.2,Win32,59.95203837,,,,,,,,,,,,,,,,,,,,,,,,,,,,,,,,,,,,,,
,,,up,1,2.237,0,0.938563294,#f3af84,"[""0"",""-0.25""]",up_orange.png,up,6,3,27,0,1,,,right,right_blue.png,up_orange.png,up,left,down,5fd43da30be3161b9a3ec2d6,2021-09-11_16h51.49.167,arrow_simon_vert,2021.1.2,Win32,59.95203837,,,,,,,,,,,,,,,,,,,,,,,,,,,,,,,,,,,,,,
,,,left,1,1.787,0,0.997240852,#a3d0fb,"[""-0.25"",""0""]",left_blue.png,left,7,0,28,2,1,,,left,left_blue.png,down_orange.png,down,left,down,5fd43da30be3161b9a3ec2d6,2021-09-11_16h51.49.167,arrow_simon_vert,2021.1.2,Win32,59.95203837,,,,,,,,,,,,,,,,,,,,,,,,,,,,,,,,,,,,,,
,,,down,1,1.79,0,0.967914676,#f3af84,"[""0"",""0.25""]",down_orange.png,down,7,1,29,3,1,,,left,left_blue.png,down_orange.png,down,right,up,5fd43da30be3161b9a3ec2d6,2021-09-11_16h51.49.167,arrow_simon_vert,2021.1.2,Win32,59.95203837,,,,,,,,,,,,,,,,,,,,,,,,,,,,,,,,,,,,,,
,,,left,1,1.403,0,0.479882568,#a3d0fb,"[""0.25"",""0""]",left_blue.png,left,7,2,30,3,1,,,left,left_blue.png,down_orange.png,down,right,up,5fd43da30be3161b9a3ec2d6,2021-09-11_16h51.49.167,arrow_simon_vert,2021.1.2,Win32,59.95203837,,,,,,,,,,,,,,,,,,,,,,,,,,,,,,,,,,,,,,
,,,down,1,1.284,0,0.318283681,#f3af84,"[""0"",""0.25""]",down_orange.png,down,7,3,31,3,1,,,left,left_blue.png,down_orange.png,down,right,up,5fd43da30be3161b9a3ec2d6,2021-09-11_16h51.49.167,arrow_simon_vert,2021.1.2,Win32,59.95203837,,,,,,,,,,,,,,,,,,,,,,,,,,,,,,,,,,,,,,
,,,left,1,0.854,0,0.240232362,#a3d0fb,"[""-0.25"",""0""]",left_blue.png,left,8,0,32,2,1,,,left,left_blue.png,down_orange.png,down,left,down,5fd43da30be3161b9a3ec2d6,2021-09-11_16h51.49.167,arrow_simon_vert,2021.1.2,Win32,59.95203837,,,,,,,,,,,,,,,,,,,,,,,,,,,,,,,,,,,,,,
,,,up,1,2.61,0,0.82927924,#f3af84,"[""0"",""-0.25""]",up_orange.png,up,8,1,33,0,1,,,right,right_blue.png,up_orange.png,up,left,down,5fd43da30be3161b9a3ec2d6,2021-09-11_16h51.49.167,arrow_simon_vert,2021.1.2,Win32,59.95203837,,,,,,,,,,,,,,,,,,,,,,,,,,,,,,,,,,,,,,
,,,left,1,1.106,0,0.280621378,#a3d0fb,"[""-0.25"",""0""]",left_blue.png,left,8,2,34,2,1,,,left,left_blue.png,down_orange.png,down,left,down,5fd43da30be3161b9a3ec2d6,2021-09-11_16h51.49.167,arrow_simon_vert,2021.1.2,Win32,59.95203837,,,,,,,,,,,,,,,,,,,,,,,,,,,,,,,,,,,,,,
,,,down,1,2.268,0,0.863997606,#f3af84,"[""0"",""-0.25""]",down_orange.png,down,8,3,35,2,1,,,left,left_blue.png,down_orange.png,down,left,down,5fd43da30be3161b9a3ec2d6,2021-09-11_16h51.49.167,arrow_simon_vert,2021.1.2,Win32,59.95203837,,,,,,,,,,,,,,,,,,,,,,,,,,,,,,,,,,,,,,
,,,right,1,1.136,0,0.540118379,#a3d0fb,"[""-0.25"",""0""]",right_blue.png,right,9,0,36,0,1,,,right,right_blue.png,up_orange.png,up,left,down,5fd43da30be3161b9a3ec2d6,2021-09-11_16h51.49.167,arrow_simon_vert,2021.1.2,Win32,59.95203837,,,,,,,,,,,,,,,,,,,,,,,,,,,,,,,,,,,,,,
,,,up,1,1.855,0,0.99508244,#f3af84,"[""0"",""0.25""]",up_orange.png,up,9,1,37,1,1,,,right,right_blue.png,up_orange.png,up,right,up,5fd43da30be3161b9a3ec2d6,2021-09-11_16h51.49.167,arrow_simon_vert,2021.1.2,Win32,59.95203837,,,,,,,,,,,,,,,,,,,,,,,,,,,,,,,,,,,,,,
,,,left,1,1.573,0,0.937970671,#a3d0fb,"[""-0.25"",""0""]",left_blue.png,left,9,2,38,2,1,,,left,left_blue.png,down_orange.png,down,left,down,5fd43da30be3161b9a3ec2d6,2021-09-11_16h51.49.167,arrow_simon_vert,2021.1.2,Win32,59.95203837,,,,,,,,,,,,,,,,,,,,,,,,,,,,,,,,,,,,,,
,,,up,1,1.685,0,0.762171552,#f3af84,"[""0"",""0.25""]",up_orange.png,up,9,3,39,1,1,,,right,right_blue.png,up_orange.png,up,right,up,5fd43da30be3161b9a3ec2d6,2021-09-11_16h51.49.167,arrow_simon_vert,2021.1.2,Win32,59.95203837,,,,,,,,,,,,,,,,,,,,,,,,,,,,,,,,,,,,,,
,,,right,0,1.25,1,0.467368978,#a3d0fb,"[""0.25"",""0""]",left_blue.png,left,10,0,40,3,1,,,left,left_blue.png,down_orange.png,down,right,up,5fd43da30be3161b9a3ec2d6,2021-09-11_16h51.49.167,arrow_simon_vert,2021.1.2,Win32,59.95203837,,,,,,,,,,,,,,,,,,,,,,,,,,,,,,,,,,,,,,
,,,down,1,2.184,0,0.67468353,#f3af84,"[""0"",""0.25""]",down_orange.png,down,10,1,41,3,1,,,left,left_blue.png,down_orange.png,down,right,up,5fd43da30be3161b9a3ec2d6,2021-09-11_16h51.49.167,arrow_simon_vert,2021.1.2,Win32,59.95203837,,,,,,,,,,,,,,,,,,,,,,,,,,,,,,,,,,,,,,
,,,left,1,1.617,0,0.662777058,#a3d0fb,"[""0.25"",""0""]",left_blue.png,left,10,2,42,3,1,,,left,left_blue.png,down_orange.png,down,right,up,5fd43da30be3161b9a3ec2d6,2021-09-11_16h51.49.167,arrow_simon_vert,2021.1.2,Win32,59.95203837,,,,,,,,,,,,,,,,,,,,,,,,,,,,,,,,,,,,,,
,,,up,1,1.608,0,0.094565332,#f3af84,"[""0"",""-0.25""]",up_orange.png,up,10,3,43,0,1,,,right,right_blue.png,up_orange.png,up,left,down,5fd43da30be3161b9a3ec2d6,2021-09-11_16h51.49.167,arrow_simon_vert,2021.1.2,Win32,59.95203837,,,,,,,,,,,,,,,,,,,,,,,,,,,,,,,,,,,,,,
,,,right,1,1.576,0,0.796427923,#a3d0fb,"[""-0.25"",""0""]",right_blue.png,right,11,0,44,0,1,,,right,right_blue.png,up_orange.png,up,left,down,5fd43da30be3161b9a3ec2d6,2021-09-11_16h51.49.167,arrow_simon_vert,2021.1.2,Win32,59.95203837,,,,,,,,,,,,,,,,,,,,,,,,,,,,,,,,,,,,,,
,,,up,1,1.485,0,0.517152723,#f3af84,"[""0"",""-0.25""]",up_orange.png,up,11,1,45,0,1,,,right,right_blue.png,up_orange.png,up,left,down,5fd43da30be3161b9a3ec2d6,2021-09-11_16h51.49.167,arrow_simon_vert,2021.1.2,Win32,59.95203837,,,,,,,,,,,,,,,,,,,,,,,,,,,,,,,,,,,,,,
,,,left,1,1.606,0,0.902248101,#a3d0fb,"[""0.25"",""0""]",left_blue.png,left,11,2,46,3,1,,,left,left_blue.png,down_orange.png,down,right,up,5fd43da30be3161b9a3ec2d6,2021-09-11_16h51.49.167,arrow_simon_vert,2021.1.2,Win32,59.95203837,,,,,,,,,,,,,,,,,,,,,,,,,,,,,,,,,,,,,,
,,,up,1,2.335,0,0.561429768,#f3af84,"[""0"",""-0.25""]",up_orange.png,up,11,3,47,0,1,,,right,right_blue.png,up_orange.png,up,left,down,5fd43da30be3161b9a3ec2d6,2021-09-11_16h51.49.167,arrow_simon_vert,2021.1.2,Win32,59.95203837,,,,,,,,,,,,,,,,,,,,,,,,,,,,,,,,,,,,,,
,,,left,1,0.664,0,0.003091329,#a3d0fb,"[""-0.25"",""0""]",left_blue.png,left,12,0,48,2,1,,,left,left_blue.png,down_orange.png,down,left,down,5fd43da30be3161b9a3ec2d6,2021-09-11_16h51.49.167,arrow_simon_vert,2021.1.2,Win32,59.95203837,,,,,,,,,,,,,,,,,,,,,,,,,,,,,,,,,,,,,,
,,,up,1,1.29,0,0.789238619,#f3af84,"[""0"",""0.25""]",up_orange.png,up,12,1,49,1,1,,,right,right_blue.png,up_orange.png,up,right,up,5fd43da30be3161b9a3ec2d6,2021-09-11_16h51.49.167,arrow_simon_vert,2021.1.2,Win32,59.95203837,,,,,,,,,,,,,,,,,,,,,,,,,,,,,,,,,,,,,,
,,,right,1,1.441,0,0.887842019,#a3d0fb,"[""0.25"",""0""]",right_blue.png,right,12,2,50,1,1,,,right,right_blue.png,up_orange.png,up,right,up,5fd43da30be3161b9a3ec2d6,2021-09-11_16h51.49.167,arrow_simon_vert,2021.1.2,Win32,59.95203837,,,,,,,,,,,,,,,,,,,,,,,,,,,,,,,,,,,,,,
,,,down,1,0.75,0,0.230424611,#f3af84,"[""0"",""-0.25""]",down_orange.png,down,12,3,51,2,1,,,left,left_blue.png,down_orange.png,down,left,down,5fd43da30be3161b9a3ec2d6,2021-09-11_16h51.49.167,arrow_simon_vert,2021.1.2,Win32,59.95203837,,,,,,,,,,,,,,,,,,,,,,,,,,,,,,,,,,,,,,
,,,left,1,1.043,0,0.506879978,#a3d0fb,"[""-0.25"",""0""]",left_blue.png,left,13,0,52,2,1,,,left,left_blue.png,down_orange.png,down,left,down,5fd43da30be3161b9a3ec2d6,2021-09-11_16h51.49.167,arrow_simon_vert,2021.1.2,Win32,59.95203837,,,,,,,,,,,,,,,,,,,,,,,,,,,,,,,,,,,,,,
,,,up,1,0.75,0,0.158937178,#f3af84,"[""0"",""0.25""]",up_orange.png,up,13,1,53,1,1,,,right,right_blue.png,up_orange.png,up,right,up,5fd43da30be3161b9a3ec2d6,2021-09-11_16h51.49.167,arrow_simon_vert,2021.1.2,Win32,59.95203837,,,,,,,,,,,,,,,,,,,,,,,,,,,,,,,,,,,,,,
,,,right,1,0.796,0,0.074281502,#a3d0fb,"[""-0.25"",""0""]",right_blue.png,right,13,2,54,0,1,,,right,right_blue.png,up_orange.png,up,left,down,5fd43da30be3161b9a3ec2d6,2021-09-11_16h51.49.167,arrow_simon_vert,2021.1.2,Win32,59.95203837,,,,,,,,,,,,,,,,,,,,,,,,,,,,,,,,,,,,,,
,,,up,1,1.875,0,0.957006078,#f3af84,"[""0"",""-0.25""]",up_orange.png,up,13,3,55,0,1,,,right,right_blue.png,up_orange.png,up,left,down,5fd43da30be3161b9a3ec2d6,2021-09-11_16h51.49.167,arrow_simon_vert,2021.1.2,Win32,59.95203837,,,,,,,,,,,,,,,,,,,,,,,,,,,,,,,,,,,,,,
,,,right,1,0.751,0,0.201828444,#a3d0fb,"[""-0.25"",""0""]",right_blue.png,right,14,0,56,0,1,,,right,right_blue.png,up_orange.png,up,left,down,5fd43da30be3161b9a3ec2d6,2021-09-11_16h51.49.167,arrow_simon_vert,2021.1.2,Win32,59.95203837,,,,,,,,,,,,,,,,,,,,,,,,,,,,,,,,,,,,,,
,,,down,1,1.454,0,0.609694956,#f3af84,"[""0"",""-0.25""]",down_orange.png,down,14,1,57,2,1,,,left,left_blue.png,down_orange.png,down,left,down,5fd43da30be3161b9a3ec2d6,2021-09-11_16h51.49.167,arrow_simon_vert,2021.1.2,Win32,59.95203837,,,,,,,,,,,,,,,,,,,,,,,,,,,,,,,,,,,,,,
,,,right,0,1.654,1,0.770948454,#a3d0fb,"[""0.25"",""0""]",left_blue.png,left,14,2,58,3,1,,,left,left_blue.png,down_orange.png,down,right,up,5fd43da30be3161b9a3ec2d6,2021-09-11_16h51.49.167,arrow_simon_vert,2021.1.2,Win32,59.95203837,,,,,,,,,,,,,,,,,,,,,,,,,,,,,,,,,,,,,,
,,,up,1,1.484,0,0.483498706,#f3af84,"[""0"",""-0.25""]",up_orange.png,up,14,3,59,0,1,,,right,right_blue.png,up_orange.png,up,left,down,5fd43da30be3161b9a3ec2d6,2021-09-11_16h51.49.167,arrow_simon_vert,2021.1.2,Win32,59.95203837,,,,,,,,,,,,,,,,,,,,,,,,,,,,,,,,,,,,,,
,,,,,,,,,,,,,,,,,,,,,,,,,5fd43da30be3161b9a3ec2d6,2021-09-11_16h51.49.167,arrow_simon_vert,2021.1.2,Win32,59.95203837,space,23.079,0,0,0,0,1,,,,,,,,,,,,,,,,,,,,,,,,,,,,,,,
,,,right,1,1.496,0,0.363920985,#a3d0fb,"[""0.25"",""0""]",right_blue.png,right,0,0,0,1,1,,,right,right_blue.png,up_orange.png,up,right,up,5fd43da30be3161b9a3ec2d6,2021-09-11_16h51.49.167,arrow_simon_vert,2021.1.2,Win32,59.95203837,,,,,,,,,,,,,,,,,,,,,,,,,,,,,,,,,,,,,,
,,,down,1,1.351,0,0.64278191,#f3af84,"[""0"",""-0.25""]",down_orange.png,down,0,1,1,2,1,,,left,left_blue.png,down_orange.png,down,left,down,5fd43da30be3161b9a3ec2d6,2021-09-11_16h51.49.167,arrow_simon_vert,2021.1.2,Win32,59.95203837,,,,,,,,,,,,,,,,,,,,,,,,,,,,,,,,,,,,,,
,,,left,1,1.435,0,0.478096285,#a3d0fb,"[""-0.25"",""0""]",left_blue.png,left,0,2,2,2,1,,,left,left_blue.png,down_orange.png,down,left,down,5fd43da30be3161b9a3ec2d6,2021-09-11_16h51.49.167,arrow_simon_vert,2021.1.2,Win32,59.95203837,,,,,,,,,,,,,,,,,,,,,,,,,,,,,,,,,,,,,,
,,,down,1,1.718,0,0.876587863,#f3af84,"[""0"",""-0.25""]",down_orange.png,down,0,3,3,2,1,,,left,left_blue.png,down_orange.png,down,left,down,5fd43da30be3161b9a3ec2d6,2021-09-11_16h51.49.167,arrow_simon_vert,2021.1.2,Win32,59.95203837,,,,,,,,,,,,,,,,,,,,,,,,,,,,,,,,,,,,,,
,,,right,1,1.068,0,0.367142656,#a3d0fb,"[""-0.25"",""0""]",right_blue.png,right,1,0,4,0,1,,,right,right_blue.png,up_orange.png,up,left,down,5fd43da30be3161b9a3ec2d6,2021-09-11_16h51.49.167,arrow_simon_vert,2021.1.2,Win32,59.95203837,,,,,,,,,,,,,,,,,,,,,,,,,,,,,,,,,,,,,,
,,,up,1,1.319,0,0.483237122,#f3af84,"[""0"",""-0.25""]",up_orange.png,up,1,1,5,0,1,,,right,right_blue.png,up_orange.png,up,left,down,5fd43da30be3161b9a3ec2d6,2021-09-11_16h51.49.167,arrow_simon_vert,2021.1.2,Win32,59.95203837,,,,,,,,,,,,,,,,,,,,,,,,,,,,,,,,,,,,,,
,,,right,1,1.35,0,0.56926833,#a3d0fb,"[""-0.25"",""0""]",right_blue.png,right,1,2,6,0,1,,,right,right_blue.png,up_orange.png,up,left,down,5fd43da30be3161b9a3ec2d6,2021-09-11_16h51.49.167,arrow_simon_vert,2021.1.2,Win32,59.95203837,,,,,,,,,,,,,,,,,,,,,,,,,,,,,,,,,,,,,,
,,,down,1,1.133,0,0.413542069,#f3af84,"[""0"",""0.25""]",down_orange.png,down,1,3,7,3,1,,,left,left_blue.png,down_orange.png,down,right,up,5fd43da30be3161b9a3ec2d6,2021-09-11_16h51.49.167,arrow_simon_vert,2021.1.2,Win32,59.95203837,,,,,,,,,,,,,,,,,,,,,,,,,,,,,,,,,,,,,,
,,,left,1,1.619,0,0.942590385,#a3d0fb,"[""0.25"",""0""]",left_blue.png,left,2,0,8,3,1,,,left,left_blue.png,down_orange.png,down,right,up,5fd43da30be3161b9a3ec2d6,2021-09-11_16h51.49.167,arrow_simon_vert,2021.1.2,Win32,59.95203837,,,,,,,,,,,,,,,,,,,,,,,,,,,,,,,,,,,,,,
,,,up,1,2.523,0,0.697411312,#f3af84,"[""0"",""0.25""]",up_orange.png,up,2,1,9,1,1,,,right,right_blue.png,up_orange.png,up,right,up,5fd43da30be3161b9a3ec2d6,2021-09-11_16h51.49.167,arrow_simon_vert,2021.1.2,Win32,59.95203837,,,,,,,,,,,,,,,,,,,,,,,,,,,,,,,,,,,,,,
,,,right,1,0.917,0,0.046310796,#a3d0fb,"[""0.25"",""0""]",right_blue.png,right,2,2,10,1,1,,,right,right_blue.png,up_orange.png,up,right,up,5fd43da30be3161b9a3ec2d6,2021-09-11_16h51.49.167,arrow_simon_vert,2021.1.2,Win32,59.95203837,,,,,,,,,,,,,,,,,,,,,,,,,,,,,,,,,,,,,,
,,,down,1,1.752,0,0.982083333,#f3af84,"[""0"",""-0.25""]",down_orange.png,down,2,3,11,2,1,,,left,left_blue.png,down_orange.png,down,left,down,5fd43da30be3161b9a3ec2d6,2021-09-11_16h51.49.167,arrow_simon_vert,2021.1.2,Win32,59.95203837,,,,,,,,,,,,,,,,,,,,,,,,,,,,,,,,,,,,,,
,,,left,1,1.542,0,0.606067673,#a3d0fb,"[""0.25"",""0""]",left_blue.png,left,3,0,12,3,1,,,left,left_blue.png,down_orange.png,down,right,up,5fd43da30be3161b9a3ec2d6,2021-09-11_16h51.49.167,arrow_simon_vert,2021.1.2,Win32,59.95203837,,,,,,,,,,,,,,,,,,,,,,,,,,,,,,,,,,,,,,
,,,up,1,2.483,0,0.480617,#f3af84,"[""0"",""0.25""]",up_orange.png,up,3,1,13,1,1,,,right,right_blue.png,up_orange.png,up,right,up,5fd43da30be3161b9a3ec2d6,2021-09-11_16h51.49.167,arrow_simon_vert,2021.1.2,Win32,59.95203837,,,,,,,,,,,,,,,,,,,,,,,,,,,,,,,,,,,,,,
,,,left,1,1.506,0,0.476250875,#a3d0fb,"[""0.25"",""0""]",left_blue.png,left,3,2,14,3,1,,,left,left_blue.png,down_orange.png,down,right,up,5fd43da30be3161b9a3ec2d6,2021-09-11_16h51.49.167,arrow_simon_vert,2021.1.2,Win32,59.95203837,,,,,,,,,,,,,,,,,,,,,,,,,,,,,,,,,,,,,,
,,,down,1,1.106,0,0.457326643,#f3af84,"[""0"",""-0.25""]",down_orange.png,down,3,3,15,2,1,,,left,left_blue.png,down_orange.png,down,left,down,5fd43da30be3161b9a3ec2d6,2021-09-11_16h51.49.167,arrow_simon_vert,2021.1.2,Win32,59.95203837,,,,,,,,,,,,,,,,,,,,,,,,,,,,,,,,,,,,,,
,,,right,1,1.572,0,0.287549103,#a3d0fb,"[""-0.25"",""0""]",right_blue.png,right,4,0,16,0,1,,,right,right_blue.png,up_orange.png,up,left,down,5fd43da30be3161b9a3ec2d6,2021-09-11_16h51.49.167,arrow_simon_vert,2021.1.2,Win32,59.95203837,,,,,,,,,,,,,,,,,,,,,,,,,,,,,,,,,,,,,,
,,,up,1,1.418,0,0.575455558,#f3af84,"[""0"",""0.25""]",up_orange.png,up,4,1,17,1,1,,,right,right_blue.png,up_orange.png,up,right,up,5fd43da30be3161b9a3ec2d6,2021-09-11_16h51.49.167,arrow_simon_vert,2021.1.2,Win32,59.95203837,,,,,,,,,,,,,,,,,,,,,,,,,,,,,,,,,,,,,,
,,,left,1,1.473,0,0.854776619,#a3d0fb,"[""-0.25"",""0""]",left_blue.png,left,4,2,18,2,1,,,left,left_blue.png,down_orange.png,down,left,down,5fd43da30be3161b9a3ec2d6,2021-09-11_16h51.49.167,arrow_simon_vert,2021.1.2,Win32,59.95203837,,,,,,,,,,,,,,,,,,,,,,,,,,,,,,,,,,,,,,
,,,down,1,0.773,0,0.019056352,#f3af84,"[""0"",""-0.25""]",down_orange.png,down,4,3,19,2,1,,,left,left_blue.png,down_orange.png,down,left,down,5fd43da30be3161b9a3ec2d6,2021-09-11_16h51.49.167,arrow_simon_vert,2021.1.2,Win32,59.95203837,,,,,,,,,,,,,,,,,,,,,,,,,,,,,,,,,,,,,,
,,,left,1,0.769,0,0.079036376,#a3d0fb,"[""-0.25"",""0""]",left_blue.png,left,5,0,20,2,1,,,left,left_blue.png,down_orange.png,down,left,down,5fd43da30be3161b9a3ec2d6,2021-09-11_16h51.49.167,arrow_simon_vert,2021.1.2,Win32,59.95203837,,,,,,,,,,,,,,,,,,,,,,,,,,,,,,,,,,,,,,
,,,up,1,1.606,0,0.474748782,#f3af84,"[""0"",""-0.25""]",up_orange.png,up,5,1,21,0,1,,,right,right_blue.png,up_orange.png,up,left,down,5fd43da30be3161b9a3ec2d6,2021-09-11_16h51.49.167,arrow_simon_vert,2021.1.2,Win32,59.95203837,,,,,,,,,,,,,,,,,,,,,,,,,,,,,,,,,,,,,,
,,,left,1,0.951,0,0.277770856,#a3d0fb,"[""-0.25"",""0""]",left_blue.png,left,5,2,22,2,1,,,left,left_blue.png,down_orange.png,down,left,down,5fd43da30be3161b9a3ec2d6,2021-09-11_16h51.49.167,arrow_simon_vert,2021.1.2,Win32,59.95203837,,,,,,,,,,,,,,,,,,,,,,,,,,,,,,,,,,,,,,
,,,down,1,0.922,0,0.181053795,#f3af84,"[""0"",""0.25""]",down_orange.png,down,5,3,23,3,1,,,left,left_blue.png,down_orange.png,down,right,up,5fd43da30be3161b9a3ec2d6,2021-09-11_16h51.49.167,arrow_simon_vert,2021.1.2,Win32,59.95203837,,,,,,,,,,,,,,,,,,,,,,,,,,,,,,,,,,,,,,
,,,left,1,0.885,0,0.130403806,#a3d0fb,"[""-0.25"",""0""]",left_blue.png,left,6,0,24,2,1,,,left,left_blue.png,down_orange.png,down,left,down,5fd43da30be3161b9a3ec2d6,2021-09-11_16h51.49.167,arrow_simon_vert,2021.1.2,Win32,59.95203837,,,,,,,,,,,,,,,,,,,,,,,,,,,,,,,,,,,,,,
,,,up,1,1.435,0,0.752259314,#f3af84,"[""0"",""0.25""]",up_orange.png,up,6,1,25,1,1,,,right,right_blue.png,up_orange.png,up,right,up,5fd43da30be3161b9a3ec2d6,2021-09-11_16h51.49.167,arrow_simon_vert,2021.1.2,Win32,59.95203837,,,,,,,,,,,,,,,,,,,,,,,,,,,,,,,,,,,,,,
,,,right,1,0.849,0,0.090170877,#a3d0fb,"[""-0.25"",""0""]",right_blue.png,right,6,2,26,0,1,,,right,right_blue.png,up_orange.png,up,left,down,5fd43da30be3161b9a3ec2d6,2021-09-11_16h51.49.167,arrow_simon_vert,2021.1.2,Win32,59.95203837,,,,,,,,,,,,,,,,,,,,,,,,,,,,,,,,,,,,,,
,,,down,1,0.822,0,0.028555868,#f3af84,"[""0"",""0.25""]",down_orange.png,down,6,3,27,3,1,,,left,left_blue.png,down_orange.png,down,right,up,5fd43da30be3161b9a3ec2d6,2021-09-11_16h51.49.167,arrow_simon_vert,2021.1.2,Win32,59.95203837,,,,,,,,,,,,,,,,,,,,,,,,,,,,,,,,,,,,,,
,,,left,1,1.104,0,0.164837977,#a3d0fb,"[""0.25"",""0""]",left_blue.png,left,7,0,28,3,1,,,left,left_blue.png,down_orange.png,down,right,up,5fd43da30be3161b9a3ec2d6,2021-09-11_16h51.49.167,arrow_simon_vert,2021.1.2,Win32,59.95203837,,,,,,,,,,,,,,,,,,,,,,,,,,,,,,,,,,,,,,
,,,down,1,1.532,0,0.21901471,#f3af84,"[""0"",""-0.25""]",down_orange.png,down,7,1,29,2,1,,,left,left_blue.png,down_orange.png,down,left,down,5fd43da30be3161b9a3ec2d6,2021-09-11_16h51.49.167,arrow_simon_vert,2021.1.2,Win32,59.95203837,,,,,,,,,,,,,,,,,,,,,,,,,,,,,,,,,,,,,,
,,,left,1,1.818,0,0.898625087,#a3d0fb,"[""0.25"",""0""]",left_blue.png,left,7,2,30,3,1,,,left,left_blue.png,down_orange.png,down,right,up,5fd43da30be3161b9a3ec2d6,2021-09-11_16h51.49.167,arrow_simon_vert,2021.1.2,Win32,59.95203837,,,,,,,,,,,,,,,,,,,,,,,,,,,,,,,,,,,,,,
,,,down,1,1.404,0,0.606604147,#f3af84,"[""0"",""0.25""]",down_orange.png,down,7,3,31,3,1,,,left,left_blue.png,down_orange.png,down,right,up,5fd43da30be3161b9a3ec2d6,2021-09-11_16h51.49.167,arrow_simon_vert,2021.1.2,Win32,59.95203837,,,,,,,,,,,,,,,,,,,,,,,,,,,,,,,,,,,,,,
,,,right,1,1.97,0,0.95940813,#a3d0fb,"[""-0.25"",""0""]",right_blue.png,right,8,0,32,0,1,,,right,right_blue.png,up_orange.png,up,left,down,5fd43da30be3161b9a3ec2d6,2021-09-11_16h51.49.167,arrow_simon_vert,2021.1.2,Win32,59.95203837,,,,,,,,,,,,,,,,,,,,,,,,,,,,,,,,,,,,,,
,,,up,1,1.391,0,0.374114091,#f3af84,"[""0"",""0.25""]",up_orange.png,up,8,1,33,1,1,,,right,right_blue.png,up_orange.png,up,right,up,5fd43da30be3161b9a3ec2d6,2021-09-11_16h51.49.167,arrow_simon_vert,2021.1.2,Win32,59.95203837,,,,,,,,,,,,,,,,,,,,,,,,,,,,,,,,,,,,,,
,,,right,1,1.554,0,0.91819183,#a3d0fb,"[""0.25"",""0""]",right_blue.png,right,8,2,34,1,1,,,right,right_blue.png,up_orange.png,up,right,up,5fd43da30be3161b9a3ec2d6,2021-09-11_16h51.49.167,arrow_simon_vert,2021.1.2,Win32,59.95203837,,,,,,,,,,,,,,,,,,,,,,,,,,,,,,,,,,,,,,
,,,up,1,0.847,0,0.084306045,#f3af84,"[""0"",""-0.25""]",up_orange.png,up,8,3,35,0,1,,,right,right_blue.png,up_orange.png,up,left,down,5fd43da30be3161b9a3ec2d6,2021-09-11_16h51.49.167,arrow_simon_vert,2021.1.2,Win32,59.95203837,,,,,,,,,,,,,,,,,,,,,,,,,,,,,,,,,,,,,,
,,,left,1,1.211,0,0.386240339,#a3d0fb,"[""0.25"",""0""]",left_blue.png,left,9,0,36,3,1,,,left,left_blue.png,down_orange.png,down,right,up,5fd43da30be3161b9a3ec2d6,2021-09-11_16h51.49.167,arrow_simon_vert,2021.1.2,Win32,59.95203837,,,,,,,,,,,,,,,,,,,,,,,,,,,,,,,,,,,,,,
,,,up,1,3.115,0,0.989511922,#f3af84,"[""0"",""0.25""]",up_orange.png,up,9,1,37,1,1,,,right,right_blue.png,up_orange.png,up,right,up,5fd43da30be3161b9a3ec2d6,2021-09-11_16h51.49.167,arrow_simon_vert,2021.1.2,Win32,59.95203837,,,,,,,,,,,,,,,,,,,,,,,,,,,,,,,,,,,,,,
,,,left,1,1.024,0,0.018082638,#a3d0fb,"[""0.25"",""0""]",left_blue.png,left,9,2,38,3,1,,,left,left_blue.png,down_orange.png,down,right,up,5fd43da30be3161b9a3ec2d6,2021-09-11_16h51.49.167,arrow_simon_vert,2021.1.2,Win32,59.95203837,,,,,,,,,,,,,,,,,,,,,,,,,,,,,,,,,,,,,,
,,,down,1,1.439,0,0.536655681,#f3af84,"[""0"",""-0.25""]",down_orange.png,down,9,3,39,2,1,,,left,left_blue.png,down_orange.png,down,left,down,5fd43da30be3161b9a3ec2d6,2021-09-11_16h51.49.167,arrow_simon_vert,2021.1.2,Win32,59.95203837,,,,,,,,,,,,,,,,,,,,,,,,,,,,,,,,,,,,,,
,,,left,1,1.583,0,0.809250737,#a3d0fb,"[""-0.25"",""0""]",left_blue.png,left,10,0,40,2,1,,,left,left_blue.png,down_orange.png,down,left,down,5fd43da30be3161b9a3ec2d6,2021-09-11_16h51.49.167,arrow_simon_vert,2021.1.2,Win32,59.95203837,,,,,,,,,,,,,,,,,,,,,,,,,,,,,,,,,,,,,,
,,,up,1,1.074,0,0.359650318,#f3af84,"[""0"",""0.25""]",up_orange.png,up,10,1,41,1,1,,,right,right_blue.png,up_orange.png,up,right,up,5fd43da30be3161b9a3ec2d6,2021-09-11_16h51.49.167,arrow_simon_vert,2021.1.2,Win32,59.95203837,,,,,,,,,,,,,,,,,,,,,,,,,,,,,,,,,,,,,,
,,,right,1,1.249,0,0.646184867,#a3d0fb,"[""0.25"",""0""]",right_blue.png,right,10,2,42,1,1,,,right,right_blue.png,up_orange.png,up,right,up,5fd43da30be3161b9a3ec2d6,2021-09-11_16h51.49.167,arrow_simon_vert,2021.1.2,Win32,59.95203837,,,,,,,,,,,,,,,,,,,,,,,,,,,,,,,,,,,,,,
,,,down,1,1.517,0,0.77623246,#f3af84,"[""0"",""0.25""]",down_orange.png,down,10,3,43,3,1,,,left,left_blue.png,down_orange.png,down,right,up,5fd43da30be3161b9a3ec2d6,2021-09-11_16h51.49.167,arrow_simon_vert,2021.1.2,Win32,59.95203837,,,,,,,,,,,,,,,,,,,,,,,,,,,,,,,,,,,,,,
,,,left,1,1.508,0,0.694976678,#a3d0fb,"[""0.25"",""0""]",left_blue.png,left,11,0,44,3,1,,,left,left_blue.png,down_orange.png,down,right,up,5fd43da30be3161b9a3ec2d6,2021-09-11_16h51.49.167,arrow_simon_vert,2021.1.2,Win32,59.95203837,,,,,,,,,,,,,,,,,,,,,,,,,,,,,,,,,,,,,,
,,,up,1,2.134,0,0.125313525,#f3af84,"[""0"",""-0.25""]",up_orange.png,up,11,1,45,0,1,,,right,right_blue.png,up_orange.png,up,left,down,5fd43da30be3161b9a3ec2d6,2021-09-11_16h51.49.167,arrow_simon_vert,2021.1.2,Win32,59.95203837,,,,,,,,,,,,,,,,,,,,,,,,,,,,,,,,,,,,,,
,,,right,1,1.751,0,0.816351696,#a3d0fb,"[""-0.25"",""0""]",right_blue.png,right,11,2,46,0,1,,,right,right_blue.png,up_orange.png,up,left,down,5fd43da30be3161b9a3ec2d6,2021-09-11_16h51.49.167,arrow_simon_vert,2021.1.2,Win32,59.95203837,,,,,,,,,,,,,,,,,,,,,,,,,,,,,,,,,,,,,,
,,,down,1,1.235,0,0.443123134,#f3af84,"[""0"",""0.25""]",down_orange.png,down,11,3,47,3,1,,,left,left_blue.png,down_orange.png,down,right,up,5fd43da30be3161b9a3ec2d6,2021-09-11_16h51.49.167,arrow_simon_vert,2021.1.2,Win32,59.95203837,,,,,,,,,,,,,,,,,,,,,,,,,,,,,,,,,,,,,,
,,,right,1,1.706,0,0.899808955,#a3d0fb,"[""-0.25"",""0""]",right_blue.png,right,12,0,48,0,1,,,right,right_blue.png,up_orange.png,up,left,down,5fd43da30be3161b9a3ec2d6,2021-09-11_16h51.49.167,arrow_simon_vert,2021.1.2,Win32,59.95203837,,,,,,,,,,,,,,,,,,,,,,,,,,,,,,,,,,,,,,
,,,up,1,1.161,0,0.501273579,#f3af84,"[""0"",""0.25""]",up_orange.png,up,12,1,49,1,1,,,right,right_blue.png,up_orange.png,up,right,up,5fd43da30be3161b9a3ec2d6,2021-09-11_16h51.49.167,arrow_simon_vert,2021.1.2,Win32,59.95203837,,,,,,,,,,,,,,,,,,,,,,,,,,,,,,,,,,,,,,
,,,left,1,1.4,0,0.331209319,#a3d0fb,"[""0.25"",""0""]",left_blue.png,left,12,2,50,3,1,,,left,left_blue.png,down_orange.png,down,right,up,5fd43da30be3161b9a3ec2d6,2021-09-11_16h51.49.167,arrow_simon_vert,2021.1.2,Win32,59.95203837,,,,,,,,,,,,,,,,,,,,,,,,,,,,,,,,,,,,,,
,,,up,1,1.534,0,0.912922611,#f3af84,"[""0"",""-0.25""]",up_orange.png,up,12,3,51,0,1,,,right,right_blue.png,up_orange.png,up,left,down,5fd43da30be3161b9a3ec2d6,2021-09-11_16h51.49.167,arrow_simon_vert,2021.1.2,Win32,59.95203837,,,,,,,,,,,,,,,,,,,,,,,,,,,,,,,,,,,,,,
,,,right,1,1.421,0,0.802188025,#a3d0fb,"[""0.25"",""0""]",right_blue.png,right,13,0,52,1,1,,,right,right_blue.png,up_orange.png,up,right,up,5fd43da30be3161b9a3ec2d6,2021-09-11_16h51.49.167,arrow_simon_vert,2021.1.2,Win32,59.95203837,,,,,,,,,,,,,,,,,,,,,,,,,,,,,,,,,,,,,,
,,,up,1,1.433,0,0.795307825,#f3af84,"[""0"",""0.25""]",up_orange.png,up,13,1,53,1,1,,,right,right_blue.png,up_orange.png,up,right,up,5fd43da30be3161b9a3ec2d6,2021-09-11_16h51.49.167,arrow_simon_vert,2021.1.2,Win32,59.95203837,,,,,,,,,,,,,,,,,,,,,,,,,,,,,,,,,,,,,,
,,,right,1,0.771,0,0.171550879,#a3d0fb,"[""-0.25"",""0""]",right_blue.png,right,13,2,54,0,1,,,right,right_blue.png,up_orange.png,up,left,down,5fd43da30be3161b9a3ec2d6,2021-09-11_16h51.49.167,arrow_simon_vert,2021.1.2,Win32,59.95203837,,,,,,,,,,,,,,,,,,,,,,,,,,,,,,,,,,,,,,
,,,down,1,1.408,0,0.522810817,#f3af84,"[""0"",""-0.25""]",down_orange.png,down,13,3,55,2,1,,,left,left_blue.png,down_orange.png,down,left,down,5fd43da30be3161b9a3ec2d6,2021-09-11_16h51.49.167,arrow_simon_vert,2021.1.2,Win32,59.95203837,,,,,,,,,,,,,,,,,,,,,,,,,,,,,,,,,,,,,,
,,,right,1,0.756,0,0.043766203,#a3d0fb,"[""0.25"",""0""]",right_blue.png,right,14,0,56,1,1,,,right,right_blue.png,up_orange.png,up,right,up,5fd43da30be3161b9a3ec2d6,2021-09-11_16h51.49.167,arrow_simon_vert,2021.1.2,Win32,59.95203837,,,,,,,,,,,,,,,,,,,,,,,,,,,,,,,,,,,,,,
,,,down,1,2.187,0,0.481377757,#f3af84,"[""0"",""-0.25""]",down_orange.png,down,14,1,57,2,1,,,left,left_blue.png,down_orange.png,down,left,down,5fd43da30be3161b9a3ec2d6,2021-09-11_16h51.49.167,arrow_simon_vert,2021.1.2,Win32,59.95203837,,,,,,,,,,,,,,,,,,,,,,,,,,,,,,,,,,,,,,
,,,right,1,1.622,0,0.34774562,#a3d0fb,"[""-0.25"",""0""]",right_blue.png,right,14,2,58,0,1,,,right,right_blue.png,up_orange.png,up,left,down,5fd43da30be3161b9a3ec2d6,2021-09-11_16h51.49.167,arrow_simon_vert,2021.1.2,Win32,59.95203837,,,,,,,,,,,,,,,,,,,,,,,,,,,,,,,,,,,,,,
,,,up,1,0.9,0,0.00429035,#f3af84,"[""0"",""-0.25""]",up_orange.png,up,14,3,59,0,1,,,right,right_blue.png,up_orange.png,up,left,down,5fd43da30be3161b9a3ec2d6,2021-09-11_16h51.49.167,arrow_simon_vert,2021.1.2,Win32,59.95203837,,,,,,,,,,,,,,,,,,,,,,,,,,,,,,,,,,,,,,
,,,,,,,,,,,,,,,,,,,,,,,,,5fd43da30be3161b9a3ec2d6,2021-09-11_16h51.49.167,arrow_simon_vert,2021.1.2,Win32,59.95203837,space,6.248,1,0,1,0,1,,,,,,,,,,,,,,,,,,,,,,,,,,,,,,,
,,,,,,,,,,,,,,,,,,,,,,,,,5fd43da30be3161b9a3ec2d6,2021-09-11_16h51.49.167,arrow_simon_vert,2021.1.2,Win32,59.95203837,,,,,,,,space,0,85.747,right,2.962,0,0,0,0,1,,,,,,,,,,,,,,,,,,,,,
,,,,,,,,,,,,,,,,,,,,,,,,,5fd43da30be3161b9a3ec2d6,2021-09-11_16h51.49.167,arrow_simon_vert,2021.1.2,Win32,59.95203837,,,,,,,,,,,left,2.429,1,0,1,0,1,,,,,,,,,,,,,,,,,,,,,
,,,,,,,,,,,,,,,,,,,,,,,,,5fd43da30be3161b9a3ec2d6,2021-09-11_16h51.49.167,arrow_simon_vert,2021.1.2,Win32,59.95203837,,,,,,,,,,,right,2.836,2,0,2,0,1,,,,,,,,,,,,,,,,,,,,,
,,,,,,,,,,,,,,,,,,,,,,,,,5fd43da30be3161b9a3ec2d6,2021-09-11_16h51.49.167,arrow_simon_vert,2021.1.2,Win32,59.95203837,,,,,,,,,,,up,2.341,3,0,3,0,1,,,,,,,,,,,,,,,,,,,,,
,,,,,,,,,,,,,,,,,,,,,,,,,5fd43da30be3161b9a3ec2d6,2021-09-11_16h51.49.167,arrow_simon_vert,2021.1.2,Win32,59.95203837,,,,,,,,,,,left,2.604,4,0,4,0,1,,,,,,,,,,,,,,,,,,,,,
,,,,,,,,,,,,,,,,,,,,,,,,,5fd43da30be3161b9a3ec2d6,2021-09-11_16h51.49.167,arrow_simon_vert,2021.1.2,Win32,59.95203837,,,,,,,,,,,up,2.354,5,0,5,0,1,,,,,,,,,,,,,,,,,,,,,
,,,,,,,,,,,,,,,,,,,,,,,,,5fd43da30be3161b9a3ec2d6,2021-09-11_16h51.49.167,arrow_simon_vert,2021.1.2,Win32,59.95203837,,,,,,,,,,,left,2.817,6,0,6,0,1,,,,,,,,,,,,,,,,,,,,,
,,,,,,,,,,,,,,,,,,,,,,,,,5fd43da30be3161b9a3ec2d6,2021-09-11_16h51.49.167,arrow_simon_vert,2021.1.2,Win32,59.95203837,,,,,,,,,,,up,2.386,7,0,7,0,1,,,,,,,,,,,,,,,,,,,,,
,,,,,,,,,,,,,,,,,,,,,,,,,5fd43da30be3161b9a3ec2d6,2021-09-11_16h51.49.167,arrow_simon_vert,2021.1.2,Win32,59.95203837,,,,,,,,,,,left,2.853,8,0,8,0,1,,,,,,,,,,,,,,,,,,,,,
,,,,,,,,,,,,,,,,,,,,,,,,,5fd43da30be3161b9a3ec2d6,2021-09-11_16h51.49.167,arrow_simon_vert,2021.1.2,Win32,59.95203837,,,,,,,,,,,up,2.778,9,0,9,0,1,,,,,,,,,,,,,,,,,,,,,
,,,,,,,,,,,,,,,,,,,,,,,,,5fd43da30be3161b9a3ec2d6,2021-09-11_16h51.49.167,arrow_simon_vert,2021.1.2,Win32,59.95203837,,,,,,,,,,,left,2.473,10,0,10,0,1,,,,,,,,,,,,,,,,,,,,,
,,,,,,,,,,,,,,,,,,,,,,,,,5fd43da30be3161b9a3ec2d6,2021-09-11_16h51.49.167,arrow_simon_vert,2021.1.2,Win32,59.95203837,,,,,,,,,,,up,2.493,11,0,11,0,1,,,,,,,,,,,,,,,,,,,,,
,,,,,,,,,,,,,,,,,,,,,,,,,5fd43da30be3161b9a3ec2d6,2021-09-11_16h51.49.167,arrow_simon_vert,2021.1.2,Win32,59.95203837,,,,,,,,,,,left,2.574,12,0,12,0,1,,,,,,,,,,,,,,,,,,,,,
,,,,,,,,,,,,,,,,,,,,,,,,,5fd43da30be3161b9a3ec2d6,2021-09-11_16h51.49.167,arrow_simon_vert,2021.1.2,Win32,59.95203837,,,,,,,,,,,up,2.567,13,0,13,0,1,,,,,,,,,,,,,,,,,,,,,
,,,,,,,,,,,,,,,,,,,,,,,,,5fd43da30be3161b9a3ec2d6,2021-09-11_16h51.49.167,arrow_simon_vert,2021.1.2,Win32,59.95203837,,,,,,,,,,,left,2.639,14,0,14,0,1,,,,,,,,,,,,,,,,,,,,,
,,,,,,,,,,,,,,,,,,,,,,,,,5fd43da30be3161b9a3ec2d6,2021-09-11_16h51.49.167,arrow_simon_vert,2021.1.2,Win32,59.95203837,,,,,,,,,,,down,2.749,15,0,15,0,1,,,,,,,,,,,,,,,,,,,,,
,,,,,,,,,,,,,,,,,,,,,,,,,5fd43da30be3161b9a3ec2d6,2021-09-11_16h51.49.167,arrow_simon_vert,2021.1.2,Win32,59.95203837,,,,,,,,,,,right,4.941,16,0,16,0,1,,,,,,,,,,,,,,,,,,,,,
,,,,,,,,,,,,,,,,,,,,,,,,,5fd43da30be3161b9a3ec2d6,2021-09-11_16h51.49.167,arrow_simon_vert,2021.1.2,Win32,59.95203837,,,,,,,,,,,down,2.504,17,0,17,0,1,,,,,,,,,,,,,,,,,,,,,
,,,,,,,,,,,,,,,,,,,,,,,,,5fd43da30be3161b9a3ec2d6,2021-09-11_16h51.49.167,arrow_simon_vert,2021.1.2,Win32,59.95203837,,,,,,,,,,,left,2.508,18,0,18,0,1,,,,,,,,,,,,,,,,,,,,,
,,,,,,,,,,,,,,,,,,,,,,,,,5fd43da30be3161b9a3ec2d6,2021-09-11_16h51.49.167,arrow_simon_vert,2021.1.2,Win32,59.95203837,,,,,,,,,,,down,2.572,19,0,19,0,1,,,,,,,,,,,,,,,,,,,,,
,,,,,,,,,,,,,,,,,,,,,,,,,5fd43da30be3161b9a3ec2d6,2021-09-11_16h51.49.167,arrow_simon_vert,2021.1.2,Win32,59.95203837,,,,,,,,,,,left,2.525,20,0,20,0,1,,,,,,,,,,,,,,,,,,,,,
,,,,,,,,,,,,,,,,,,,,,,,,,5fd43da30be3161b9a3ec2d6,2021-09-11_16h51.49.167,arrow_simon_vert,2021.1.2,Win32,59.95203837,,,,,,,,,,,up,2.619,21,0,21,0,1,,,,,,,,,,,,,,,,,,,,,
,,,,,,,,,,,,,,,,,,,,,,,,,5fd43da30be3161b9a3ec2d6,2021-09-11_16h51.49.167,arrow_simon_vert,2021.1.2,Win32,59.95203837,,,,,,,,,,,left,2.517,22,0,22,0,1,,,,,,,,,,,,,,,,,,,,,
,,,,,,,,,,,,,,,,,,,,,,,,,5fd43da30be3161b9a3ec2d6,2021-09-11_16h51.49.167,arrow_simon_vert,2021.1.2,Win32,59.95203837,,,,,,,,,,,down,2.755,23,0,23,0,1,,,,,,,,,,,,,,,,,,,,,
,,,,,,,,,,,,,,,,,,,,,,,,,5fd43da30be3161b9a3ec2d6,2021-09-11_16h51.49.167,arrow_simon_vert,2021.1.2,Win32,59.95203837,,,,,,,,,,,left,2.605,24,0,24,0,1,,,,,,,,,,,,,,,,,,,,,
,,,,,,,,,,,,,,,,,,,,,,,,,5fd43da30be3161b9a3ec2d6,2021-09-11_16h51.49.167,arrow_simon_vert,2021.1.2,Win32,59.95203837,,,,,,,,,,,up,2.604,25,0,25,0,1,,,,,,,,,,,,,,,,,,,,,
,,,,,,,,,,,,,,,,,,,,,,,,,5fd43da30be3161b9a3ec2d6,2021-09-11_16h51.49.167,arrow_simon_vert,2021.1.2,Win32,59.95203837,,,,,,,,,,,left,2.485,26,0,26,0,1,,,,,,,,,,,,,,,,,,,,,
,,,,,,,,,,,,,,,,,,,,,,,,,5fd43da30be3161b9a3ec2d6,2021-09-11_16h51.49.167,arrow_simon_vert,2021.1.2,Win32,59.95203837,,,,,,,,,,,up,2.465,27,0,27,0,1,,,,,,,,,,,,,,,,,,,,,
,,,,,,,,,,,,,,,,,,,,,,,,,5fd43da30be3161b9a3ec2d6,2021-09-11_16h51.49.167,arrow_simon_vert,2021.1.2,Win32,59.95203837,,,,,,,,,,,left,2.706,28,0,28,0,1,,,,,,,,,,,,,,,,,,,,,
,,,,,,,,,,,,,,,,,,,,,,,,,5fd43da30be3161b9a3ec2d6,2021-09-11_16h51.49.167,arrow_simon_vert,2021.1.2,Win32,59.95203837,,,,,,,,,,,up,2.401,29,0,29,0,1,,,,,,,,,,,,,,,,,,,,,
,,,,,,,,,,,,,,,,,,,,,,,,,5fd43da30be3161b9a3ec2d6,2021-09-11_16h51.49.167,arrow_simon_vert,2021.1.2,Win32,59.95203837,,,,,,,,,,,left,2.568,30,0,30,0,1,,,,,,,,,,,,,,,,,,,,,
,,,,,,,,,,,,,,,,,,,,,,,,,5fd43da30be3161b9a3ec2d6,2021-09-11_16h51.49.167,arrow_simon_vert,2021.1.2,Win32,59.95203837,,,,,,,,,,,up,2.33,31,0,31,0,1,,,,,,,,,,,,,,,,,,,,,
,,,,,,,,,,,,,,,,,,,,,,,,,5fd43da30be3161b9a3ec2d6,2021-09-11_16h51.49.167,arrow_simon_vert,2021.1.2,Win32,59.95203837,,,,,,,,,,,left,2.455,32,0,32,0,1,,,,,,,,,,,,,,,,,,,,,
,,,,,,,,,,,,,,,,,,,,,,,,,5fd43da30be3161b9a3ec2d6,2021-09-11_16h51.49.167,arrow_simon_vert,2021.1.2,Win32,59.95203837,,,,,,,,,,,up,2.418,33,0,33,0,1,,,,,,,,,,,,,,,,,,,,,
,,,,,,,,,,,,,,,,,,,,,,,,,5fd43da30be3161b9a3ec2d6,2021-09-11_16h51.49.167,arrow_simon_vert,2021.1.2,Win32,59.95203837,,,,,,,,,,,left,2.848,34,0,34,0,1,,,,,,,,,,,,,,,,,,,,,
,,,,,,,,,,,,,,,,,,,,,,,,,5fd43da30be3161b9a3ec2d6,2021-09-11_16h51.49.167,arrow_simon_vert,2021.1.2,Win32,59.95203837,,,,,,,,,,,up,2.352,35,0,35,0,1,,,,,,,,,,,,,,,,,,,,,
,,,,,,,,,,,,,,,,,,,,,,,,,5fd43da30be3161b9a3ec2d6,2021-09-11_16h51.49.167,arrow_simon_vert,2021.1.2,Win32,59.95203837,,,,,,,,,,,left,2.467,36,0,36,0,1,,,,,,,,,,,,,,,,,,,,,
,,,,,,,,,,,,,,,,,,,,,,,,,5fd43da30be3161b9a3ec2d6,2021-09-11_16h51.49.167,arrow_simon_vert,2021.1.2,Win32,59.95203837,,,,,,,,,,,up,2.492,37,0,37,0,1,,,,,,,,,,,,,,,,,,,,,
,,,,,,,,,,,,,,,,,,,,,,,,,5fd43da30be3161b9a3ec2d6,2021-09-11_16h51.49.167,arrow_simon_vert,2021.1.2,Win32,59.95203837,,,,,,,,,,,left,2.375,38,0,38,0,1,,,,,,,,,,,,,,,,,,,,,
,,,,,,,,,,,,,,,,,,,,,,,,,5fd43da30be3161b9a3ec2d6,2021-09-11_16h51.49.167,arrow_simon_vert,2021.1.2,Win32,59.95203837,,,,,,,,,,,up,1.934,39,0,39,0,1,,,,,,,,,,,,,,,,,,,,,
,,,,,,,,,,,,,,,,,,,,,,,,,5fd43da30be3161b9a3ec2d6,2021-09-11_16h51.49.167,arrow_simon_vert,2021.1.2,Win32,59.95203837,,,,,,,,,,,left,2.47,40,0,40,0,1,,,,,,,,,,,,,,,,,,,,,
,,,,,,,,,,,,,,,,,,,,,,,,,5fd43da30be3161b9a3ec2d6,2021-09-11_16h51.49.167,arrow_simon_vert,2021.1.2,Win32,59.95203837,,,,,,,,,,,up,2.383,41,0,41,0,1,,,,,,,,,,,,,,,,,,,,,
,,,,,,,,,,,,,,,,,,,,,,,,,5fd43da30be3161b9a3ec2d6,2021-09-11_16h51.49.167,arrow_simon_vert,2021.1.2,Win32,59.95203837,,,,,,,,,,,left,2.085,42,0,42,0,1,,,,,,,,,,,,,,,,,,,,,
,,,,,,,,,,,,,,,,,,,,,,,,,5fd43da30be3161b9a3ec2d6,2021-09-11_16h51.49.167,arrow_simon_vert,2021.1.2,Win32,59.95203837,,,,,,,,,,,up,2.572,43,0,43,0,1,,,,,,,,,,,,,,,,,,,,,
,,,,,,,,,,,,,,,,,,,,,,,,,5fd43da30be3161b9a3ec2d6,2021-09-11_16h51.49.167,arrow_simon_vert,2021.1.2,Win32,59.95203837,,,,,,,,,,,left,2.556,44,0,44,0,1,,,,,,,,,,,,,,,,,,,,,
,,,,,,,,,,,,,,,,,,,,,,,,,5fd43da30be3161b9a3ec2d6,2021-09-11_16h51.49.167,arrow_simon_vert,2021.1.2,Win32,59.95203837,,,,,,,,,,,up,2.569,45,0,45,0,1,,,,,,,,,,,,,,,,,,,,,
,,,,,,,,,,,,,,,,,,,,,,,,,5fd43da30be3161b9a3ec2d6,2021-09-11_16h51.49.167,arrow_simon_vert,2021.1.2,Win32,59.95203837,,,,,,,,,,,left,2.718,46,0,46,0,1,,,,,,,,,,,,,,,,,,,,,
,,,,,,,,,,,,,,,,,,,,,,,,,5fd43da30be3161b9a3ec2d6,2021-09-11_16h51.49.167,arrow_simon_vert,2021.1.2,Win32,59.95203837,,,,,,,,,,,up,2.668,47,0,47,0,1,,,,,,,,,,,,,,,,,,,,,
,,,,,,,,,,,,,,,,,,,,,,,,,5fd43da30be3161b9a3ec2d6,2021-09-11_16h51.49.167,arrow_simon_vert,2021.1.2,Win32,59.95203837,,,,,,,,,,,left,2.603,48,0,48,0,1,,,,,,,,,,,,,,,,,,,,,
,,,,,,,,,,,,,,,,,,,,,,,,,5fd43da30be3161b9a3ec2d6,2021-09-11_16h51.49.167,arrow_simon_vert,2021.1.2,Win32,59.95203837,,,,,,,,,,,up,2.471,49,0,49,0,1,,,,,,,,,,,,,,,,,,,,,
,,,,,,,,,,,,,,,,,,,,,,,,,5fd43da30be3161b9a3ec2d6,2021-09-11_16h51.49.167,arrow_simon_vert,2021.1.2,Win32,59.95203837,,,,,,,,,,,up,2.555,50,0,50,0,1,,,,,,,,,,,,,,,,,,,,,
,,,,,,,,,,,,,,,,,,,,,,,,,5fd43da30be3161b9a3ec2d6,2021-09-11_16h51.49.167,arrow_simon_vert,2021.1.2,Win32,59.95203837,,,,,,,,,,,up,2.553,51,0,51,0,1,,,,,,,,,,,,,,,,,,,,,
,,,,,,,,,,,,,,,,,,,,,,,,,5fd43da30be3161b9a3ec2d6,2021-09-11_16h51.49.167,arrow_simon_vert,2021.1.2,Win32,59.95203837,,,,,,,,,,,left,2.7,52,0,52,0,1,,,,,,,,,,,,,,,,,,,,,
,,,,,,,,,,,,,,,,,,,,,,,,,5fd43da30be3161b9a3ec2d6,2021-09-11_16h51.49.167,arrow_simon_vert,2021.1.2,Win32,59.95203837,,,,,,,,,,,up,2.737,53,0,53,0,1,,,,,,,,,,,,,,,,,,,,,
,,,,,,,,,,,,,,,,,,,,,,,,,5fd43da30be3161b9a3ec2d6,2021-09-11_16h51.49.167,arrow_simon_vert,2021.1.2,Win32,59.95203837,,,,,,,,,,,left,2.455,54,0,54,0,1,,,,,,,,,,,,,,,,,,,,,
,,,,,,,,,,,,,,,,,,,,,,,,,5fd43da30be3161b9a3ec2d6,2021-09-11_16h51.49.167,arrow_simon_vert,2021.1.2,Win32,59.95203837,,,,,,,,,,,up,2.52,55,0,55,0,1,,,,,,,,,,,,,,,,,,,,,
,,,,,,,,,,,,,,,,,,,,,,,,,5fd43da30be3161b9a3ec2d6,2021-09-11_16h51.49.167,arrow_simon_vert,2021.1.2,Win32,59.95203837,,,,,,,,,,,left,2.401,56,0,56,0,1,,,,,,,,,,,,,,,,,,,,,
,,,,,,,,,,,,,,,,,,,,,,,,,5fd43da30be3161b9a3ec2d6,2021-09-11_16h51.49.167,arrow_simon_vert,2021.1.2,Win32,59.95203837,,,,,,,,,,,up,2.625,57,0,57,0,1,,,,,,,,,,,,,,,,,,,,,
,,,,,,,,,,,,,,,,,,,,,,,,,5fd43da30be3161b9a3ec2d6,2021-09-11_16h51.49.167,arrow_simon_vert,2021.1.2,Win32,59.95203837,,,,,,,,,,,left,1.503,58,0,58,0,1,,,,,,,,,,,,,,,,,,,,,
,,,,,,,,,,,,,,,,,,,,,,,,,5fd43da30be3161b9a3ec2d6,2021-09-11_16h51.49.167,arrow_simon_vert,2021.1.2,Win32,59.95203837,,,,,,,,,,,up,2.49,59,0,59,0,1,,,,,,,,,,,,,,,,,,,,,
,,,,,,0,2.213623599,#a3d0fb,"[""0.25"",""0""]",left_blue.png,left,,,,,,,,left,left_blue.png,down_orange.png,down,right,up,5fd43da30be3161b9a3ec2d6,2021-09-11_16h51.49.167,arrow_simon_vert,2021.1.2,Win32,59.95203837,,,,,,,,,,,,,,,,,,space,0,48.704,left,1,1.5,1,FALSE,FALSE,0,0,0,3,1,,,,,,,
,,,,,,0,2.381083383,#f3af84,"[""0"",""-0.25""]",up_orange.png,up,,,,,,,,right,right_blue.png,up_orange.png,up,left,down,5fd43da30be3161b9a3ec2d6,2021-09-11_16h51.49.167,arrow_simon_vert,2021.1.2,Win32,59.95203837,,,,,,,,,,,,,,,,,,,,,down,0,1.769,2,TRUE,FALSE,0,1,1,0,1,,,,,,,
,,,,,,0,2.040467083,#a3d0fb,"[""-0.25"",""0""]",right_blue.png,right,,,,,,,,right,right_blue.png,up_orange.png,up,left,down,5fd43da30be3161b9a3ec2d6,2021-09-11_16h51.49.167,arrow_simon_vert,2021.1.2,Win32,59.95203837,,,,,,,,,,,,,,,,,,,,,up,0,1.609,3,TRUE,FALSE,0,2,2,0,1,,,,,,,
,,,,,,0,1.72067931,#f3af84,"[""0"",""-0.25""]",down_orange.png,down,,,,,,,,left,left_blue.png,down_orange.png,down,left,down,5fd43da30be3161b9a3ec2d6,2021-09-11_16h51.49.167,arrow_simon_vert,2021.1.2,Win32,59.95203837,,,,,,,,,,,,,,,,,,,,,down,1,1.471,4,FALSE,FALSE,0,3,3,2,1,,,,,,,
,,,,,,0,2.451483726,#a3d0fb,"[""0.25"",""0""]",right_blue.png,right,,,,,,,,right,right_blue.png,up_orange.png,up,right,up,5fd43da30be3161b9a3ec2d6,2021-09-11_16h51.49.167,arrow_simon_vert,2021.1.2,Win32,59.95203837,,,,,,,,,,,,,,,,,,,,,right,1,1.823,5,TRUE,FALSE,1,0,4,1,1,,,,,,,
,,,,,,0,2.465989293,#f3af84,"[""0"",""-0.25""]",up_orange.png,up,,,,,,,,right,right_blue.png,up_orange.png,up,left,down,5fd43da30be3161b9a3ec2d6,2021-09-11_16h51.49.167,arrow_simon_vert,2021.1.2,Win32,59.95203837,,,,,,,,,,,,,,,,,,,,,down,0,2.855,6,TRUE,FALSE,1,1,5,0,1,,,,,,,
,,,,,,0,1.811038935,#a3d0fb,"[""-0.25"",""0""]",right_blue.png,right,,,,,,,,right,right_blue.png,up_orange.png,up,left,down,5fd43da30be3161b9a3ec2d6,2021-09-11_16h51.49.167,arrow_simon_vert,2021.1.2,Win32,59.95203837,,,,,,,,,,,,,,,,,,,,,right,1,1.596,7,FALSE,FALSE,1,2,6,0,1,,,,,,,
,,,,,,0,2.471413538,#f3af84,"[""0"",""-0.25""]",up_orange.png,up,,,,,,,,right,right_blue.png,up_orange.png,up,left,down,5fd43da30be3161b9a3ec2d6,2021-09-11_16h51.49.167,arrow_simon_vert,2021.1.2,Win32,59.95203837,,,,,,,,,,,,,,,,,,,,,up,1,2.804,8,TRUE,FALSE,1,3,7,0,1,,,,,,,
,,,,,,0,1.673434693,#a3d0fb,"[""-0.25"",""0""]",left_blue.png,left,,,,,,,,left,left_blue.png,down_orange.png,down,left,down,5fd43da30be3161b9a3ec2d6,2021-09-11_16h51.49.167,arrow_simon_vert,2021.1.2,Win32,59.95203837,,,,,,,,,,,,,,,,,,,,,up,0,1.252,9,FALSE,TRUE,2,0,8,2,1,,,,,,,
,,,,,,0,1.684030947,#f3af84,"[""0"",""0.25""]",up_orange.png,up,,,,,,,,right,right_blue.png,up_orange.png,up,right,up,5fd43da30be3161b9a3ec2d6,2021-09-11_16h51.49.167,arrow_simon_vert,2021.1.2,Win32,59.95203837,,,,,,,,,,,,,,,,,,,,,up,1,1.438,10,FALSE,FALSE,2,1,9,1,1,,,,,,,
,,,,,,0,2.303179844,#a3d0fb,"[""0.25"",""0""]",left_blue.png,left,,,,,,,,left,left_blue.png,down_orange.png,down,right,up,5fd43da30be3161b9a3ec2d6,2021-09-11_16h51.49.167,arrow_simon_vert,2021.1.2,Win32,59.95203837,,,,,,,,,,,,,,,,,,,,,left,1,1.859,11,TRUE,FALSE,2,2,10,3,1,,,,,,,
,,,,,,0,1.781771165,#f3af84,"[""0"",""0.25""]",up_orange.png,up,,,,,,,,right,right_blue.png,up_orange.png,up,right,up,5fd43da30be3161b9a3ec2d6,2021-09-11_16h51.49.167,arrow_simon_vert,2021.1.2,Win32,59.95203837,,,,,,,,,,,,,,,,,,,,,up,1,1.456,12,FALSE,FALSE,2,3,11,1,1,,,,,,,
,,,,,,0,2.138493018,#a3d0fb,"[""-0.25"",""0""]",left_blue.png,left,,,,,,,,left,left_blue.png,down_orange.png,down,left,down,5fd43da30be3161b9a3ec2d6,2021-09-11_16h51.49.167,arrow_simon_vert,2021.1.2,Win32,59.95203837,,,,,,,,,,,,,,,,,,,,,left,1,1.669,13,TRUE,FALSE,3,0,12,2,1,,,,,,,
,,,,,,0,1.87321282,#f3af84,"[""0"",""-0.25""]",up_orange.png,up,,,,,,,,right,right_blue.png,up_orange.png,up,left,down,5fd43da30be3161b9a3ec2d6,2021-09-11_16h51.49.167,arrow_simon_vert,2021.1.2,Win32,59.95203837,,,,,,,,,,,,,,,,,,,,,up,1,1.592,14,FALSE,FALSE,3,1,13,0,1,,,,,,,
,,,,,,1,1.580891641,#a3d0fb,"[""0.25"",""0""]",left_blue.png,left,,,,,,,,left,left_blue.png,down_orange.png,down,right,up,5fd43da30be3161b9a3ec2d6,2021-09-11_16h51.49.167,arrow_simon_vert,2021.1.2,Win32,59.95203837,,,,,,,,,,,,,,,,,,,,,right,0,1.528,15,FALSE,FALSE,3,2,14,3,1,,,,,,,
,,,,,,1,1.879833358,#f3af84,"[""0"",""-0.25""]",down_orange.png,down,,,,,,,,left,left_blue.png,down_orange.png,down,left,down,5fd43da30be3161b9a3ec2d6,2021-09-11_16h51.49.167,arrow_simon_vert,2021.1.2,Win32,59.95203837,,,,,,,,,,,,,,,,,,,,,down,1,2.386,16,TRUE,FALSE,3,3,15,2,1,,,,,,,
,,,,,,0,2.081239119,#a3d0fb,"[""0.25"",""0""]",right_blue.png,right,,,,,,,,right,right_blue.png,up_orange.png,up,right,up,5fd43da30be3161b9a3ec2d6,2021-09-11_16h51.49.167,arrow_simon_vert,2021.1.2,Win32,59.95203837,,,,,,,,,,,,,,,,,,,,,right,1,1.587,17,FALSE,FALSE,4,0,16,1,1,,,,,,,
,,,,,,0,2.285876539,#f3af84,"[""0"",""0.25""]",up_orange.png,up,,,,,,,,right,right_blue.png,up_orange.png,up,right,up,5fd43da30be3161b9a3ec2d6,2021-09-11_16h51.49.167,arrow_simon_vert,2021.1.2,Win32,59.95203837,,,,,,,,,,,,,,,,,,,,,up,1,2.018,18,TRUE,FALSE,4,1,17,1,1,,,,,,,
,,,,,,0,1.692907061,#a3d0fb,"[""0.25"",""0""]",left_blue.png,left,,,,,,,,left,left_blue.png,down_orange.png,down,right,up,5fd43da30be3161b9a3ec2d6,2021-09-11_16h51.49.167,arrow_simon_vert,2021.1.2,Win32,59.95203837,,,,,,,,,,,,,,,,,,,,,left,1,1.453,19,FALSE,FALSE,4,2,18,3,1,,,,,,,
,,,,,,0,1.696743921,#f3af84,"[""0"",""-0.25""]",up_orange.png,up,,,,,,,,right,right_blue.png,up_orange.png,up,left,down,5fd43da30be3161b9a3ec2d6,2021-09-11_16h51.49.167,arrow_simon_vert,2021.1.2,Win32,59.95203837,,,,,,,,,,,,,,,,,,,,,up,1,1.569,20,FALSE,FALSE,4,3,19,0,1,,,,,,,
,,,,,,0,1.626727965,#a3d0fb,"[""-0.25"",""0""]",left_blue.png,left,,,,,,,,left,left_blue.png,down_orange.png,down,left,down,5fd43da30be3161b9a3ec2d6,2021-09-11_16h51.49.167,arrow_simon_vert,2021.1.2,Win32,59.95203837,,,,,,,,,,,,,,,,,,,,,left,1,1.378,21,FALSE,TRUE,5,0,20,2,1,,,,,,,
,,,,,,0,2.092269916,#f3af84,"[""0"",""0.25""]",up_orange.png,up,,,,,,,,right,right_blue.png,up_orange.png,up,right,up,5fd43da30be3161b9a3ec2d6,2021-09-11_16h51.49.167,arrow_simon_vert,2021.1.2,Win32,59.95203837,,,,,,,,,,,,,,,,,,,,,up,1,1.569,22,FALSE,FALSE,5,1,21,1,1,,,,,,,
,,,,,,0,2.215906004,#a3d0fb,"[""-0.25"",""0""]",right_blue.png,right,,,,,,,,right,right_blue.png,up_orange.png,up,left,down,5fd43da30be3161b9a3ec2d6,2021-09-11_16h51.49.167,arrow_simon_vert,2021.1.2,Win32,59.95203837,,,,,,,,,,,,,,,,,,,,,right,1,1.772,23,TRUE,FALSE,5,2,22,0,1,,,,,,,
,,,,,,0,1.904177237,#f3af84,"[""0"",""0.25""]",up_orange.png,up,,,,,,,,right,right_blue.png,up_orange.png,up,right,up,5fd43da30be3161b9a3ec2d6,2021-09-11_16h51.49.167,arrow_simon_vert,2021.1.2,Win32,59.95203837,,,,,,,,,,,,,,,,,,,,,up,1,1.518,24,FALSE,FALSE,5,3,23,1,1,,,,,,,
,,,,,,0,1.777880256,#a3d0fb,"[""0.25"",""0""]",right_blue.png,right,,,,,,,,right,right_blue.png,up_orange.png,up,right,up,5fd43da30be3161b9a3ec2d6,2021-09-11_16h51.49.167,arrow_simon_vert,2021.1.2,Win32,59.95203837,,,,,,,,,,,,,,,,,,,,,right,1,1.454,25,FALSE,FALSE,6,0,24,1,1,,,,,,,
,,,,,,0,2.090023138,#f3af84,"[""0"",""0.25""]",up_orange.png,up,,,,,,,,right,right_blue.png,up_orange.png,up,right,up,5fd43da30be3161b9a3ec2d6,2021-09-11_16h51.49.167,arrow_simon_vert,2021.1.2,Win32,59.95203837,,,,,,,,,,,,,,,,,,,,,up,1,1.571,26,FALSE,FALSE,6,1,25,1,1,,,,,,,
,,,,,,0,2.333047633,#a3d0fb,"[""0.25"",""0""]",left_blue.png,left,,,,,,,,left,left_blue.png,down_orange.png,down,right,up,5fd43da30be3161b9a3ec2d6,2021-09-11_16h51.49.167,arrow_simon_vert,2021.1.2,Win32,59.95203837,,,,,,,,,,,,,,,,,,,,,left,1,2.002,27,TRUE,FALSE,6,2,26,3,1,,,,,,,
,,,,,,0,1.685413647,#f3af84,"[""0"",""0.25""]",up_orange.png,up,,,,,,,,right,right_blue.png,up_orange.png,up,right,up,5fd43da30be3161b9a3ec2d6,2021-09-11_16h51.49.167,arrow_simon_vert,2021.1.2,Win32,59.95203837,,,,,,,,,,,,,,,,,,,,,up,1,1.471,28,FALSE,FALSE,6,3,27,1,1,,,,,,,
,,,,,,0,1.774502442,#a3d0fb,"[""0.25"",""0""]",left_blue.png,left,,,,,,,,left,left_blue.png,down_orange.png,down,right,up,5fd43da30be3161b9a3ec2d6,2021-09-11_16h51.49.167,arrow_simon_vert,2021.1.2,Win32,59.95203837,,,,,,,,,,,,,,,,,,,,,left,1,1.569,29,FALSE,FALSE,7,0,28,3,1,,,,,,,
,,,,,,0,2.006518753,#f3af84,"[""0"",""-0.25""]",down_orange.png,down,,,,,,,,left,left_blue.png,down_orange.png,down,left,down,5fd43da30be3161b9a3ec2d6,2021-09-11_16h51.49.167,arrow_simon_vert,2021.1.2,Win32,59.95203837,,,,,,,,,,,,,,,,,,,,,down,1,1.93,30,TRUE,FALSE,7,1,29,2,1,,,,,,,
,,,,,,0,1.723904535,#a3d0fb,"[""-0.25"",""0""]",right_blue.png,right,,,,,,,,right,right_blue.png,up_orange.png,up,left,down,5fd43da30be3161b9a3ec2d6,2021-09-11_16h51.49.167,arrow_simon_vert,2021.1.2,Win32,59.95203837,,,,,,,,,,,,,,,,,,,,,right,1,1.712,31,TRUE,FALSE,7,2,30,0,1,,,,,,,
,,,,,,0,1.803368839,#f3af84,"[""0"",""-0.25""]",down_orange.png,down,,,,,,,,left,left_blue.png,down_orange.png,down,left,down,5fd43da30be3161b9a3ec2d6,2021-09-11_16h51.49.167,arrow_simon_vert,2021.1.2,Win32,59.95203837,,,,,,,,,,,,,,,,,,,,,down,1,1.585,32,FALSE,FALSE,7,3,31,2,1,,,,,,,
,,,,,,0,1.725746063,#a3d0fb,"[""0.25"",""0""]",left_blue.png,left,,,,,,,,left,left_blue.png,down_orange.png,down,right,up,5fd43da30be3161b9a3ec2d6,2021-09-11_16h51.49.167,arrow_simon_vert,2021.1.2,Win32,59.95203837,,,,,,,,,,,,,,,,,,,,,left,1,1.478,33,FALSE,FALSE,8,0,32,3,1,,,,,,,
,,,,,,0,1.771487898,#f3af84,"[""0"",""-0.25""]",up_orange.png,up,,,,,,,,right,right_blue.png,up_orange.png,up,left,down,5fd43da30be3161b9a3ec2d6,2021-09-11_16h51.49.167,arrow_simon_vert,2021.1.2,Win32,59.95203837,,,,,,,,,,,,,,,,,,,,,up,1,1.511,34,FALSE,FALSE,8,1,33,0,1,,,,,,,
,,,,,,0,2.092589173,#a3d0fb,"[""-0.25"",""0""]",left_blue.png,left,,,,,,,,left,left_blue.png,down_orange.png,down,left,down,5fd43da30be3161b9a3ec2d6,2021-09-11_16h51.49.167,arrow_simon_vert,2021.1.2,Win32,59.95203837,,,,,,,,,,,,,,,,,,,,,left,1,1.82,35,TRUE,FALSE,8,2,34,2,1,,,,,,,
,,,,,,0,1.732688995,#f3af84,"[""0"",""0.25""]",up_orange.png,up,,,,,,,,right,right_blue.png,up_orange.png,up,right,up,5fd43da30be3161b9a3ec2d6,2021-09-11_16h51.49.167,arrow_simon_vert,2021.1.2,Win32,59.95203837,,,,,,,,,,,,,,,,,,,,,up,1,1.425,36,FALSE,FALSE,8,3,35,1,1,,,,,,,
,,,,,,0,1.519330069,#a3d0fb,"[""0.25"",""0""]",left_blue.png,left,,,,,,,,left,left_blue.png,down_orange.png,down,right,up,5fd43da30be3161b9a3ec2d6,2021-09-11_16h51.49.167,arrow_simon_vert,2021.1.2,Win32,59.95203837,,,,,,,,,,,,,,,,,,,,,left,1,1.476,37,FALSE,FALSE,9,0,36,3,1,,,,,,,
,,,,,,0,2.193030647,#f3af84,"[""0"",""-0.25""]",up_orange.png,up,,,,,,,,right,right_blue.png,up_orange.png,up,left,down,5fd43da30be3161b9a3ec2d6,2021-09-11_16h51.49.167,arrow_simon_vert,2021.1.2,Win32,59.95203837,,,,,,,,,,,,,,,,,,,,,up,1,1.963,38,TRUE,FALSE,9,1,37,0,1,,,,,,,
,,,,,,0,2.464346921,#a3d0fb,"[""0.25"",""0""]",right_blue.png,right,,,,,,,,right,right_blue.png,up_orange.png,up,right,up,5fd43da30be3161b9a3ec2d6,2021-09-11_16h51.49.167,arrow_simon_vert,2021.1.2,Win32,59.95203837,,,,,,,,,,,,,,,,,,,,,right,1,2.003,39,TRUE,FALSE,9,2,38,1,1,,,,,,,
,,,,,,0,2.203748994,#f3af84,"[""0"",""-0.25""]",down_orange.png,down,,,,,,,,left,left_blue.png,down_orange.png,down,left,down,5fd43da30be3161b9a3ec2d6,2021-09-11_16h51.49.167,arrow_simon_vert,2021.1.2,Win32,59.95203837,,,,,,,,,,,,,,,,,,,,,up,0,1.937,40,TRUE,FALSE,9,3,39,2,1,,,,,,,
,,,,,,0,1.960570216,#a3d0fb,"[""0.25"",""0""]",right_blue.png,right,,,,,,,,right,right_blue.png,up_orange.png,up,right,up,5fd43da30be3161b9a3ec2d6,2021-09-11_16h51.49.167,arrow_simon_vert,2021.1.2,Win32,59.95203837,,,,,,,,,,,,,,,,,,,,,right,1,1.669,41,TRUE,FALSE,10,0,40,1,1,,,,,,,
,,,,,,0,2.402869911,#f3af84,"[""0"",""0.25""]",up_orange.png,up,,,,,,,,right,right_blue.png,up_orange.png,up,right,up,5fd43da30be3161b9a3ec2d6,2021-09-11_16h51.49.167,arrow_simon_vert,2021.1.2,Win32,59.95203837,,,,,,,,,,,,,,,,,,,,,up,1,2.002,42,TRUE,FALSE,10,1,41,1,1,,,,,,,
,,,,,,0,1.53212723,#a3d0fb,"[""-0.25"",""0""]",left_blue.png,left,,,,,,,,left,left_blue.png,down_orange.png,down,left,down,5fd43da30be3161b9a3ec2d6,2021-09-11_16h51.49.167,arrow_simon_vert,2021.1.2,Win32,59.95203837,,,,,,,,,,,,,,,,,,,,,left,1,1.469,43,FALSE,FALSE,10,2,42,2,1,,,,,,,
,,,,,,0,1.811753017,#f3af84,"[""0"",""-0.25""]",up_orange.png,up,,,,,,,,right,right_blue.png,up_orange.png,up,left,down,5fd43da30be3161b9a3ec2d6,2021-09-11_16h51.49.167,arrow_simon_vert,2021.1.2,Win32,59.95203837,,,,,,,,,,,,,,,,,,,,,up,1,1.61,44,TRUE,FALSE,10,3,43,0,1,,,,,,,
,,,,,,0,2.480092729,#a3d0fb,"[""-0.25"",""0""]",left_blue.png,left,,,,,,,,left,left_blue.png,down_orange.png,down,left,down,5fd43da30be3161b9a3ec2d6,2021-09-11_16h51.49.167,arrow_simon_vert,2021.1.2,Win32,59.95203837,,,,,,,,,,,,,,,,,,,,,left,1,2.027,45,TRUE,FALSE,11,0,44,2,1,,,,,,,
,,,,,,0,2.232092633,#f3af84,"[""0"",""0.25""]",down_orange.png,down,,,,,,,,left,left_blue.png,down_orange.png,down,right,up,5fd43da30be3161b9a3ec2d6,2021-09-11_16h51.49.167,arrow_simon_vert,2021.1.2,Win32,59.95203837,,,,,,,,,,,,,,,,,,,,,down,1,2.147,46,TRUE,FALSE,11,1,45,3,1,,,,,,,
,,,,,,0,2.265091442,#a3d0fb,"[""0.25"",""0""]",right_blue.png,right,,,,,,,,right,right_blue.png,up_orange.png,up,right,up,5fd43da30be3161b9a3ec2d6,2021-09-11_16h51.49.167,arrow_simon_vert,2021.1.2,Win32,59.95203837,,,,,,,,,,,,,,,,,,,,,right,1,1.811,47,TRUE,FALSE,11,2,46,1,1,,,,,,,
,,,,,,0,1.685101229,#f3af84,"[""0"",""-0.25""]",down_orange.png,down,,,,,,,,left,left_blue.png,down_orange.png,down,left,down,5fd43da30be3161b9a3ec2d6,2021-09-11_16h51.49.167,arrow_simon_vert,2021.1.2,Win32,59.95203837,,,,,,,,,,,,,,,,,,,,,down,1,1.401,48,FALSE,FALSE,11,3,47,2,1,,,,,,,
,,,,,,0,2.038156667,#a3d0fb,"[""0.25"",""0""]",left_blue.png,left,,,,,,,,left,left_blue.png,down_orange.png,down,right,up,5fd43da30be3161b9a3ec2d6,2021-09-11_16h51.49.167,arrow_simon_vert,2021.1.2,Win32,59.95203837,,,,,,,,,,,,,,,,,,,,,left,1,1.868,49,TRUE,FALSE,12,0,48,3,1,,,,,,,
,,,,,,0,2.327159406,#f3af84,"[""0"",""0.25""]",down_orange.png,down,,,,,,,,left,left_blue.png,down_orange.png,down,right,up,5fd43da30be3161b9a3ec2d6,2021-09-11_16h51.49.167,arrow_simon_vert,2021.1.2,Win32,59.95203837,,,,,,,,,,,,,,,,,,,,,up,0,2.115,50,TRUE,FALSE,12,1,49,3,1,,,,,,,
,,,,,,0,2.180322264,#a3d0fb,"[""-0.25"",""0""]",left_blue.png,left,,,,,,,,left,left_blue.png,down_orange.png,down,left,down,5fd43da30be3161b9a3ec2d6,2021-09-11_16h51.49.167,arrow_simon_vert,2021.1.2,Win32,59.95203837,,,,,,,,,,,,,,,,,,,,,left,1,1.77,51,TRUE,FALSE,12,2,50,2,1,,,,,,,
,,,,,,0,1.798724744,#f3af84,"[""0"",""-0.25""]",up_orange.png,up,,,,,,,,right,right_blue.png,up_orange.png,up,left,down,5fd43da30be3161b9a3ec2d6,2021-09-11_16h51.49.167,arrow_simon_vert,2021.1.2,Win32,59.95203837,,,,,,,,,,,,,,,,,,,,,up,1,1.725,52,TRUE,FALSE,12,3,51,0,1,,,,,,,
,,,,,,0,2.161991613,#a3d0fb,"[""-0.25"",""0""]",left_blue.png,left,,,,,,,,left,left_blue.png,down_orange.png,down,left,down,5fd43da30be3161b9a3ec2d6,2021-09-11_16h51.49.167,arrow_simon_vert,2021.1.2,Win32,59.95203837,,,,,,,,,,,,,,,,,,,,,left,1,2.358,53,TRUE,FALSE,13,0,52,2,1,,,,,,,
,,,,,,0,1.558863761,#f3af84,"[""0"",""-0.25""]",down_orange.png,down,,,,,,,,left,left_blue.png,down_orange.png,down,left,down,5fd43da30be3161b9a3ec2d6,2021-09-11_16h51.49.167,arrow_simon_vert,2021.1.2,Win32,59.95203837,,,,,,,,,,,,,,,,,,,,,down,1,1.402,54,FALSE,FALSE,13,1,53,2,1,,,,,,,
,,,,,,0,1.870234705,#a3d0fb,"[""0.25"",""0""]",left_blue.png,left,,,,,,,,left,left_blue.png,down_orange.png,down,right,up,5fd43da30be3161b9a3ec2d6,2021-09-11_16h51.49.167,arrow_simon_vert,2021.1.2,Win32,59.95203837,,,,,,,,,,,,,,,,,,,,,left,1,1.742,55,TRUE,FALSE,13,2,54,3,1,,,,,,,
,,,,,,0,2.480516743,#f3af84,"[""0"",""0.25""]",down_orange.png,down,,,,,,,,left,left_blue.png,down_orange.png,down,right,up,5fd43da30be3161b9a3ec2d6,2021-09-11_16h51.49.167,arrow_simon_vert,2021.1.2,Win32,59.95203837,,,,,,,,,,,,,,,,,,,,,down,1,2.706,56,TRUE,FALSE,13,3,55,3,1,,,,,,,
,,,,,,0,1.920687487,#a3d0fb,"[""0.25"",""0""]",left_blue.png,left,,,,,,,,left,left_blue.png,down_orange.png,down,right,up,5fd43da30be3161b9a3ec2d6,2021-09-11_16h51.49.167,arrow_simon_vert,2021.1.2,Win32,59.95203837,,,,,,,,,,,,,,,,,,,,,left,1,1.862,57,TRUE,FALSE,14,0,56,3,1,,,,,,,
,,,,,,0,2.419310349,#f3af84,"[""0"",""-0.25""]",up_orange.png,up,,,,,,,,right,right_blue.png,up_orange.png,up,left,down,5fd43da30be3161b9a3ec2d6,2021-09-11_16h51.49.167,arrow_simon_vert,2021.1.2,Win32,59.95203837,,,,,,,,,,,,,,,,,,,,,up,1,2.118,58,TRUE,FALSE,14,1,57,0,1,,,,,,,
,,,,,,0,2.232523276,#a3d0fb,"[""0.25"",""0""]",left_blue.png,left,,,,,,,,left,left_blue.png,down_orange.png,down,right,up,5fd43da30be3161b9a3ec2d6,2021-09-11_16h51.49.167,arrow_simon_vert,2021.1.2,Win32,59.95203837,,,,,,,,,,,,,,,,,,,,,left,1,1.791,59,TRUE,FALSE,14,2,58,3,1,,,,,,,
,,,,,,0,1.71415326,#f3af84,"[""0"",""-0.25""]",up_orange.png,up,,,,,,,,right,right_blue.png,up_orange.png,up,left,down,5fd43da30be3161b9a3ec2d6,2021-09-11_16h51.49.167,arrow_simon_vert,2021.1.2,Win32,59.95203837,,,,,,,,,,,,,,,,,,,,,up,1,1.506,60,FALSE,FALSE,14,3,59,0,1,,,,,,,
,,,,,,,,,,,,,,,,,,,,,,,,,5fd43da30be3161b9a3ec2d6,2021-09-11_16h51.49.167,arrow_simon_vert,2021.1.2,Win32,59.95203837,,,,,,,,,,,,,,,,,,,,,,,,,,,,,,,,space,26.604,0,0,0,0,1
,,,,,,0,2.128349799,#a3d0fb,"[""-0.25"",""0""]",left_blue.png,left,,,,,,,,left,left_blue.png,down_orange.png,down,left,down,5fd43da30be3161b9a3ec2d6,2021-09-11_16h51.49.167,arrow_simon_vert,2021.1.2,Win32,59.95203837,,,,,,,,,,,,,,,,,,,,,left,1,1.702,1,TRUE,FALSE,0,0,0,2,1,,,,,,,
,,,,,,0,2.483865673,#f3af84,"[""0"",""-0.25""]",up_orange.png,up,,,,,,,,right,right_blue.png,up_orange.png,up,left,down,5fd43da30be3161b9a3ec2d6,2021-09-11_16h51.49.167,arrow_simon_vert,2021.1.2,Win32,59.95203837,,,,,,,,,,,,,,,,,,,,,up,1,2.12,2,TRUE,FALSE,0,1,1,0,1,,,,,,,
,,,,,,0,2.389942956,#a3d0fb,"[""-0.25"",""0""]",right_blue.png,right,,,,,,,,right,right_blue.png,up_orange.png,up,left,down,5fd43da30be3161b9a3ec2d6,2021-09-11_16h51.49.167,arrow_simon_vert,2021.1.2,Win32,59.95203837,,,,,,,,,,,,,,,,,,,,,right,1,1.924,3,TRUE,FALSE,0,2,2,0,1,,,,,,,
,,,,,,0,1.744368565,#f3af84,"[""0"",""-0.25""]",down_orange.png,down,,,,,,,,left,left_blue.png,down_orange.png,down,left,down,5fd43da30be3161b9a3ec2d6,2021-09-11_16h51.49.167,arrow_simon_vert,2021.1.2,Win32,59.95203837,,,,,,,,,,,,,,,,,,,,,down,1,1.61,4,TRUE,FALSE,0,3,3,2,1,,,,,,,
,,,,,,0,2.258052714,#a3d0fb,"[""-0.25"",""0""]",right_blue.png,right,,,,,,,,right,right_blue.png,up_orange.png,up,left,down,5fd43da30be3161b9a3ec2d6,2021-09-11_16h51.49.167,arrow_simon_vert,2021.1.2,Win32,59.95203837,,,,,,,,,,,,,,,,,,,,,right,1,1.788,5,TRUE,FALSE,1,0,4,0,1,,,,,,,
,,,,,,0,1.708300248,#f3af84,"[""0"",""0.25""]",down_orange.png,down,,,,,,,,left,left_blue.png,down_orange.png,down,right,up,5fd43da30be3161b9a3ec2d6,2021-09-11_16h51.49.167,arrow_simon_vert,2021.1.2,Win32,59.95203837,,,,,,,,,,,,,,,,,,,,,down,1,1.586,6,FALSE,FALSE,1,1,5,3,1,,,,,,,
,,,,,,0,2.127554539,#a3d0fb,"[""0.25"",""0""]",right_blue.png,right,,,,,,,,right,right_blue.png,up_orange.png,up,right,up,5fd43da30be3161b9a3ec2d6,2021-09-11_16h51.49.167,arrow_simon_vert,2021.1.2,Win32,59.95203837,,,,,,,,,,,,,,,,,,,,,right,1,1.605,7,TRUE,FALSE,1,2,6,1,1,,,,,,,
,,,,,,0,2.024359031,#f3af84,"[""0"",""-0.25""]",down_orange.png,down,,,,,,,,left,left_blue.png,down_orange.png,down,left,down,5fd43da30be3161b9a3ec2d6,2021-09-11_16h51.49.167,arrow_simon_vert,2021.1.2,Win32,59.95203837,,,,,,,,,,,,,,,,,,,,,down,1,2.311,8,TRUE,FALSE,1,3,7,2,1,,,,,,,
,,,,,,0,1.539215349,#a3d0fb,"[""0.25"",""0""]",left_blue.png,left,,,,,,,,left,left_blue.png,down_orange.png,down,right,up,5fd43da30be3161b9a3ec2d6,2021-09-11_16h51.49.167,arrow_simon_vert,2021.1.2,Win32,59.95203837,,,,,,,,,,,,,,,,,,,,,left,1,1.723,9,TRUE,FALSE,2,0,8,3,1,,,,,,,
,,,,,,0,1.827086125,#f3af84,"[""0"",""0.25""]",down_orange.png,down,,,,,,,,left,left_blue.png,down_orange.png,down,right,up,5fd43da30be3161b9a3ec2d6,2021-09-11_16h51.49.167,arrow_simon_vert,2021.1.2,Win32,59.95203837,,,,,,,,,,,,,,,,,,,,,down,1,1.629,10,TRUE,FALSE,2,1,9,3,1,,,,,,,
,,,,,,0,2.102342898,#a3d0fb,"[""0.25"",""0""]",right_blue.png,right,,,,,,,,right,right_blue.png,up_orange.png,up,right,up,5fd43da30be3161b9a3ec2d6,2021-09-11_16h51.49.167,arrow_simon_vert,2021.1.2,Win32,59.95203837,,,,,,,,,,,,,,,,,,,,,right,1,1.652,11,TRUE,FALSE,2,2,10,1,1,,,,,,,
,,,,,,0,2.087802832,#f3af84,"[""0"",""-0.25""]",down_orange.png,down,,,,,,,,left,left_blue.png,down_orange.png,down,left,down,5fd43da30be3161b9a3ec2d6,2021-09-11_16h51.49.167,arrow_simon_vert,2021.1.2,Win32,59.95203837,,,,,,,,,,,,,,,,,,,,,down,1,2.304,12,TRUE,FALSE,2,3,11,2,1,,,,,,,
,,,,,,0,1.672554803,#a3d0fb,"[""0.25"",""0""]",right_blue.png,right,,,,,,,,right,right_blue.png,up_orange.png,up,right,up,5fd43da30be3161b9a3ec2d6,2021-09-11_16h51.49.167,arrow_simon_vert,2021.1.2,Win32,59.95203837,,,,,,,,,,,,,,,,,,,,,right,1,1.419,13,FALSE,FALSE,3,0,12,1,1,,,,,,,
,,,,,,0,1.947353577,#f3af84,"[""0"",""0.25""]",up_orange.png,up,,,,,,,,right,right_blue.png,up_orange.png,up,right,up,5fd43da30be3161b9a3ec2d6,2021-09-11_16h51.49.167,arrow_simon_vert,2021.1.2,Win32,59.95203837,,,,,,,,,,,,,,,,,,,,,up,1,1.547,14,FALSE,FALSE,3,1,13,1,1,,,,,,,
,,,,,,0,1.557016511,#a3d0fb,"[""0.25"",""0""]",right_blue.png,right,,,,,,,,right,right_blue.png,up_orange.png,up,right,up,5fd43da30be3161b9a3ec2d6,2021-09-11_16h51.49.167,arrow_simon_vert,2021.1.2,Win32,59.95203837,,,,,,,,,,,,,,,,,,,,,right,1,1.26,15,FALSE,TRUE,3,2,14,1,1,,,,,,,
,,,,,,0,2.204417653,#f3af84,"[""0"",""0.25""]",up_orange.png,up,,,,,,,,right,right_blue.png,up_orange.png,up,right,up,5fd43da30be3161b9a3ec2d6,2021-09-11_16h51.49.167,arrow_simon_vert,2021.1.2,Win32,59.95203837,,,,,,,,,,,,,,,,,,,,,up,1,1.676,16,TRUE,FALSE,3,3,15,1,1,,,,,,,
,,,,,,0,2.41149727,#a3d0fb,"[""0.25"",""0""]",left_blue.png,left,,,,,,,,left,left_blue.png,down_orange.png,down,right,up,5fd43da30be3161b9a3ec2d6,2021-09-11_16h51.49.167,arrow_simon_vert,2021.1.2,Win32,59.95203837,,,,,,,,,,,,,,,,,,,,,left,1,2.055,17,TRUE,FALSE,4,0,16,3,1,,,,,,,
,,,,,,1,1.818664929,#f3af84,"[""0"",""0.25""]",up_orange.png,up,,,,,,,,right,right_blue.png,up_orange.png,up,right,up,5fd43da30be3161b9a3ec2d6,2021-09-11_16h51.49.167,arrow_simon_vert,2021.1.2,Win32,59.95203837,,,,,,,,,,,,,,,,,,,,,down,0,1.444,18,FALSE,FALSE,4,1,17,1,1,,,,,,,
,,,,,,1,2.160109204,#a3d0fb,"[""0.25"",""0""]",left_blue.png,left,,,,,,,,left,left_blue.png,down_orange.png,down,right,up,5fd43da30be3161b9a3ec2d6,2021-09-11_16h51.49.167,arrow_simon_vert,2021.1.2,Win32,59.95203837,,,,,,,,,,,,,,,,,,,,,left,1,1.752,19,TRUE,FALSE,4,2,18,3,1,,,,,,,
,,,,,,0,1.690284088,#f3af84,"[""0"",""-0.25""]",down_orange.png,down,,,,,,,,left,left_blue.png,down_orange.png,down,left,down,5fd43da30be3161b9a3ec2d6,2021-09-11_16h51.49.167,arrow_simon_vert,2021.1.2,Win32,59.95203837,,,,,,,,,,,,,,,,,,,,,down,1,1.525,20,FALSE,FALSE,4,3,19,2,1,,,,,,,
,,,,,,0,2.407552965,#a3d0fb,"[""0.25"",""0""]",left_blue.png,left,,,,,,,,left,left_blue.png,down_orange.png,down,right,up,5fd43da30be3161b9a3ec2d6,2021-09-11_16h51.49.167,arrow_simon_vert,2021.1.2,Win32,59.95203837,,,,,,,,,,,,,,,,,,,,,right,0,1.808,21,TRUE,FALSE,5,0,20,3,1,,,,,,,
,,,,,,0,2.485604613,#f3af84,"[""0"",""-0.25""]",up_orange.png,up,,,,,,,,right,right_blue.png,up_orange.png,up,left,down,5fd43da30be3161b9a3ec2d6,2021-09-11_16h51.49.167,arrow_simon_vert,2021.1.2,Win32,59.95203837,,,,,,,,,,,,,,,,,,,,,up,1,2.059,22,TRUE,FALSE,5,1,21,0,1,,,,,,,
,,,,,,0,2.015549579,#a3d0fb,"[""0.25"",""0""]",left_blue.png,left,,,,,,,,left,left_blue.png,down_orange.png,down,right,up,5fd43da30be3161b9a3ec2d6,2021-09-11_16h51.49.167,arrow_simon_vert,2021.1.2,Win32,59.95203837,,,,,,,,,,,,,,,,,,,,,left,1,1.503,23,FALSE,FALSE,5,2,22,3,1,,,,,,,
,,,,,,1,2.014384307,#f3af84,"[""0"",""-0.25""]",up_orange.png,up,,,,,,,,right,right_blue.png,up_orange.png,up,left,down,5fd43da30be3161b9a3ec2d6,2021-09-11_16h51.49.167,arrow_simon_vert,2021.1.2,Win32,59.95203837,,,,,,,,,,,,,,,,,,,,,down,0,1.534,24,FALSE,FALSE,5,3,23,0,1,,,,,,,
,,,,,,1,1.801599425,#a3d0fb,"[""-0.25"",""0""]",right_blue.png,right,,,,,,,,right,right_blue.png,up_orange.png,up,left,down,5fd43da30be3161b9a3ec2d6,2021-09-11_16h51.49.167,arrow_simon_vert,2021.1.2,Win32,59.95203837,,,,,,,,,,,,,,,,,,,,,right,1,1.606,25,TRUE,FALSE,6,0,24,0,1,,,,,,,
,,,,,,1,2.125075368,#f3af84,"[""0"",""-0.25""]",down_orange.png,down,,,,,,,,left,left_blue.png,down_orange.png,down,left,down,5fd43da30be3161b9a3ec2d6,2021-09-11_16h51.49.167,arrow_simon_vert,2021.1.2,Win32,59.95203837,,,,,,,,,,,,,,,,,,,,,down,1,1.838,26,TRUE,FALSE,6,1,25,2,1,,,,,,,
,,,,,,1,1.884145178,#a3d0fb,"[""0.25"",""0""]",right_blue.png,right,,,,,,,,right,right_blue.png,up_orange.png,up,right,up,5fd43da30be3161b9a3ec2d6,2021-09-11_16h51.49.167,arrow_simon_vert,2021.1.2,Win32,59.95203837,,,,,,,,,,,,,,,,,,,,,right,1,1.703,27,TRUE,FALSE,6,2,26,1,1,,,,,,,
,,,,,,1,2.124080671,#f3af84,"[""0"",""-0.25""]",up_orange.png,up,,,,,,,,right,right_blue.png,up_orange.png,up,left,down,5fd43da30be3161b9a3ec2d6,2021-09-11_16h51.49.167,arrow_simon_vert,2021.1.2,Win32,59.95203837,,,,,,,,,,,,,,,,,,,,,down,0,1.668,28,TRUE,FALSE,6,3,27,0,1,,,,,,,
,,,,,,1,1.913792999,#a3d0fb,"[""-0.25"",""0""]",right_blue.png,right,,,,,,,,right,right_blue.png,up_orange.png,up,left,down,5fd43da30be3161b9a3ec2d6,2021-09-11_16h51.49.167,arrow_simon_vert,2021.1.2,Win32,59.95203837,,,,,,,,,,,,,,,,,,,,,left,0,1.641,29,TRUE,FALSE,7,0,28,0,1,,,,,,,
,,,,,,1,2.434713798,#f3af84,"[""0"",""-0.25""]",up_orange.png,up,,,,,,,,right,right_blue.png,up_orange.png,up,left,down,5fd43da30be3161b9a3ec2d6,2021-09-11_16h51.49.167,arrow_simon_vert,2021.1.2,Win32,59.95203837,,,,,,,,,,,,,,,,,,,,,up,1,2.045,30,TRUE,FALSE,7,1,29,0,1,,,,,,,
,,,,,,0,1.95129462,#a3d0fb,"[""-0.25"",""0""]",left_blue.png,left,,,,,,,,left,left_blue.png,down_orange.png,down,left,down,5fd43da30be3161b9a3ec2d6,2021-09-11_16h51.49.167,arrow_simon_vert,2021.1.2,Win32,59.95203837,,,,,,,,,,,,,,,,,,,,,left,1,1.473,31,FALSE,FALSE,7,2,30,2,1,,,,,,,
,,,,,,0,1.520239501,#f3af84,"[""0"",""0.25""]",up_orange.png,up,,,,,,,,right,right_blue.png,up_orange.png,up,right,up,5fd43da30be3161b9a3ec2d6,2021-09-11_16h51.49.167,arrow_simon_vert,2021.1.2,Win32,59.95203837,,,,,,,,,,,,,,,,,,,,,up,1,1.306,32,FALSE,TRUE,7,3,31,1,1,,,,,,,
,,,,,,1,2.325720818,#a3d0fb,"[""-0.25"",""0""]",left_blue.png,left,,,,,,,,left,left_blue.png,down_orange.png,down,left,down,5fd43da30be3161b9a3ec2d6,2021-09-11_16h51.49.167,arrow_simon_vert,2021.1.2,Win32,59.95203837,,,,,,,,,,,,,,,,,,,,,right,0,1.565,33,FALSE,FALSE,8,0,32,2,1,,,,,,,
,,,,,,1,2.308600735,#f3af84,"[""0"",""-0.25""]",up_orange.png,up,,,,,,,,right,right_blue.png,up_orange.png,up,left,down,5fd43da30be3161b9a3ec2d6,2021-09-11_16h51.49.167,arrow_simon_vert,2021.1.2,Win32,59.95203837,,,,,,,,,,,,,,,,,,,,,down,0,1.384,34,FALSE,TRUE,8,1,33,0,1,,,,,,,
,,,,,,1,1.850680107,#a3d0fb,"[""-0.25"",""0""]",right_blue.png,right,,,,,,,,right,right_blue.png,up_orange.png,up,left,down,5fd43da30be3161b9a3ec2d6,2021-09-11_16h51.49.167,arrow_simon_vert,2021.1.2,Win32,59.95203837,,,,,,,,,,,,,,,,,,,,,left,0,1.685,35,TRUE,FALSE,8,2,34,0,1,,,,,,,
,,,,,,0,1.804210671,#f3af84,"[""0"",""-0.25""]",up_orange.png,up,,,,,,,,right,right_blue.png,up_orange.png,up,left,down,5fd43da30be3161b9a3ec2d6,2021-09-11_16h51.49.167,arrow_simon_vert,2021.1.2,Win32,59.95203837,,,,,,,,,,,,,,,,,,,,,up,1,1.446,36,FALSE,FALSE,8,3,35,0,1,,,,,,,
,,,,,,0,2.304615963,#a3d0fb,"[""0.25"",""0""]",right_blue.png,right,,,,,,,,right,right_blue.png,up_orange.png,up,right,up,5fd43da30be3161b9a3ec2d6,2021-09-11_16h51.49.167,arrow_simon_vert,2021.1.2,Win32,59.95203837,,,,,,,,,,,,,,,,,,,,,right,1,1.674,37,TRUE,FALSE,9,0,36,1,1,,,,,,,
,,,,,,0,2.455578186,#f3af84,"[""0"",""-0.25""]",down_orange.png,down,,,,,,,,left,left_blue.png,down_orange.png,down,left,down,5fd43da30be3161b9a3ec2d6,2021-09-11_16h51.49.167,arrow_simon_vert,2021.1.2,Win32,59.95203837,,,,,,,,,,,,,,,,,,,,,up,0,1.985,38,TRUE,FALSE,9,1,37,2,1,,,,,,,
,,,,,,0,2.394089827,#a3d0fb,"[""0.25"",""0""]",right_blue.png,right,,,,,,,,right,right_blue.png,up_orange.png,up,right,up,5fd43da30be3161b9a3ec2d6,2021-09-11_16h51.49.167,arrow_simon_vert,2021.1.2,Win32,59.95203837,,,,,,,,,,,,,,,,,,,,,left,0,1.636,39,TRUE,FALSE,9,2,38,1,1,,,,,,,
,,,,,,0,1.688007262,#f3af84,"[""0"",""0.25""]",down_orange.png,down,,,,,,,,left,left_blue.png,down_orange.png,down,right,up,5fd43da30be3161b9a3ec2d6,2021-09-11_16h51.49.167,arrow_simon_vert,2021.1.2,Win32,59.95203837,,,,,,,,,,,,,,,,,,,,,down,1,1.537,40,FALSE,FALSE,9,3,39,3,1,,,,,,,
,,,,,,0,1.640529334,#a3d0fb,"[""0.25"",""0""]",right_blue.png,right,,,,,,,,right,right_blue.png,up_orange.png,up,right,up,5fd43da30be3161b9a3ec2d6,2021-09-11_16h51.49.167,arrow_simon_vert,2021.1.2,Win32,59.95203837,,,,,,,,,,,,,,,,,,,,,right,1,1.371,41,FALSE,TRUE,10,0,40,1,1,,,,,,,
,,,,,,0,2.417228414,#f3af84,"[""0"",""0.25""]",down_orange.png,down,,,,,,,,left,left_blue.png,down_orange.png,down,right,up,5fd43da30be3161b9a3ec2d6,2021-09-11_16h51.49.167,arrow_simon_vert,2021.1.2,Win32,59.95203837,,,,,,,,,,,,,,,,,,,,,down,1,2.556,42,TRUE,FALSE,10,1,41,3,1,,,,,,,
,,,,,,0,2.160816343,#a3d0fb,"[""0.25"",""0""]",left_blue.png,left,,,,,,,,left,left_blue.png,down_orange.png,down,right,up,5fd43da30be3161b9a3ec2d6,2021-09-11_16h51.49.167,arrow_simon_vert,2021.1.2,Win32,59.95203837,,,,,,,,,,,,,,,,,,,,,left,1,1.923,43,TRUE,FALSE,10,2,42,3,1,,,,,,,
,,,,,,0,1.993632718,#f3af84,"[""0"",""-0.25""]",up_orange.png,up,,,,,,,,right,right_blue.png,up_orange.png,up,left,down,5fd43da30be3161b9a3ec2d6,2021-09-11_16h51.49.167,arrow_simon_vert,2021.1.2,Win32,59.95203837,,,,,,,,,,,,,,,,,,,,,up,1,1.786,44,TRUE,FALSE,10,3,43,0,1,,,,,,,
,,,,,,0,1.572954228,#a3d0fb,"[""-0.25"",""0""]",left_blue.png,left,,,,,,,,left,left_blue.png,down_orange.png,down,left,down,5fd43da30be3161b9a3ec2d6,2021-09-11_16h51.49.167,arrow_simon_vert,2021.1.2,Win32,59.95203837,,,,,,,,,,,,,,,,,,,,,left,1,1.17,45,FALSE,TRUE,11,0,44,2,1,,,,,,,
,,,,,,0,2.21836122,#f3af84,"[""0"",""0.25""]",down_orange.png,down,,,,,,,,left,left_blue.png,down_orange.png,down,right,up,5fd43da30be3161b9a3ec2d6,2021-09-11_16h51.49.167,arrow_simon_vert,2021.1.2,Win32,59.95203837,,,,,,,,,,,,,,,,,,,,,down,1,2.36,46,TRUE,FALSE,11,1,45,3,1,,,,,,,
,,,,,,0,1.774980939,#a3d0fb,"[""-0.25"",""0""]",left_blue.png,left,,,,,,,,left,left_blue.png,down_orange.png,down,left,down,5fd43da30be3161b9a3ec2d6,2021-09-11_16h51.49.167,arrow_simon_vert,2021.1.2,Win32,59.95203837,,,,,,,,,,,,,,,,,,,,,left,1,1.371,47,FALSE,TRUE,11,2,46,2,1,,,,,,,
,,,,,,0,2.498299595,#f3af84,"[""0"",""-0.25""]",down_orange.png,down,,,,,,,,left,left_blue.png,down_orange.png,down,left,down,5fd43da30be3161b9a3ec2d6,2021-09-11_16h51.49.167,arrow_simon_vert,2021.1.2,Win32,59.95203837,,,,,,,,,,,,,,,,,,,,,down,1,2.371,48,TRUE,FALSE,11,3,47,2,1,,,,,,,
,,,,,,0,2.447562965,#a3d0fb,"[""0.25"",""0""]",left_blue.png,left,,,,,,,,left,left_blue.png,down_orange.png,down,right,up,5fd43da30be3161b9a3ec2d6,2021-09-11_16h51.49.167,arrow_simon_vert,2021.1.2,Win32,59.95203837,,,,,,,,,,,,,,,,,,,,,left,1,2.178,49,TRUE,FALSE,12,0,48,3,1,,,,,,,
,,,,,,0,2.151383266,#f3af84,"[""0"",""-0.25""]",down_orange.png,down,,,,,,,,left,left_blue.png,down_orange.png,down,left,down,5fd43da30be3161b9a3ec2d6,2021-09-11_16h51.49.167,arrow_simon_vert,2021.1.2,Win32,59.95203837,,,,,,,,,,,,,,,,,,,,,down,1,1.855,50,TRUE,FALSE,12,1,49,2,1,,,,,,,
,,,,,,0,2.476239257,#a3d0fb,"[""-0.25"",""0""]",left_blue.png,left,,,,,,,,left,left_blue.png,down_orange.png,down,left,down,5fd43da30be3161b9a3ec2d6,2021-09-11_16h51.49.167,arrow_simon_vert,2021.1.2,Win32,59.95203837,,,,,,,,,,,,,,,,,,,,,left,1,1.837,51,TRUE,FALSE,12,2,50,2,1,,,,,,,
,,,,,,0,1.733773284,#f3af84,"[""0"",""0.25""]",down_orange.png,down,,,,,,,,left,left_blue.png,down_orange.png,down,right,up,5fd43da30be3161b9a3ec2d6,2021-09-11_16h51.49.167,arrow_simon_vert,2021.1.2,Win32,59.95203837,,,,,,,,,,,,,,,,,,,,,down,1,1.418,52,FALSE,FALSE,12,3,51,3,1,,,,,,,
,,,,,,0,1.603985546,#a3d0fb,"[""0.25"",""0""]",right_blue.png,right,,,,,,,,right,right_blue.png,up_orange.png,up,right,up,5fd43da30be3161b9a3ec2d6,2021-09-11_16h51.49.167,arrow_simon_vert,2021.1.2,Win32,59.95203837,,,,,,,,,,,,,,,,,,,,,right,1,1.221,53,FALSE,TRUE,13,0,52,1,1,,,,,,,
,,,,,,0,2.420396895,#f3af84,"[""0"",""-0.25""]",down_orange.png,down,,,,,,,,left,left_blue.png,down_orange.png,down,left,down,5fd43da30be3161b9a3ec2d6,2021-09-11_16h51.49.167,arrow_simon_vert,2021.1.2,Win32,59.95203837,,,,,,,,,,,,,,,,,,,,,down,1,1.911,54,TRUE,FALSE,13,1,53,2,1,,,,,,,
,,,,,,0,2.386233403,#a3d0fb,"[""-0.25"",""0""]",right_blue.png,right,,,,,,,,right,right_blue.png,up_orange.png,up,left,down,5fd43da30be3161b9a3ec2d6,2021-09-11_16h51.49.167,arrow_simon_vert,2021.1.2,Win32,59.95203837,,,,,,,,,,,,,,,,,,,,,right,1,2.452,55,TRUE,FALSE,13,2,54,0,1,,,,,,,
,,,,,,0,1.764523756,#f3af84,"[""0"",""-0.25""]",up_orange.png,up,,,,,,,,right,right_blue.png,up_orange.png,up,left,down,5fd43da30be3161b9a3ec2d6,2021-09-11_16h51.49.167,arrow_simon_vert,2021.1.2,Win32,59.95203837,,,,,,,,,,,,,,,,,,,,,up,1,1.541,56,FALSE,FALSE,13,3,55,0,1,,,,,,,
,,,,,,0,2.096966179,#a3d0fb,"[""0.25"",""0""]",right_blue.png,right,,,,,,,,right,right_blue.png,up_orange.png,up,right,up,5fd43da30be3161b9a3ec2d6,2021-09-11_16h51.49.167,arrow_simon_vert,2021.1.2,Win32,59.95203837,,,,,,,,,,,,,,,,,,,,,right,1,1.603,57,TRUE,FALSE,14,0,56,1,1,,,,,,,
,,,,,,0,1.527695012,#f3af84,"[""0"",""0.25""]",down_orange.png,down,,,,,,,,left,left_blue.png,down_orange.png,down,right,up,5fd43da30be3161b9a3ec2d6,2021-09-11_16h51.49.167,arrow_simon_vert,2021.1.2,Win32,59.95203837,,,,,,,,,,,,,,,,,,,,,down,1,2.419,58,TRUE,FALSE,14,1,57,3,1,,,,,,,
,,,,,,0,2.093174758,#a3d0fb,"[""0.25"",""0""]",right_blue.png,right,,,,,,,,right,right_blue.png,up_orange.png,up,right,up,5fd43da30be3161b9a3ec2d6,2021-09-11_16h51.49.167,arrow_simon_vert,2021.1.2,Win32,59.95203837,,,,,,,,,,,,,,,,,,,,,right,1,1.735,59,TRUE,FALSE,14,2,58,1,1,,,,,,,
,,,,,,0,2.081377927,#f3af84,"[""0"",""0.25""]",down_orange.png,down,,,,,,,,left,left_blue.png,down_orange.png,down,right,up,5fd43da30be3161b9a3ec2d6,2021-09-11_16h51.49.167,arrow_simon_vert,2021.1.2,Win32,59.95203837,,,,,,,,,,,,,,,,,,,,,down,1,2.194,60,TRUE,FALSE,14,3,59,3,1,,,,,,,
,,,,,,,,,,,,,,,,,,,,,,,,,5fd43da30be3161b9a3ec2d6,2021-09-11_16h51.49.167,arrow_simon_vert,2021.1.2,Win32,59.95203837,,,,,,,,,,,,,,,,,,,,,,,,,,,,,,,,space,21.462,1,0,1,0,1
,,,,,,0,2.362898252,#a3d0fb,"[""-0.25"",""0""]",right_blue.png,right,,,,,,,,right,right_blue.png,up_orange.png,up,left,down,5fd43da30be3161b9a3ec2d6,2021-09-11_16h51.49.167,arrow_simon_vert,2021.1.2,Win32,59.95203837,,,,,,,,,,,,,,,,,,,,,right,1,2.104,1,TRUE,FALSE,0,0,0,0,1,,,,,,,
,,,,,,0,2.381083999,#f3af84,"[""0"",""-0.25""]",up_orange.png,up,,,,,,,,right,right_blue.png,up_orange.png,up,left,down,5fd43da30be3161b9a3ec2d6,2021-09-11_16h51.49.167,arrow_simon_vert,2021.1.2,Win32,59.95203837,,,,,,,,,,,,,,,,,,,,,up,1,2.073,2,TRUE,FALSE,0,1,1,0,1,,,,,,,
,,,,,,0,1.683719808,#a3d0fb,"[""0.25"",""0""]",left_blue.png,left,,,,,,,,left,left_blue.png,down_orange.png,down,right,up,5fd43da30be3161b9a3ec2d6,2021-09-11_16h51.49.167,arrow_simon_vert,2021.1.2,Win32,59.95203837,,,,,,,,,,,,,,,,,,,,,left,1,1.37,3,FALSE,TRUE,0,2,2,3,1,,,,,,,
,,,,,,0,2.038460133,#f3af84,"[""0"",""0.25""]",down_orange.png,down,,,,,,,,left,left_blue.png,down_orange.png,down,right,up,5fd43da30be3161b9a3ec2d6,2021-09-11_16h51.49.167,arrow_simon_vert,2021.1.2,Win32,59.95203837,,,,,,,,,,,,,,,,,,,,,up,0,1.721,4,TRUE,FALSE,0,3,3,3,1,,,,,,,
,,,,,,0,1.711957997,#a3d0fb,"[""0.25"",""0""]",left_blue.png,left,,,,,,,,left,left_blue.png,down_orange.png,down,right,up,5fd43da30be3161b9a3ec2d6,2021-09-11_16h51.49.167,arrow_simon_vert,2021.1.2,Win32,59.95203837,,,,,,,,,,,,,,,,,,,,,left,1,1.443,5,FALSE,FALSE,1,0,4,3,1,,,,,,,
,,,,,,0,1.782825859,#f3af84,"[""0"",""-0.25""]",down_orange.png,down,,,,,,,,left,left_blue.png,down_orange.png,down,left,down,5fd43da30be3161b9a3ec2d6,2021-09-11_16h51.49.167,arrow_simon_vert,2021.1.2,Win32,59.95203837,,,,,,,,,,,,,,,,,,,,,down,1,1.535,6,FALSE,FALSE,1,1,5,2,1,,,,,,,
,,,,,,0,1.890976164,#a3d0fb,"[""-0.25"",""0""]",left_blue.png,left,,,,,,,,left,left_blue.png,down_orange.png,down,left,down,5fd43da30be3161b9a3ec2d6,2021-09-11_16h51.49.167,arrow_simon_vert,2021.1.2,Win32,59.95203837,,,,,,,,,,,,,,,,,,,,,left,1,1.472,7,FALSE,FALSE,1,2,6,2,1,,,,,,,
,,,,,,0,1.610950155,#f3af84,"[""0"",""0.25""]",down_orange.png,down,,,,,,,,left,left_blue.png,down_orange.png,down,right,up,5fd43da30be3161b9a3ec2d6,2021-09-11_16h51.49.167,arrow_simon_vert,2021.1.2,Win32,59.95203837,,,,,,,,,,,,,,,,,,,,,down,1,1.37,8,FALSE,TRUE,1,3,7,3,1,,,,,,,
,,,,,,0,2.297528055,#a3d0fb,"[""0.25"",""0""]",left_blue.png,left,,,,,,,,left,left_blue.png,down_orange.png,down,right,up,5fd43da30be3161b9a3ec2d6,2021-09-11_16h51.49.167,arrow_simon_vert,2021.1.2,Win32,59.95203837,,,,,,,,,,,,,,,,,,,,,right,0,1.838,9,TRUE,FALSE,2,0,8,3,1,,,,,,,
,,,,,,0,1.909681366,#f3af84,"[""0"",""0.25""]",down_orange.png,down,,,,,,,,left,left_blue.png,down_orange.png,down,right,up,5fd43da30be3161b9a3ec2d6,2021-09-11_16h51.49.167,arrow_simon_vert,2021.1.2,Win32,59.95203837,,,,,,,,,,,,,,,,,,,,,down,1,1.727,10,TRUE,FALSE,2,1,9,3,1,,,,,,,
,,,,,,0,2.040286332,#a3d0fb,"[""0.25"",""0""]",right_blue.png,right,,,,,,,,right,right_blue.png,up_orange.png,up,right,up,5fd43da30be3161b9a3ec2d6,2021-09-11_16h51.49.167,arrow_simon_vert,2021.1.2,Win32,59.95203837,,,,,,,,,,,,,,,,,,,,,right,1,1.707,11,TRUE,FALSE,2,2,10,1,1,,,,,,,
,,,,,,0,1.887343011,#f3af84,"[""0"",""0.25""]",down_orange.png,down,,,,,,,,left,left_blue.png,down_orange.png,down,right,up,5fd43da30be3161b9a3ec2d6,2021-09-11_16h51.49.167,arrow_simon_vert,2021.1.2,Win32,59.95203837,,,,,,,,,,,,,,,,,,,,,down,1,1.518,12,FALSE,FALSE,2,3,11,3,1,,,,,,,
,,,,,,0,2.493858839,#a3d0fb,"[""0.25"",""0""]",right_blue.png,right,,,,,,,,right,right_blue.png,up_orange.png,up,right,up,5fd43da30be3161b9a3ec2d6,2021-09-11_16h51.49.167,arrow_simon_vert,2021.1.2,Win32,59.95203837,,,,,,,,,,,,,,,,,,,,,right,1,1.955,13,TRUE,FALSE,3,0,12,1,1,,,,,,,
,,,,,,0,1.8001976,#f3af84,"[""0"",""-0.25""]",up_orange.png,up,,,,,,,,right,right_blue.png,up_orange.png,up,left,down,5fd43da30be3161b9a3ec2d6,2021-09-11_16h51.49.167,arrow_simon_vert,2021.1.2,Win32,59.95203837,,,,,,,,,,,,,,,,,,,,,up,1,1.603,14,TRUE,FALSE,3,1,13,0,1,,,,,,,
,,,,,,0,2.430287606,#a3d0fb,"[""0.25"",""0""]",right_blue.png,right,,,,,,,,right,right_blue.png,up_orange.png,up,right,up,5fd43da30be3161b9a3ec2d6,2021-09-11_16h51.49.167,arrow_simon_vert,2021.1.2,Win32,59.95203837,,,,,,,,,,,,,,,,,,,,,right,1,1.838,15,TRUE,FALSE,3,2,14,1,1,,,,,,,
,,,,,,0,2.105197568,#f3af84,"[""0"",""0.25""]",up_orange.png,up,,,,,,,,right,right_blue.png,up_orange.png,up,right,up,5fd43da30be3161b9a3ec2d6,2021-09-11_16h51.49.167,arrow_simon_vert,2021.1.2,Win32,59.95203837,,,,,,,,,,,,,,,,,,,,,up,1,1.686,16,TRUE,FALSE,3,3,15,1,1,,,,,,,
,,,,,,0,2.267057601,#a3d0fb,"[""-0.25"",""0""]",left_blue.png,left,,,,,,,,left,left_blue.png,down_orange.png,down,left,down,5fd43da30be3161b9a3ec2d6,2021-09-11_16h51.49.167,arrow_simon_vert,2021.1.2,Win32,59.95203837,,,,,,,,,,,,,,,,,,,,,left,1,1.953,17,TRUE,FALSE,4,0,16,2,1,,,,,,,
,,,,,,0,1.508156042,#f3af84,"[""0"",""0.25""]",up_orange.png,up,,,,,,,,right,right_blue.png,up_orange.png,up,right,up,5fd43da30be3161b9a3ec2d6,2021-09-11_16h51.49.167,arrow_simon_vert,2021.1.2,Win32,59.95203837,,,,,,,,,,,,,,,,,,,,,up,1,1.436,18,FALSE,FALSE,4,1,17,1,1,,,,,,,
,,,,,,0,1.816501825,#a3d0fb,"[""0.25"",""0""]",right_blue.png,right,,,,,,,,right,right_blue.png,up_orange.png,up,right,up,5fd43da30be3161b9a3ec2d6,2021-09-11_16h51.49.167,arrow_simon_vert,2021.1.2,Win32,59.95203837,,,,,,,,,,,,,,,,,,,,,right,1,1.541,19,FALSE,FALSE,4,2,18,1,1,,,,,,,
,,,,,,0,2.366342748,#f3af84,"[""0"",""0.25""]",down_orange.png,down,,,,,,,,left,left_blue.png,down_orange.png,down,right,up,5fd43da30be3161b9a3ec2d6,2021-09-11_16h51.49.167,arrow_simon_vert,2021.1.2,Win32,59.95203837,,,,,,,,,,,,,,,,,,,,,up,0,1.786,20,TRUE,FALSE,4,3,19,3,1,,,,,,,
,,,,,,0,1.620736012,#a3d0fb,"[""-0.25"",""0""]",right_blue.png,right,,,,,,,,right,right_blue.png,up_orange.png,up,left,down,5fd43da30be3161b9a3ec2d6,2021-09-11_16h51.49.167,arrow_simon_vert,2021.1.2,Win32,59.95203837,,,,,,,,,,,,,,,,,,,,,right,1,1.554,21,FALSE,FALSE,5,0,20,0,1,,,,,,,
,,,,,,0,2.221526209,#f3af84,"[""0"",""-0.25""]",up_orange.png,up,,,,,,,,right,right_blue.png,up_orange.png,up,left,down,5fd43da30be3161b9a3ec2d6,2021-09-11_16h51.49.167,arrow_simon_vert,2021.1.2,Win32,59.95203837,,,,,,,,,,,,,,,,,,,,,up,1,1.889,22,TRUE,FALSE,5,1,21,0,1,,,,,,,
,,,,,,0,2.100645652,#a3d0fb,"[""-0.25"",""0""]",right_blue.png,right,,,,,,,,right,right_blue.png,up_orange.png,up,left,down,5fd43da30be3161b9a3ec2d6,2021-09-11_16h51.49.167,arrow_simon_vert,2021.1.2,Win32,59.95203837,,,,,,,,,,,,,,,,,,,,,right,1,1.901,23,TRUE,FALSE,5,2,22,0,1,,,,,,,
,,,,,,0,1.763797309,#f3af84,"[""0"",""-0.25""]",down_orange.png,down,,,,,,,,left,left_blue.png,down_orange.png,down,left,down,5fd43da30be3161b9a3ec2d6,2021-09-11_16h51.49.167,arrow_simon_vert,2021.1.2,Win32,59.95203837,,,,,,,,,,,,,,,,,,,,,down,1,1.47,24,FALSE,FALSE,5,3,23,2,1,,,,,,,
,,,,,,0,2.338536623,#a3d0fb,"[""0.25"",""0""]",right_blue.png,right,,,,,,,,right,right_blue.png,up_orange.png,up,right,up,5fd43da30be3161b9a3ec2d6,2021-09-11_16h51.49.167,arrow_simon_vert,2021.1.2,Win32,59.95203837,,,,,,,,,,,,,,,,,,,,,right,1,1.77,25,TRUE,FALSE,6,0,24,1,1,,,,,,,
,,,,,,0,2.204389878,#f3af84,"[""0"",""-0.25""]",down_orange.png,down,,,,,,,,left,left_blue.png,down_orange.png,down,left,down,5fd43da30be3161b9a3ec2d6,2021-09-11_16h51.49.167,arrow_simon_vert,2021.1.2,Win32,59.95203837,,,,,,,,,,,,,,,,,,,,,down,1,1.49,26,FALSE,FALSE,6,1,25,2,1,,,,,,,
,,,,,,0,1.996612883,#a3d0fb,"[""-0.25"",""0""]",right_blue.png,right,,,,,,,,right,right_blue.png,up_orange.png,up,left,down,5fd43da30be3161b9a3ec2d6,2021-09-11_16h51.49.167,arrow_simon_vert,2021.1.2,Win32,59.95203837,,,,,,,,,,,,,,,,,,,,,right,1,1.696,27,TRUE,FALSE,6,2,26,0,1,,,,,,,
,,,,,,0,2.133975405,#f3af84,"[""0"",""0.25""]",up_orange.png,up,,,,,,,,right,right_blue.png,up_orange.png,up,right,up,5fd43da30be3161b9a3ec2d6,2021-09-11_16h51.49.167,arrow_simon_vert,2021.1.2,Win32,59.95203837,,,,,,,,,,,,,,,,,,,,,up,1,1.635,28,TRUE,FALSE,6,3,27,1,1,,,,,,,
,,,,,,0,1.603661266,#a3d0fb,"[""0.25"",""0""]",left_blue.png,left,,,,,,,,left,left_blue.png,down_orange.png,down,right,up,5fd43da30be3161b9a3ec2d6,2021-09-11_16h51.49.167,arrow_simon_vert,2021.1.2,Win32,59.95203837,,,,,,,,,,,,,,,,,,,,,left,1,1.42,29,FALSE,FALSE,7,0,28,3,1,,,,,,,
,,,,,,1,1.981229658,#f3af84,"[""0"",""-0.25""]",down_orange.png,down,,,,,,,,left,left_blue.png,down_orange.png,down,left,down,5fd43da30be3161b9a3ec2d6,2021-09-11_16h51.49.167,arrow_simon_vert,2021.1.2,Win32,59.95203837,,,,,,,,,,,,,,,,,,,,,right,0,1.547,30,FALSE,FALSE,7,1,29,2,1,,,,,,,
,,,,,,0,1.564329173,#a3d0fb,"[""-0.25"",""0""]",right_blue.png,right,,,,,,,,right,right_blue.png,up_orange.png,up,left,down,5fd43da30be3161b9a3ec2d6,2021-09-11_16h51.49.167,arrow_simon_vert,2021.1.2,Win32,59.95203837,,,,,,,,,,,,,,,,,,,,,right,1,1.446,31,FALSE,FALSE,7,2,30,0,1,,,,,,,
,,,,,,0,1.814774795,#f3af84,"[""0"",""0.25""]",down_orange.png,down,,,,,,,,left,left_blue.png,down_orange.png,down,right,up,5fd43da30be3161b9a3ec2d6,2021-09-11_16h51.49.167,arrow_simon_vert,2021.1.2,Win32,59.95203837,,,,,,,,,,,,,,,,,,,,,down,1,1.503,32,FALSE,FALSE,7,3,31,3,1,,,,,,,
,,,,,,0,2.317719882,#a3d0fb,"[""-0.25"",""0""]",right_blue.png,right,,,,,,,,right,right_blue.png,up_orange.png,up,left,down,5fd43da30be3161b9a3ec2d6,2021-09-11_16h51.49.167,arrow_simon_vert,2021.1.2,Win32,59.95203837,,,,,,,,,,,,,,,,,,,,,right,1,1.819,33,TRUE,FALSE,8,0,32,0,1,,,,,,,
,,,,,,0,2.154485857,#f3af84,"[""0"",""-0.25""]",up_orange.png,up,,,,,,,,right,right_blue.png,up_orange.png,up,left,down,5fd43da30be3161b9a3ec2d6,2021-09-11_16h51.49.167,arrow_simon_vert,2021.1.2,Win32,59.95203837,,,,,,,,,,,,,,,,,,,,,up,1,2.058,34,TRUE,FALSE,8,1,33,0,1,,,,,,,
,,,,,,0,1.848245741,#a3d0fb,"[""0.25"",""0""]",left_blue.png,left,,,,,,,,left,left_blue.png,down_orange.png,down,right,up,5fd43da30be3161b9a3ec2d6,2021-09-11_16h51.49.167,arrow_simon_vert,2021.1.2,Win32,59.95203837,,,,,,,,,,,,,,,,,,,,,left,1,1.486,35,FALSE,FALSE,8,2,34,3,1,,,,,,,
,,,,,,0,2.039387129,#f3af84,"[""0"",""0.25""]",down_orange.png,down,,,,,,,,left,left_blue.png,down_orange.png,down,right,up,5fd43da30be3161b9a3ec2d6,2021-09-11_16h51.49.167,arrow_simon_vert,2021.1.2,Win32,59.95203837,,,,,,,,,,,,,,,,,,,,,down,1,2.285,36,TRUE,FALSE,8,3,35,3,1,,,,,,,
,,,,,,0,2.344542415,#a3d0fb,"[""0.25"",""0""]",right_blue.png,right,,,,,,,,right,right_blue.png,up_orange.png,up,right,up,5fd43da30be3161b9a3ec2d6,2021-09-11_16h51.49.167,arrow_simon_vert,2021.1.2,Win32,59.95203837,,,,,,,,,,,,,,,,,,,,,right,1,1.919,37,TRUE,FALSE,9,0,36,1,1,,,,,,,
,,,,,,0,1.527508888,#f3af84,"[""0"",""-0.25""]",down_orange.png,down,,,,,,,,left,left_blue.png,down_orange.png,down,left,down,5fd43da30be3161b9a3ec2d6,2021-09-11_16h51.49.167,arrow_simon_vert,2021.1.2,Win32,59.95203837,,,,,,,,,,,,,,,,,,,,,down,1,1.439,38,FALSE,FALSE,9,1,37,2,1,,,,,,,
,,,,,,0,1.84047324,#a3d0fb,"[""0.25"",""0""]",right_blue.png,right,,,,,,,,right,right_blue.png,up_orange.png,up,right,up,5fd43da30be3161b9a3ec2d6,2021-09-11_16h51.49.167,arrow_simon_vert,2021.1.2,Win32,59.95203837,,,,,,,,,,,,,,,,,,,,,right,1,1.471,39,FALSE,FALSE,9,2,38,1,1,,,,,,,
,,,,,,0,2.381733066,#f3af84,"[""0"",""-0.25""]",down_orange.png,down,,,,,,,,left,left_blue.png,down_orange.png,down,left,down,5fd43da30be3161b9a3ec2d6,2021-09-11_16h51.49.167,arrow_simon_vert,2021.1.2,Win32,59.95203837,,,,,,,,,,,,,,,,,,,,,down,1,1.87,40,TRUE,FALSE,9,3,39,2,1,,,,,,,
,,,,,,0,2.353453928,#a3d0fb,"[""0.25"",""0""]",right_blue.png,right,,,,,,,,right,right_blue.png,up_orange.png,up,right,up,5fd43da30be3161b9a3ec2d6,2021-09-11_16h51.49.167,arrow_simon_vert,2021.1.2,Win32,59.95203837,,,,,,,,,,,,,,,,,,,,,right,1,1.788,41,TRUE,FALSE,10,0,40,1,1,,,,,,,
,,,,,,0,2.078538592,#f3af84,"[""0"",""0.25""]",up_orange.png,up,,,,,,,,right,right_blue.png,up_orange.png,up,right,up,5fd43da30be3161b9a3ec2d6,2021-09-11_16h51.49.167,arrow_simon_vert,2021.1.2,Win32,59.95203837,,,,,,,,,,,,,,,,,,,,,up,1,1.738,42,TRUE,FALSE,10,1,41,1,1,,,,,,,
,,,,,,0,2.149800198,#a3d0fb,"[""0.25"",""0""]",right_blue.png,right,,,,,,,,right,right_blue.png,up_orange.png,up,right,up,5fd43da30be3161b9a3ec2d6,2021-09-11_16h51.49.167,arrow_simon_vert,2021.1.2,Win32,59.95203837,,,,,,,,,,,,,,,,,,,,,right,1,1.607,43,TRUE,FALSE,10,2,42,1,1,,,,,,,
,,,,,,0,1.590686198,#f3af84,"[""0"",""-0.25""]",up_orange.png,up,,,,,,,,right,right_blue.png,up_orange.png,up,left,down,5fd43da30be3161b9a3ec2d6,2021-09-11_16h51.49.167,arrow_simon_vert,2021.1.2,Win32,59.95203837,,,,,,,,,,,,,,,,,,,,,up,1,1.384,44,FALSE,TRUE,10,3,43,0,1,,,,,,,
,,,,,,0,2.079745832,#a3d0fb,"[""-0.25"",""0""]",right_blue.png,right,,,,,,,,right,right_blue.png,up_orange.png,up,left,down,5fd43da30be3161b9a3ec2d6,2021-09-11_16h51.49.167,arrow_simon_vert,2021.1.2,Win32,59.95203837,,,,,,,,,,,,,,,,,,,,,right,1,1.689,45,TRUE,FALSE,11,0,44,0,1,,,,,,,
,,,,,,0,1.630133507,#f3af84,"[""0"",""-0.25""]",down_orange.png,down,,,,,,,,left,left_blue.png,down_orange.png,down,left,down,5fd43da30be3161b9a3ec2d6,2021-09-11_16h51.49.167,arrow_simon_vert,2021.1.2,Win32,59.95203837,,,,,,,,,,,,,,,,,,,,,down,1,1.506,46,FALSE,FALSE,11,1,45,2,1,,,,,,,
,,,,,,0,1.710561663,#a3d0fb,"[""0.25"",""0""]",left_blue.png,left,,,,,,,,left,left_blue.png,down_orange.png,down,right,up,5fd43da30be3161b9a3ec2d6,2021-09-11_16h51.49.167,arrow_simon_vert,2021.1.2,Win32,59.95203837,,,,,,,,,,,,,,,,,,,,,left,1,1.524,47,FALSE,FALSE,11,2,46,3,1,,,,,,,
,,,,,,0,2.034171073,#f3af84,"[""0"",""0.25""]",up_orange.png,up,,,,,,,,right,right_blue.png,up_orange.png,up,right,up,5fd43da30be3161b9a3ec2d6,2021-09-11_16h51.49.167,arrow_simon_vert,2021.1.2,Win32,59.95203837,,,,,,,,,,,,,,,,,,,,,up,1,1.626,48,TRUE,FALSE,11,3,47,1,1,,,,,,,
,,,,,,0,1.53417472,#a3d0fb,"[""0.25"",""0""]",right_blue.png,right,,,,,,,,right,right_blue.png,up_orange.png,up,right,up,5fd43da30be3161b9a3ec2d6,2021-09-11_16h51.49.167,arrow_simon_vert,2021.1.2,Win32,59.95203837,,,,,,,,,,,,,,,,,,,,,right,1,1.319,49,FALSE,TRUE,12,0,48,1,1,,,,,,,
,,,,,,0,1.532247276,#f3af84,"[""0"",""-0.25""]",down_orange.png,down,,,,,,,,left,left_blue.png,down_orange.png,down,left,down,5fd43da30be3161b9a3ec2d6,2021-09-11_16h51.49.167,arrow_simon_vert,2021.1.2,Win32,59.95203837,,,,,,,,,,,,,,,,,,,,,down,1,1.522,50,FALSE,FALSE,12,1,49,2,1,,,,,,,
,,,,,,0,2.115543412,#a3d0fb,"[""-0.25"",""0""]",right_blue.png,right,,,,,,,,right,right_blue.png,up_orange.png,up,left,down,5fd43da30be3161b9a3ec2d6,2021-09-11_16h51.49.167,arrow_simon_vert,2021.1.2,Win32,59.95203837,,,,,,,,,,,,,,,,,,,,,right,1,1.696,51,TRUE,FALSE,12,2,50,0,1,,,,,,,
,,,,,,0,2.398794366,#f3af84,"[""0"",""-0.25""]",up_orange.png,up,,,,,,,,right,right_blue.png,up_orange.png,up,left,down,5fd43da30be3161b9a3ec2d6,2021-09-11_16h51.49.167,arrow_simon_vert,2021.1.2,Win32,59.95203837,,,,,,,,,,,,,,,,,,,,,up,1,2.289,52,TRUE,FALSE,12,3,51,0,1,,,,,,,
,,,,,,0,1.607188446,#a3d0fb,"[""-0.25"",""0""]",left_blue.png,left,,,,,,,,left,left_blue.png,down_orange.png,down,left,down,5fd43da30be3161b9a3ec2d6,2021-09-11_16h51.49.167,arrow_simon_vert,2021.1.2,Win32,59.95203837,,,,,,,,,,,,,,,,,,,,,left,1,1.443,53,FALSE,FALSE,13,0,52,2,1,,,,,,,
,,,,,,0,1.888209391,#f3af84,"[""0"",""0.25""]",down_orange.png,down,,,,,,,,left,left_blue.png,down_orange.png,down,right,up,5fd43da30be3161b9a3ec2d6,2021-09-11_16h51.49.167,arrow_simon_vert,2021.1.2,Win32,59.95203837,,,,,,,,,,,,,,,,,,,,,down,1,1.536,54,FALSE,FALSE,13,1,53,3,1,,,,,,,
,,,,,,0,1.711185263,#a3d0fb,"[""-0.25"",""0""]",left_blue.png,left,,,,,,,,left,left_blue.png,down_orange.png,down,left,down,5fd43da30be3161b9a3ec2d6,2021-09-11_16h51.49.167,arrow_simon_vert,2021.1.2,Win32,59.95203837,,,,,,,,,,,,,,,,,,,,,left,1,1.18,55,FALSE,TRUE,13,2,54,2,1,,,,,,,
,,,,,,0,2.139020502,#f3af84,"[""0"",""-0.25""]",down_orange.png,down,,,,,,,,left,left_blue.png,down_orange.png,down,left,down,5fd43da30be3161b9a3ec2d6,2021-09-11_16h51.49.167,arrow_simon_vert,2021.1.2,Win32,59.95203837,,,,,,,,,,,,,,,,,,,,,down,1,1.74,56,TRUE,FALSE,13,3,55,2,1,,,,,,,
,,,,,,0,2.055392224,#a3d0fb,"[""-0.25"",""0""]",left_blue.png,left,,,,,,,,left,left_blue.png,down_orange.png,down,left,down,5fd43da30be3161b9a3ec2d6,2021-09-11_16h51.49.167,arrow_simon_vert,2021.1.2,Win32,59.95203837,,,,,,,,,,,,,,,,,,,,,up,0,1.723,57,TRUE,FALSE,14,0,56,2,1,,,,,,,
,,,,,,0,2.201194654,#f3af84,"[""0"",""-0.25""]",down_orange.png,down,,,,,,,,left,left_blue.png,down_orange.png,down,left,down,5fd43da30be3161b9a3ec2d6,2021-09-11_16h51.49.167,arrow_simon_vert,2021.1.2,Win32,59.95203837,,,,,,,,,,,,,,,,,,,,,down,1,1.773,58,TRUE,FALSE,14,1,57,2,1,,,,,,,
,,,,,,0,1.998521502,#a3d0fb,"[""0.25"",""0""]",left_blue.png,left,,,,,,,,left,left_blue.png,down_orange.png,down,right,up,5fd43da30be3161b9a3ec2d6,2021-09-11_16h51.49.167,arrow_simon_vert,2021.1.2,Win32,59.95203837,,,,,,,,,,,,,,,,,,,,,left,1,1.669,59,TRUE,FALSE,14,2,58,3,1,,,,,,,
,,,,,,0,2.348906815,#f3af84,"[""0"",""-0.25""]",up_orange.png,up,,,,,,,,right,right_blue.png,up_orange.png,up,left,down,5fd43da30be3161b9a3ec2d6,2021-09-11_16h51.49.167,arrow_simon_vert,2021.1.2,Win32,59.95203837,,,,,,,,,,,,,,,,,,,,,down,0,1.678,60,TRUE,FALSE,14,3,59,0,1,,,,,,,
,,,,,,,,,,,,,,,,,,,,,,,,,5fd43da30be3161b9a3ec2d6,2021-09-11_16h51.49.167,arrow_simon_vert,2021.1.2,Win32,59.95203837,,,,,,,,,,,,,,,,,,,,,,,,,,,,,,,,space,3.05,2,0,2,0,1
,,,,,,0,1.804735185,#a3d0fb,"[""0.25"",""0""]",right_blue.png,right,,,,,,,,right,right_blue.png,up_orange.png,up,right,up,5fd43da30be3161b9a3ec2d6,2021-09-11_16h51.49.167,arrow_simon_vert,2021.1.2,Win32,59.95203837,,,,,,,,,,,,,,,,,,,,,right,1,1.374,1,FALSE,TRUE,0,0,0,1,1,,,,,,,
,,,,,,0,2.45836505,#f3af84,"[""0"",""-0.25""]",down_orange.png,down,,,,,,,,left,left_blue.png,down_orange.png,down,left,down,5fd43da30be3161b9a3ec2d6,2021-09-11_16h51.49.167,arrow_simon_vert,2021.1.2,Win32,59.95203837,,,,,,,,,,,,,,,,,,,,,down,1,2.004,2,TRUE,FALSE,0,1,1,2,1,,,,,,,
,,,,,,0,2.29318317,#a3d0fb,"[""-0.25"",""0""]",left_blue.png,left,,,,,,,,left,left_blue.png,down_orange.png,down,left,down,5fd43da30be3161b9a3ec2d6,2021-09-11_16h51.49.167,arrow_simon_vert,2021.1.2,Win32,59.95203837,,,,,,,,,,,,,,,,,,,,,left,1,1.603,3,TRUE,FALSE,0,2,2,2,1,,,,,,,
,,,,,,0,1.881332236,#f3af84,"[""0"",""-0.25""]",up_orange.png,up,,,,,,,,right,right_blue.png,up_orange.png,up,left,down,5fd43da30be3161b9a3ec2d6,2021-09-11_16h51.49.167,arrow_simon_vert,2021.1.2,Win32,59.95203837,,,,,,,,,,,,,,,,,,,,,up,1,1.593,4,FALSE,FALSE,0,3,3,0,1,,,,,,,
,,,,,,0,1.557595046,#a3d0fb,"[""-0.25"",""0""]",right_blue.png,right,,,,,,,,right,right_blue.png,up_orange.png,up,left,down,5fd43da30be3161b9a3ec2d6,2021-09-11_16h51.49.167,arrow_simon_vert,2021.1.2,Win32,59.95203837,,,,,,,,,,,,,,,,,,,,,right,1,1.446,5,FALSE,FALSE,1,0,4,0,1,,,,,,,
,,,,,,0,2.105000262,#f3af84,"[""0"",""-0.25""]",up_orange.png,up,,,,,,,,right,right_blue.png,up_orange.png,up,left,down,5fd43da30be3161b9a3ec2d6,2021-09-11_16h51.49.167,arrow_simon_vert,2021.1.2,Win32,59.95203837,,,,,,,,,,,,,,,,,,,,,up,1,2.17,6,TRUE,FALSE,1,1,5,0,1,,,,,,,
,,,,,,0,2.150599996,#a3d0fb,"[""-0.25"",""0""]",right_blue.png,right,,,,,,,,right,right_blue.png,up_orange.png,up,left,down,5fd43da30be3161b9a3ec2d6,2021-09-11_16h51.49.167,arrow_simon_vert,2021.1.2,Win32,59.95203837,,,,,,,,,,,,,,,,,,,,,right,1,1.77,7,TRUE,FALSE,1,2,6,0,1,,,,,,,
,,,,,,0,1.861777031,#f3af84,"[""0"",""0.25""]",up_orange.png,up,,,,,,,,right,right_blue.png,up_orange.png,up,right,up,5fd43da30be3161b9a3ec2d6,2021-09-11_16h51.49.167,arrow_simon_vert,2021.1.2,Win32,59.95203837,,,,,,,,,,,,,,,,,,,,,up,1,1.559,8,FALSE,FALSE,1,3,7,1,1,,,,,,,
,,,,,,0,1.537775409,#a3d0fb,"[""0.25"",""0""]",right_blue.png,right,,,,,,,,right,right_blue.png,up_orange.png,up,right,up,5fd43da30be3161b9a3ec2d6,2021-09-11_16h51.49.167,arrow_simon_vert,2021.1.2,Win32,59.95203837,,,,,,,,,,,,,,,,,,,,,right,1,1.221,9,FALSE,TRUE,2,0,8,1,1,,,,,,,
,,,,,,0,2.143880659,#f3af84,"[""0"",""0.25""]",up_orange.png,up,,,,,,,,right,right_blue.png,up_orange.png,up,right,up,5fd43da30be3161b9a3ec2d6,2021-09-11_16h51.49.167,arrow_simon_vert,2021.1.2,Win32,59.95203837,,,,,,,,,,,,,,,,,,,,,up,1,2.041,10,TRUE,FALSE,2,1,9,1,1,,,,,,,
,,,,,,0,2.35168047,#a3d0fb,"[""-0.25"",""0""]",right_blue.png,right,,,,,,,,right,right_blue.png,up_orange.png,up,left,down,5fd43da30be3161b9a3ec2d6,2021-09-11_16h51.49.167,arrow_simon_vert,2021.1.2,Win32,59.95203837,,,,,,,,,,,,,,,,,,,,,right,1,1.904,11,TRUE,FALSE,2,2,10,0,1,,,,,,,
,,,,,,0,2.066227731,#f3af84,"[""0"",""0.25""]",up_orange.png,up,,,,,,,,right,right_blue.png,up_orange.png,up,right,up,5fd43da30be3161b9a3ec2d6,2021-09-11_16h51.49.167,arrow_simon_vert,2021.1.2,Win32,59.95203837,,,,,,,,,,,,,,,,,,,,,up,1,1.368,12,FALSE,TRUE,2,3,11,1,1,,,,,,,
,,,,,,0,2.054404421,#a3d0fb,"[""-0.25"",""0""]",left_blue.png,left,,,,,,,,left,left_blue.png,down_orange.png,down,left,down,5fd43da30be3161b9a3ec2d6,2021-09-11_16h51.49.167,arrow_simon_vert,2021.1.2,Win32,59.95203837,,,,,,,,,,,,,,,,,,,,,left,1,1.687,13,TRUE,FALSE,3,0,12,2,1,,,,,,,
,,,,,,0,1.635550336,#f3af84,"[""0"",""0.25""]",down_orange.png,down,,,,,,,,left,left_blue.png,down_orange.png,down,right,up,5fd43da30be3161b9a3ec2d6,2021-09-11_16h51.49.167,arrow_simon_vert,2021.1.2,Win32,59.95203837,,,,,,,,,,,,,,,,,,,,,up,0,1.015,14,FALSE,TRUE,3,1,13,3,1,,,,,,,
,,,,,,0,2.004671028,#a3d0fb,"[""0.25"",""0""]",left_blue.png,left,,,,,,,,left,left_blue.png,down_orange.png,down,right,up,5fd43da30be3161b9a3ec2d6,2021-09-11_16h51.49.167,arrow_simon_vert,2021.1.2,Win32,59.95203837,,,,,,,,,,,,,,,,,,,,,left,1,1.552,15,FALSE,FALSE,3,2,14,3,1,,,,,,,
,,,,,,0,2.082016599,#f3af84,"[""0"",""0.25""]",down_orange.png,down,,,,,,,,left,left_blue.png,down_orange.png,down,right,up,5fd43da30be3161b9a3ec2d6,2021-09-11_16h51.49.167,arrow_simon_vert,2021.1.2,Win32,59.95203837,,,,,,,,,,,,,,,,,,,,,down,1,1.401,16,FALSE,FALSE,3,3,15,3,1,,,,,,,
,,,,,,0,2.453958611,#a3d0fb,"[""0.25"",""0""]",left_blue.png,left,,,,,,,,left,left_blue.png,down_orange.png,down,right,up,5fd43da30be3161b9a3ec2d6,2021-09-11_16h51.49.167,arrow_simon_vert,2021.1.2,Win32,59.95203837,,,,,,,,,,,,,,,,,,,,,left,1,1.735,17,TRUE,FALSE,4,0,16,3,1,,,,,,,
