instruct_resp_simon.keys,instruct_resp_simon.corr,instruct_resp_simon.rt,trial_resp_simon.keys,trial_resp_simon.corr,trial_resp_simon.rt,kerr,target_onset,target_color,target_pos,target_file,target_resp,trials_train_simon.thisRepN,trials_train_simon.thisTrialN,trials_train_simon.thisN,trials_train_simon.thisIndex,trials_train_simon.ran,odd_target_pos,even_target_pos,odd_target_resp,odd_target_file,even_target_file,even_target_resp,odd_target_side,even_target_side,participant,date,expName,psychopyVersion,OS,frameRate,train_block_note_resp.keys,train_block_note_resp.rt,blocks_train.thisRepN,blocks_train.thisTrialN,blocks_train.thisN,blocks_train.thisIndex,blocks_train.ran,instruct_resp_timing.keys,instruct_resp_timing.corr,instruct_resp_timing.rt,trial_resp_timing.keys,trial_resp_timing.rt,trials_train_timing.thisRepN,trials_train_timing.thisTrialN,trials_train_timing.thisN,trials_train_timing.thisIndex,trials_train_timing.ran,instruct_resp.keys,instruct_resp.corr,instruct_resp.rt,trial_resp.keys,trial_resp.corr,trial_resp.rt,trial_num,too_slow,too_soon,trials.thisRepN,trials.thisTrialN,trials.thisN,trials.thisIndex,trials.ran,block_note_resp.keys,block_note_resp.rt,blocks.thisRepN,blocks.thisTrialN,blocks.thisN,blocks.thisIndex,blocks.ran
space,0,40.6327,left,1,2.6938,0,0.90537364,#a3d0fb,"[""-0.25"",""0""]",left_blue.png,left,0,0,0,2,1,,,left,left_blue.png,down_orange.png,down,left,down,60885d559ca52f07dd234260,2021-09-11_16h51.53.683,arrow_simon_vert,2021.1.2,Win32,60.11421701,,,,,,,,,,,,,,,,,,,,,,,,,,,,,,,,,,,,,,
,,,up,1,1.0272,0,0.020567319,#f3af84,"[""0"",""0.25""]",up_orange.png,up,0,1,1,1,1,,,right,right_blue.png,up_orange.png,up,right,up,60885d559ca52f07dd234260,2021-09-11_16h51.53.683,arrow_simon_vert,2021.1.2,Win32,60.11421701,,,,,,,,,,,,,,,,,,,,,,,,,,,,,,,,,,,,,,
,,,right,1,1.2274,0,0.480753636,#a3d0fb,"[""-0.25"",""0""]",right_blue.png,right,0,2,2,0,1,,,right,right_blue.png,up_orange.png,up,left,down,60885d559ca52f07dd234260,2021-09-11_16h51.53.683,arrow_simon_vert,2021.1.2,Win32,60.11421701,,,,,,,,,,,,,,,,,,,,,,,,,,,,,,,,,,,,,,
,,,down,1,1.6789,0,0.870269713,#f3af84,"[""0"",""0.25""]",down_orange.png,down,0,3,3,3,1,,,left,left_blue.png,down_orange.png,down,right,up,60885d559ca52f07dd234260,2021-09-11_16h51.53.683,arrow_simon_vert,2021.1.2,Win32,60.11421701,,,,,,,,,,,,,,,,,,,,,,,,,,,,,,,,,,,,,,
,,,left,1,1.1668,0,0.117564337,#a3d0fb,"[""0.25"",""0""]",left_blue.png,left,1,0,4,3,1,,,left,left_blue.png,down_orange.png,down,right,up,60885d559ca52f07dd234260,2021-09-11_16h51.53.683,arrow_simon_vert,2021.1.2,Win32,60.11421701,,,,,,,,,,,,,,,,,,,,,,,,,,,,,,,,,,,,,,
,,,down,1,1.3664,0,0.430991861,#f3af84,"[""0"",""-0.25""]",down_orange.png,down,1,1,5,2,1,,,left,left_blue.png,down_orange.png,down,left,down,60885d559ca52f07dd234260,2021-09-11_16h51.53.683,arrow_simon_vert,2021.1.2,Win32,60.11421701,,,,,,,,,,,,,,,,,,,,,,,,,,,,,,,,,,,,,,
,,,right,1,0.7997,0,0.026300989,#a3d0fb,"[""-0.25"",""0""]",right_blue.png,right,1,2,6,0,1,,,right,right_blue.png,up_orange.png,up,left,down,60885d559ca52f07dd234260,2021-09-11_16h51.53.683,arrow_simon_vert,2021.1.2,Win32,60.11421701,,,,,,,,,,,,,,,,,,,,,,,,,,,,,,,,,,,,,,
,,,down,1,1.9486,0,0.938731604,#f3af84,"[""0"",""-0.25""]",down_orange.png,down,1,3,7,2,1,,,left,left_blue.png,down_orange.png,down,left,down,60885d559ca52f07dd234260,2021-09-11_16h51.53.683,arrow_simon_vert,2021.1.2,Win32,60.11421701,,,,,,,,,,,,,,,,,,,,,,,,,,,,,,,,,,,,,,
,,,right,1,0.8662,0,0.071773923,#a3d0fb,"[""-0.25"",""0""]",right_blue.png,right,2,0,8,0,1,,,right,right_blue.png,up_orange.png,up,left,down,60885d559ca52f07dd234260,2021-09-11_16h51.53.683,arrow_simon_vert,2021.1.2,Win32,60.11421701,,,,,,,,,,,,,,,,,,,,,,,,,,,,,,,,,,,,,,
,,,down,1,1.7612,0,0.785193713,#f3af84,"[""0"",""0.25""]",down_orange.png,down,2,1,9,3,1,,,left,left_blue.png,down_orange.png,down,right,up,60885d559ca52f07dd234260,2021-09-11_16h51.53.683,arrow_simon_vert,2021.1.2,Win32,60.11421701,,,,,,,,,,,,,,,,,,,,,,,,,,,,,,,,,,,,,,
,,,left,1,1.2794,0,0.596158712,#a3d0fb,"[""-0.25"",""0""]",left_blue.png,left,2,2,10,2,1,,,left,left_blue.png,down_orange.png,down,left,down,60885d559ca52f07dd234260,2021-09-11_16h51.53.683,arrow_simon_vert,2021.1.2,Win32,60.11421701,,,,,,,,,,,,,,,,,,,,,,,,,,,,,,,,,,,,,,
,,,down,1,1.4179,0,0.365416832,#f3af84,"[""0"",""-0.25""]",down_orange.png,down,2,3,11,2,1,,,left,left_blue.png,down_orange.png,down,left,down,60885d559ca52f07dd234260,2021-09-11_16h51.53.683,arrow_simon_vert,2021.1.2,Win32,60.11421701,,,,,,,,,,,,,,,,,,,,,,,,,,,,,,,,,,,,,,
,,,left,1,1.298,0,0.330705659,#a3d0fb,"[""0.25"",""0""]",left_blue.png,left,3,0,12,3,1,,,left,left_blue.png,down_orange.png,down,right,up,60885d559ca52f07dd234260,2021-09-11_16h51.53.683,arrow_simon_vert,2021.1.2,Win32,60.11421701,,,,,,,,,,,,,,,,,,,,,,,,,,,,,,,,,,,,,,
,,,up,1,1.5165,0,0.842926505,#f3af84,"[""0"",""0.25""]",up_orange.png,up,3,1,13,1,1,,,right,right_blue.png,up_orange.png,up,right,up,60885d559ca52f07dd234260,2021-09-11_16h51.53.683,arrow_simon_vert,2021.1.2,Win32,60.11421701,,,,,,,,,,,,,,,,,,,,,,,,,,,,,,,,,,,,,,
,,,left,1,1.2487,0,0.759070038,#a3d0fb,"[""-0.25"",""0""]",left_blue.png,left,3,2,14,2,1,,,left,left_blue.png,down_orange.png,down,left,down,60885d559ca52f07dd234260,2021-09-11_16h51.53.683,arrow_simon_vert,2021.1.2,Win32,60.11421701,,,,,,,,,,,,,,,,,,,,,,,,,,,,,,,,,,,,,,
,,,up,1,0.8212,0,0.118336794,#f3af84,"[""0"",""0.25""]",up_orange.png,up,3,3,15,1,1,,,right,right_blue.png,up_orange.png,up,right,up,60885d559ca52f07dd234260,2021-09-11_16h51.53.683,arrow_simon_vert,2021.1.2,Win32,60.11421701,,,,,,,,,,,,,,,,,,,,,,,,,,,,,,,,,,,,,,
,,,left,1,0.8775,0,0.236491845,#a3d0fb,"[""-0.25"",""0""]",left_blue.png,left,4,0,16,2,1,,,left,left_blue.png,down_orange.png,down,left,down,60885d559ca52f07dd234260,2021-09-11_16h51.53.683,arrow_simon_vert,2021.1.2,Win32,60.11421701,,,,,,,,,,,,,,,,,,,,,,,,,,,,,,,,,,,,,,
,,,down,1,1.3673,0,0.461321697,#f3af84,"[""0"",""-0.25""]",down_orange.png,down,4,1,17,2,1,,,left,left_blue.png,down_orange.png,down,left,down,60885d559ca52f07dd234260,2021-09-11_16h51.53.683,arrow_simon_vert,2021.1.2,Win32,60.11421701,,,,,,,,,,,,,,,,,,,,,,,,,,,,,,,,,,,,,,
,,,left,1,1.5993,0,0.998337784,#a3d0fb,"[""0.25"",""0""]",left_blue.png,left,4,2,18,3,1,,,left,left_blue.png,down_orange.png,down,right,up,60885d559ca52f07dd234260,2021-09-11_16h51.53.683,arrow_simon_vert,2021.1.2,Win32,60.11421701,,,,,,,,,,,,,,,,,,,,,,,,,,,,,,,,,,,,,,
,,,down,1,1.2818,0,0.497778998,#f3af84,"[""0"",""-0.25""]",down_orange.png,down,4,3,19,2,1,,,left,left_blue.png,down_orange.png,down,left,down,60885d559ca52f07dd234260,2021-09-11_16h51.53.683,arrow_simon_vert,2021.1.2,Win32,60.11421701,,,,,,,,,,,,,,,,,,,,,,,,,,,,,,,,,,,,,,
,,,left,1,1.0012,0,0.409331132,#a3d0fb,"[""-0.25"",""0""]",left_blue.png,left,5,0,20,2,1,,,left,left_blue.png,down_orange.png,down,left,down,60885d559ca52f07dd234260,2021-09-11_16h51.53.683,arrow_simon_vert,2021.1.2,Win32,60.11421701,,,,,,,,,,,,,,,,,,,,,,,,,,,,,,,,,,,,,,
,,,up,1,1.7145,0,0.810174634,#f3af84,"[""0"",""-0.25""]",up_orange.png,up,5,1,21,0,1,,,right,right_blue.png,up_orange.png,up,left,down,60885d559ca52f07dd234260,2021-09-11_16h51.53.683,arrow_simon_vert,2021.1.2,Win32,60.11421701,,,,,,,,,,,,,,,,,,,,,,,,,,,,,,,,,,,,,,
,,,left,1,0.898,0,0.316940462,#a3d0fb,"[""-0.25"",""0""]",left_blue.png,left,5,2,22,2,1,,,left,left_blue.png,down_orange.png,down,left,down,60885d559ca52f07dd234260,2021-09-11_16h51.53.683,arrow_simon_vert,2021.1.2,Win32,60.11421701,,,,,,,,,,,,,,,,,,,,,,,,,,,,,,,,,,,,,,
,,,up,1,1.0444,0,0.237942378,#f3af84,"[""0"",""-0.25""]",up_orange.png,up,5,3,23,0,1,,,right,right_blue.png,up_orange.png,up,left,down,60885d559ca52f07dd234260,2021-09-11_16h51.53.683,arrow_simon_vert,2021.1.2,Win32,60.11421701,,,,,,,,,,,,,,,,,,,,,,,,,,,,,,,,,,,,,,
,,,left,1,0.7831,0,0.170485821,#a3d0fb,"[""0.25"",""0""]",left_blue.png,left,6,0,24,3,1,,,left,left_blue.png,down_orange.png,down,right,up,60885d559ca52f07dd234260,2021-09-11_16h51.53.683,arrow_simon_vert,2021.1.2,Win32,60.11421701,,,,,,,,,,,,,,,,,,,,,,,,,,,,,,,,,,,,,,
,,,up,1,0.7341,0,0.051761791,#f3af84,"[""0"",""0.25""]",up_orange.png,up,6,1,25,1,1,,,right,right_blue.png,up_orange.png,up,right,up,60885d559ca52f07dd234260,2021-09-11_16h51.53.683,arrow_simon_vert,2021.1.2,Win32,60.11421701,,,,,,,,,,,,,,,,,,,,,,,,,,,,,,,,,,,,,,
,,,left,1,0.8482,0,0.309823793,#a3d0fb,"[""-0.25"",""0""]",left_blue.png,left,6,2,26,2,1,,,left,left_blue.png,down_orange.png,down,left,down,60885d559ca52f07dd234260,2021-09-11_16h51.53.683,arrow_simon_vert,2021.1.2,Win32,60.11421701,,,,,,,,,,,,,,,,,,,,,,,,,,,,,,,,,,,,,,
,,,up,1,0.8695,0,0.162767836,#f3af84,"[""0"",""-0.25""]",up_orange.png,up,6,3,27,0,1,,,right,right_blue.png,up_orange.png,up,left,down,60885d559ca52f07dd234260,2021-09-11_16h51.53.683,arrow_simon_vert,2021.1.2,Win32,60.11421701,,,,,,,,,,,,,,,,,,,,,,,,,,,,,,,,,,,,,,
,,,right,1,1.1485,0,0.635438116,#a3d0fb,"[""0.25"",""0""]",right_blue.png,right,7,0,28,1,1,,,right,right_blue.png,up_orange.png,up,right,up,60885d559ca52f07dd234260,2021-09-11_16h51.53.683,arrow_simon_vert,2021.1.2,Win32,60.11421701,,,,,,,,,,,,,,,,,,,,,,,,,,,,,,,,,,,,,,
,,,up,1,1.2675,0,0.545841792,#f3af84,"[""0"",""-0.25""]",up_orange.png,up,7,1,29,0,1,,,right,right_blue.png,up_orange.png,up,left,down,60885d559ca52f07dd234260,2021-09-11_16h51.53.683,arrow_simon_vert,2021.1.2,Win32,60.11421701,,,,,,,,,,,,,,,,,,,,,,,,,,,,,,,,,,,,,,
,,,left,1,1.1128,0,0.5897762,#a3d0fb,"[""0.25"",""0""]",left_blue.png,left,7,2,30,3,1,,,left,left_blue.png,down_orange.png,down,right,up,60885d559ca52f07dd234260,2021-09-11_16h51.53.683,arrow_simon_vert,2021.1.2,Win32,60.11421701,,,,,,,,,,,,,,,,,,,,,,,,,,,,,,,,,,,,,,
,,,down,1,1.4822,0,0.029520599,#f3af84,"[""0"",""-0.25""]",down_orange.png,down,7,3,31,2,1,,,left,left_blue.png,down_orange.png,down,left,down,60885d559ca52f07dd234260,2021-09-11_16h51.53.683,arrow_simon_vert,2021.1.2,Win32,60.11421701,,,,,,,,,,,,,,,,,,,,,,,,,,,,,,,,,,,,,,
,,,right,1,1.6,0,0.999569916,#a3d0fb,"[""-0.25"",""0""]",right_blue.png,right,8,0,32,0,1,,,right,right_blue.png,up_orange.png,up,left,down,60885d559ca52f07dd234260,2021-09-11_16h51.53.683,arrow_simon_vert,2021.1.2,Win32,60.11421701,,,,,,,,,,,,,,,,,,,,,,,,,,,,,,,,,,,,,,
,,,up,1,1.5991,0,0.95491579,#f3af84,"[""0"",""0.25""]",up_orange.png,up,8,1,33,1,1,,,right,right_blue.png,up_orange.png,up,right,up,60885d559ca52f07dd234260,2021-09-11_16h51.53.683,arrow_simon_vert,2021.1.2,Win32,60.11421701,,,,,,,,,,,,,,,,,,,,,,,,,,,,,,,,,,,,,,
,,,right,1,0.6455,0,0.023158491,#a3d0fb,"[""-0.25"",""0""]",right_blue.png,right,8,2,34,0,1,,,right,right_blue.png,up_orange.png,up,left,down,60885d559ca52f07dd234260,2021-09-11_16h51.53.683,arrow_simon_vert,2021.1.2,Win32,60.11421701,,,,,,,,,,,,,,,,,,,,,,,,,,,,,,,,,,,,,,
,,,down,1,1.6524,0,0.938599712,#f3af84,"[""0"",""0.25""]",down_orange.png,down,8,3,35,3,1,,,left,left_blue.png,down_orange.png,down,right,up,60885d559ca52f07dd234260,2021-09-11_16h51.53.683,arrow_simon_vert,2021.1.2,Win32,60.11421701,,,,,,,,,,,,,,,,,,,,,,,,,,,,,,,,,,,,,,
,,,right,1,1.3469,0,0.863837392,#a3d0fb,"[""0.25"",""0""]",right_blue.png,right,9,0,36,1,1,,,right,right_blue.png,up_orange.png,up,right,up,60885d559ca52f07dd234260,2021-09-11_16h51.53.683,arrow_simon_vert,2021.1.2,Win32,60.11421701,,,,,,,,,,,,,,,,,,,,,,,,,,,,,,,,,,,,,,
,,,up,1,1.2991,0,0.733020648,#f3af84,"[""0"",""0.25""]",up_orange.png,up,9,1,37,1,1,,,right,right_blue.png,up_orange.png,up,right,up,60885d559ca52f07dd234260,2021-09-11_16h51.53.683,arrow_simon_vert,2021.1.2,Win32,60.11421701,,,,,,,,,,,,,,,,,,,,,,,,,,,,,,,,,,,,,,
,,,right,1,0.8465,0,0.352108019,#a3d0fb,"[""0.25"",""0""]",right_blue.png,right,9,2,38,1,1,,,right,right_blue.png,up_orange.png,up,right,up,60885d559ca52f07dd234260,2021-09-11_16h51.53.683,arrow_simon_vert,2021.1.2,Win32,60.11421701,,,,,,,,,,,,,,,,,,,,,,,,,,,,,,,,,,,,,,
,,,up,1,1.4768,0,0.835704443,#f3af84,"[""0"",""0.25""]",up_orange.png,up,9,3,39,1,1,,,right,right_blue.png,up_orange.png,up,right,up,60885d559ca52f07dd234260,2021-09-11_16h51.53.683,arrow_simon_vert,2021.1.2,Win32,60.11421701,,,,,,,,,,,,,,,,,,,,,,,,,,,,,,,,,,,,,,
,,,left,1,1.1951,0,0.687315825,#a3d0fb,"[""-0.25"",""0""]",left_blue.png,left,10,0,40,2,1,,,left,left_blue.png,down_orange.png,down,left,down,60885d559ca52f07dd234260,2021-09-11_16h51.53.683,arrow_simon_vert,2021.1.2,Win32,60.11421701,,,,,,,,,,,,,,,,,,,,,,,,,,,,,,,,,,,,,,
,,,down,1,1.7503,0,0.997601438,#f3af84,"[""0"",""0.25""]",down_orange.png,down,10,1,41,3,1,,,left,left_blue.png,down_orange.png,down,right,up,60885d559ca52f07dd234260,2021-09-11_16h51.53.683,arrow_simon_vert,2021.1.2,Win32,60.11421701,,,,,,,,,,,,,,,,,,,,,,,,,,,,,,,,,,,,,,
,,,left,1,1.5841,0,0.794169577,#a3d0fb,"[""-0.25"",""0""]",left_blue.png,left,10,2,42,2,1,,,left,left_blue.png,down_orange.png,down,left,down,60885d559ca52f07dd234260,2021-09-11_16h51.53.683,arrow_simon_vert,2021.1.2,Win32,60.11421701,,,,,,,,,,,,,,,,,,,,,,,,,,,,,,,,,,,,,,
,,,up,1,0.9459,0,0.23690906,#f3af84,"[""0"",""-0.25""]",up_orange.png,up,10,3,43,0,1,,,right,right_blue.png,up_orange.png,up,left,down,60885d559ca52f07dd234260,2021-09-11_16h51.53.683,arrow_simon_vert,2021.1.2,Win32,60.11421701,,,,,,,,,,,,,,,,,,,,,,,,,,,,,,,,,,,,,,
,,,right,1,1.4144,0,0.90891278,#a3d0fb,"[""-0.25"",""0""]",right_blue.png,right,11,0,44,0,1,,,right,right_blue.png,up_orange.png,up,left,down,60885d559ca52f07dd234260,2021-09-11_16h51.53.683,arrow_simon_vert,2021.1.2,Win32,60.11421701,,,,,,,,,,,,,,,,,,,,,,,,,,,,,,,,,,,,,,
,,,up,1,0.9814,0,0.306056553,#f3af84,"[""0"",""0.25""]",up_orange.png,up,11,1,45,1,1,,,right,right_blue.png,up_orange.png,up,right,up,60885d559ca52f07dd234260,2021-09-11_16h51.53.683,arrow_simon_vert,2021.1.2,Win32,60.11421701,,,,,,,,,,,,,,,,,,,,,,,,,,,,,,,,,,,,,,
,,,left,1,0.6973,0,0.154247549,#a3d0fb,"[""0.25"",""0""]",left_blue.png,left,11,2,46,3,1,,,left,left_blue.png,down_orange.png,down,right,up,60885d559ca52f07dd234260,2021-09-11_16h51.53.683,arrow_simon_vert,2021.1.2,Win32,60.11421701,,,,,,,,,,,,,,,,,,,,,,,,,,,,,,,,,,,,,,
,,,up,1,0.8928,0,0.228729293,#f3af84,"[""0"",""-0.25""]",up_orange.png,up,11,3,47,0,1,,,right,right_blue.png,up_orange.png,up,left,down,60885d559ca52f07dd234260,2021-09-11_16h51.53.683,arrow_simon_vert,2021.1.2,Win32,60.11421701,,,,,,,,,,,,,,,,,,,,,,,,,,,,,,,,,,,,,,
,,,right,1,1.3844,0,0.879320251,#a3d0fb,"[""0.25"",""0""]",right_blue.png,right,12,0,48,1,1,,,right,right_blue.png,up_orange.png,up,right,up,60885d559ca52f07dd234260,2021-09-11_16h51.53.683,arrow_simon_vert,2021.1.2,Win32,60.11421701,,,,,,,,,,,,,,,,,,,,,,,,,,,,,,,,,,,,,,
,,,up,1,1.1659,0,0.649616812,#f3af84,"[""0"",""0.25""]",up_orange.png,up,12,1,49,1,1,,,right,right_blue.png,up_orange.png,up,right,up,60885d559ca52f07dd234260,2021-09-11_16h51.53.683,arrow_simon_vert,2021.1.2,Win32,60.11421701,,,,,,,,,,,,,,,,,,,,,,,,,,,,,,,,,,,,,,
,,,right,1,0.5638,0,0.073751363,#a3d0fb,"[""0.25"",""0""]",right_blue.png,right,12,2,50,1,1,,,right,right_blue.png,up_orange.png,up,right,up,60885d559ca52f07dd234260,2021-09-11_16h51.53.683,arrow_simon_vert,2021.1.2,Win32,60.11421701,,,,,,,,,,,,,,,,,,,,,,,,,,,,,,,,,,,,,,
,,,down,1,1.5151,0,0.779674899,#f3af84,"[""0"",""0.25""]",down_orange.png,down,12,3,51,3,1,,,left,left_blue.png,down_orange.png,down,right,up,60885d559ca52f07dd234260,2021-09-11_16h51.53.683,arrow_simon_vert,2021.1.2,Win32,60.11421701,,,,,,,,,,,,,,,,,,,,,,,,,,,,,,,,,,,,,,
,,,left,1,1.1147,0,0.532840646,#a3d0fb,"[""0.25"",""0""]",left_blue.png,left,13,0,52,3,1,,,left,left_blue.png,down_orange.png,down,right,up,60885d559ca52f07dd234260,2021-09-11_16h51.53.683,arrow_simon_vert,2021.1.2,Win32,60.11421701,,,,,,,,,,,,,,,,,,,,,,,,,,,,,,,,,,,,,,
,,,up,1,1.2484,0,0.70410447,#f3af84,"[""0"",""0.25""]",up_orange.png,up,13,1,53,1,1,,,right,right_blue.png,up_orange.png,up,right,up,60885d559ca52f07dd234260,2021-09-11_16h51.53.683,arrow_simon_vert,2021.1.2,Win32,60.11421701,,,,,,,,,,,,,,,,,,,,,,,,,,,,,,,,,,,,,,
,,,right,1,0.7463,0,0.104611305,#a3d0fb,"[""-0.25"",""0""]",right_blue.png,right,13,2,54,0,1,,,right,right_blue.png,up_orange.png,up,left,down,60885d559ca52f07dd234260,2021-09-11_16h51.53.683,arrow_simon_vert,2021.1.2,Win32,60.11421701,,,,,,,,,,,,,,,,,,,,,,,,,,,,,,,,,,,,,,
,,,up,1,1.4511,0,0.699236557,#f3af84,"[""0"",""-0.25""]",up_orange.png,up,13,3,55,0,1,,,right,right_blue.png,up_orange.png,up,left,down,60885d559ca52f07dd234260,2021-09-11_16h51.53.683,arrow_simon_vert,2021.1.2,Win32,60.11421701,,,,,,,,,,,,,,,,,,,,,,,,,,,,,,,,,,,,,,
,,,left,1,1.4977,0,0.956539738,#a3d0fb,"[""0.25"",""0""]",left_blue.png,left,14,0,56,3,1,,,left,left_blue.png,down_orange.png,down,right,up,60885d559ca52f07dd234260,2021-09-11_16h51.53.683,arrow_simon_vert,2021.1.2,Win32,60.11421701,,,,,,,,,,,,,,,,,,,,,,,,,,,,,,,,,,,,,,
,,,down,1,1.2211,0,0.18149844,#f3af84,"[""0"",""0.25""]",down_orange.png,down,14,1,57,3,1,,,left,left_blue.png,down_orange.png,down,right,up,60885d559ca52f07dd234260,2021-09-11_16h51.53.683,arrow_simon_vert,2021.1.2,Win32,60.11421701,,,,,,,,,,,,,,,,,,,,,,,,,,,,,,,,,,,,,,
,,,right,1,1.6921,0,0.846093913,#a3d0fb,"[""-0.25"",""0""]",right_blue.png,right,14,2,58,0,1,,,right,right_blue.png,up_orange.png,up,left,down,60885d559ca52f07dd234260,2021-09-11_16h51.53.683,arrow_simon_vert,2021.1.2,Win32,60.11421701,,,,,,,,,,,,,,,,,,,,,,,,,,,,,,,,,,,,,,
,,,down,1,1.6311,0,0.991397166,#f3af84,"[""0"",""0.25""]",down_orange.png,down,14,3,59,3,1,,,left,left_blue.png,down_orange.png,down,right,up,60885d559ca52f07dd234260,2021-09-11_16h51.53.683,arrow_simon_vert,2021.1.2,Win32,60.11421701,,,,,,,,,,,,,,,,,,,,,,,,,,,,,,,,,,,,,,
,,,,,,,,,,,,,,,,,,,,,,,,,60885d559ca52f07dd234260,2021-09-11_16h51.53.683,arrow_simon_vert,2021.1.2,Win32,60.11421701,space,72.3981,0,0,0,0,1,,,,,,,,,,,,,,,,,,,,,,,,,,,,,,,
,,,right,1,0.8152,0,0.161334487,#a3d0fb,"[""0.25"",""0""]",right_blue.png,right,0,0,0,1,1,,,right,right_blue.png,up_orange.png,up,right,up,60885d559ca52f07dd234260,2021-09-11_16h51.53.683,arrow_simon_vert,2021.1.2,Win32,60.11421701,,,,,,,,,,,,,,,,,,,,,,,,,,,,,,,,,,,,,,
,,,down,1,1.1632,0,0.463761123,#f3af84,"[""0"",""-0.25""]",down_orange.png,down,0,1,1,2,1,,,left,left_blue.png,down_orange.png,down,left,down,60885d559ca52f07dd234260,2021-09-11_16h51.53.683,arrow_simon_vert,2021.1.2,Win32,60.11421701,,,,,,,,,,,,,,,,,,,,,,,,,,,,,,,,,,,,,,
,,,right,1,1.5481,0,0.831148839,#a3d0fb,"[""0.25"",""0""]",right_blue.png,right,0,2,2,1,1,,,right,right_blue.png,up_orange.png,up,right,up,60885d559ca52f07dd234260,2021-09-11_16h51.53.683,arrow_simon_vert,2021.1.2,Win32,60.11421701,,,,,,,,,,,,,,,,,,,,,,,,,,,,,,,,,,,,,,
,,,down,1,1.7144,0,0.871861426,#f3af84,"[""0"",""-0.25""]",down_orange.png,down,0,3,3,2,1,,,left,left_blue.png,down_orange.png,down,left,down,60885d559ca52f07dd234260,2021-09-11_16h51.53.683,arrow_simon_vert,2021.1.2,Win32,60.11421701,,,,,,,,,,,,,,,,,,,,,,,,,,,,,,,,,,,,,,
,,,right,1,1.1329,0,0.708426094,#a3d0fb,"[""0.25"",""0""]",right_blue.png,right,1,0,4,1,1,,,right,right_blue.png,up_orange.png,up,right,up,60885d559ca52f07dd234260,2021-09-11_16h51.53.683,arrow_simon_vert,2021.1.2,Win32,60.11421701,,,,,,,,,,,,,,,,,,,,,,,,,,,,,,,,,,,,,,
,,,up,1,1.5038,0,0.89186307,#f3af84,"[""0"",""0.25""]",up_orange.png,up,1,1,5,1,1,,,right,right_blue.png,up_orange.png,up,right,up,60885d559ca52f07dd234260,2021-09-11_16h51.53.683,arrow_simon_vert,2021.1.2,Win32,60.11421701,,,,,,,,,,,,,,,,,,,,,,,,,,,,,,,,,,,,,,
,,,left,1,1.1988,0,0.028029319,#a3d0fb,"[""-0.25"",""0""]",left_blue.png,left,1,2,6,2,1,,,left,left_blue.png,down_orange.png,down,left,down,60885d559ca52f07dd234260,2021-09-11_16h51.53.683,arrow_simon_vert,2021.1.2,Win32,60.11421701,,,,,,,,,,,,,,,,,,,,,,,,,,,,,,,,,,,,,,
,,,down,1,1.5087,0,0.865794186,#f3af84,"[""0"",""-0.25""]",down_orange.png,down,1,3,7,2,1,,,left,left_blue.png,down_orange.png,down,left,down,60885d559ca52f07dd234260,2021-09-11_16h51.53.683,arrow_simon_vert,2021.1.2,Win32,60.11421701,,,,,,,,,,,,,,,,,,,,,,,,,,,,,,,,,,,,,,
,,,left,1,1.5119,0,0.914190417,#a3d0fb,"[""0.25"",""0""]",left_blue.png,left,2,0,8,3,1,,,left,left_blue.png,down_orange.png,down,right,up,60885d559ca52f07dd234260,2021-09-11_16h51.53.683,arrow_simon_vert,2021.1.2,Win32,60.11421701,,,,,,,,,,,,,,,,,,,,,,,,,,,,,,,,,,,,,,
,,,up,1,1.0007,0,0.184984429,#f3af84,"[""0"",""0.25""]",up_orange.png,up,2,1,9,1,1,,,right,right_blue.png,up_orange.png,up,right,up,60885d559ca52f07dd234260,2021-09-11_16h51.53.683,arrow_simon_vert,2021.1.2,Win32,60.11421701,,,,,,,,,,,,,,,,,,,,,,,,,,,,,,,,,,,,,,
,,,right,1,1.5979,0,0.9843276,#a3d0fb,"[""-0.25"",""0""]",right_blue.png,right,2,2,10,0,1,,,right,right_blue.png,up_orange.png,up,left,down,60885d559ca52f07dd234260,2021-09-11_16h51.53.683,arrow_simon_vert,2021.1.2,Win32,60.11421701,,,,,,,,,,,,,,,,,,,,,,,,,,,,,,,,,,,,,,
,,,up,1,1.2613,0,0.556258545,#f3af84,"[""0"",""-0.25""]",up_orange.png,up,2,3,11,0,1,,,right,right_blue.png,up_orange.png,up,left,down,60885d559ca52f07dd234260,2021-09-11_16h51.53.683,arrow_simon_vert,2021.1.2,Win32,60.11421701,,,,,,,,,,,,,,,,,,,,,,,,,,,,,,,,,,,,,,
,,,left,1,0.7304,0,0.077506673,#a3d0fb,"[""0.25"",""0""]",left_blue.png,left,3,0,12,3,1,,,left,left_blue.png,down_orange.png,down,right,up,60885d559ca52f07dd234260,2021-09-11_16h51.53.683,arrow_simon_vert,2021.1.2,Win32,60.11421701,,,,,,,,,,,,,,,,,,,,,,,,,,,,,,,,,,,,,,
,,,down,1,0.927,0,0.183248151,#f3af84,"[""0"",""-0.25""]",down_orange.png,down,3,1,13,2,1,,,left,left_blue.png,down_orange.png,down,left,down,60885d559ca52f07dd234260,2021-09-11_16h51.53.683,arrow_simon_vert,2021.1.2,Win32,60.11421701,,,,,,,,,,,,,,,,,,,,,,,,,,,,,,,,,,,,,,
,,,right,1,1.0595,0,0.545294381,#a3d0fb,"[""0.25"",""0""]",right_blue.png,right,3,2,14,1,1,,,right,right_blue.png,up_orange.png,up,right,up,60885d559ca52f07dd234260,2021-09-11_16h51.53.683,arrow_simon_vert,2021.1.2,Win32,60.11421701,,,,,,,,,,,,,,,,,,,,,,,,,,,,,,,,,,,,,,
,,,down,1,1.1487,0,0.555664073,#f3af84,"[""0"",""-0.25""]",down_orange.png,down,3,3,15,2,1,,,left,left_blue.png,down_orange.png,down,left,down,60885d559ca52f07dd234260,2021-09-11_16h51.53.683,arrow_simon_vert,2021.1.2,Win32,60.11421701,,,,,,,,,,,,,,,,,,,,,,,,,,,,,,,,,,,,,,
,,,right,1,0.7489,0,0.205726199,#a3d0fb,"[""-0.25"",""0""]",right_blue.png,right,4,0,16,0,1,,,right,right_blue.png,up_orange.png,up,left,down,60885d559ca52f07dd234260,2021-09-11_16h51.53.683,arrow_simon_vert,2021.1.2,Win32,60.11421701,,,,,,,,,,,,,,,,,,,,,,,,,,,,,,,,,,,,,,
,,,up,1,1.2276,0,0.629812029,#f3af84,"[""0"",""0.25""]",up_orange.png,up,4,1,17,1,1,,,right,right_blue.png,up_orange.png,up,right,up,60885d559ca52f07dd234260,2021-09-11_16h51.53.683,arrow_simon_vert,2021.1.2,Win32,60.11421701,,,,,,,,,,,,,,,,,,,,,,,,,,,,,,,,,,,,,,
,,,right,1,1.3623,0,0.763473171,#a3d0fb,"[""-0.25"",""0""]",right_blue.png,right,4,2,18,0,1,,,right,right_blue.png,up_orange.png,up,left,down,60885d559ca52f07dd234260,2021-09-11_16h51.53.683,arrow_simon_vert,2021.1.2,Win32,60.11421701,,,,,,,,,,,,,,,,,,,,,,,,,,,,,,,,,,,,,,
,,,down,1,0.9496,0,0.176838208,#f3af84,"[""0"",""0.25""]",down_orange.png,down,4,3,19,3,1,,,left,left_blue.png,down_orange.png,down,right,up,60885d559ca52f07dd234260,2021-09-11_16h51.53.683,arrow_simon_vert,2021.1.2,Win32,60.11421701,,,,,,,,,,,,,,,,,,,,,,,,,,,,,,,,,,,,,,
,,,left,1,1.2094,0,0.60809532,#a3d0fb,"[""0.25"",""0""]",left_blue.png,left,5,0,20,3,1,,,left,left_blue.png,down_orange.png,down,right,up,60885d559ca52f07dd234260,2021-09-11_16h51.53.683,arrow_simon_vert,2021.1.2,Win32,60.11421701,,,,,,,,,,,,,,,,,,,,,,,,,,,,,,,,,,,,,,
,,,up,1,1.0854,0,0.429246516,#f3af84,"[""0"",""-0.25""]",up_orange.png,up,5,1,21,0,1,,,right,right_blue.png,up_orange.png,up,left,down,60885d559ca52f07dd234260,2021-09-11_16h51.53.683,arrow_simon_vert,2021.1.2,Win32,60.11421701,,,,,,,,,,,,,,,,,,,,,,,,,,,,,,,,,,,,,,
,,,left,1,1.4761,0,0.517838863,#a3d0fb,"[""0.25"",""0""]",left_blue.png,left,5,2,22,3,1,,,left,left_blue.png,down_orange.png,down,right,up,60885d559ca52f07dd234260,2021-09-11_16h51.53.683,arrow_simon_vert,2021.1.2,Win32,60.11421701,,,,,,,,,,,,,,,,,,,,,,,,,,,,,,,,,,,,,,
,,,up,1,0.8548,0,0.293861293,#f3af84,"[""0"",""0.25""]",up_orange.png,up,5,3,23,1,1,,,right,right_blue.png,up_orange.png,up,right,up,60885d559ca52f07dd234260,2021-09-11_16h51.53.683,arrow_simon_vert,2021.1.2,Win32,60.11421701,,,,,,,,,,,,,,,,,,,,,,,,,,,,,,,,,,,,,,
,,,right,1,0.5825,0,0.050109477,#a3d0fb,"[""0.25"",""0""]",right_blue.png,right,6,0,24,1,1,,,right,right_blue.png,up_orange.png,up,right,up,60885d559ca52f07dd234260,2021-09-11_16h51.53.683,arrow_simon_vert,2021.1.2,Win32,60.11421701,,,,,,,,,,,,,,,,,,,,,,,,,,,,,,,,,,,,,,
,,,up,1,0.6767,0,0.112509755,#f3af84,"[""0"",""0.25""]",up_orange.png,up,6,1,25,1,1,,,right,right_blue.png,up_orange.png,up,right,up,60885d559ca52f07dd234260,2021-09-11_16h51.53.683,arrow_simon_vert,2021.1.2,Win32,60.11421701,,,,,,,,,,,,,,,,,,,,,,,,,,,,,,,,,,,,,,
,,,left,1,1.3506,0,0.797562265,#a3d0fb,"[""0.25"",""0""]",left_blue.png,left,6,2,26,3,1,,,left,left_blue.png,down_orange.png,down,right,up,60885d559ca52f07dd234260,2021-09-11_16h51.53.683,arrow_simon_vert,2021.1.2,Win32,60.11421701,,,,,,,,,,,,,,,,,,,,,,,,,,,,,,,,,,,,,,
,,,down,1,1.5837,0,0.908694662,#f3af84,"[""0"",""-0.25""]",down_orange.png,down,6,3,27,2,1,,,left,left_blue.png,down_orange.png,down,left,down,60885d559ca52f07dd234260,2021-09-11_16h51.53.683,arrow_simon_vert,2021.1.2,Win32,60.11421701,,,,,,,,,,,,,,,,,,,,,,,,,,,,,,,,,,,,,,
,,,right,1,1.3679,0,0.718843138,#a3d0fb,"[""-0.25"",""0""]",right_blue.png,right,7,0,28,0,1,,,right,right_blue.png,up_orange.png,up,left,down,60885d559ca52f07dd234260,2021-09-11_16h51.53.683,arrow_simon_vert,2021.1.2,Win32,60.11421701,,,,,,,,,,,,,,,,,,,,,,,,,,,,,,,,,,,,,,
,,,down,1,1.6343,0,0.974880531,#f3af84,"[""0"",""-0.25""]",down_orange.png,down,7,1,29,2,1,,,left,left_blue.png,down_orange.png,down,left,down,60885d559ca52f07dd234260,2021-09-11_16h51.53.683,arrow_simon_vert,2021.1.2,Win32,60.11421701,,,,,,,,,,,,,,,,,,,,,,,,,,,,,,,,,,,,,,
,,,left,1,1.0322,0,0.093601655,#a3d0fb,"[""0.25"",""0""]",left_blue.png,left,7,2,30,3,1,,,left,left_blue.png,down_orange.png,down,right,up,60885d559ca52f07dd234260,2021-09-11_16h51.53.683,arrow_simon_vert,2021.1.2,Win32,60.11421701,,,,,,,,,,,,,,,,,,,,,,,,,,,,,,,,,,,,,,
,,,down,1,1.5994,0,0.765169757,#f3af84,"[""0"",""-0.25""]",down_orange.png,down,7,3,31,2,1,,,left,left_blue.png,down_orange.png,down,left,down,60885d559ca52f07dd234260,2021-09-11_16h51.53.683,arrow_simon_vert,2021.1.2,Win32,60.11421701,,,,,,,,,,,,,,,,,,,,,,,,,,,,,,,,,,,,,,
,,,right,1,0.883,0,0.219029723,#a3d0fb,"[""-0.25"",""0""]",right_blue.png,right,8,0,32,0,1,,,right,right_blue.png,up_orange.png,up,left,down,60885d559ca52f07dd234260,2021-09-11_16h51.53.683,arrow_simon_vert,2021.1.2,Win32,60.11421701,,,,,,,,,,,,,,,,,,,,,,,,,,,,,,,,,,,,,,
,,,up,1,1.1517,0,0.55080951,#f3af84,"[""0"",""0.25""]",up_orange.png,up,8,1,33,1,1,,,right,right_blue.png,up_orange.png,up,right,up,60885d559ca52f07dd234260,2021-09-11_16h51.53.683,arrow_simon_vert,2021.1.2,Win32,60.11421701,,,,,,,,,,,,,,,,,,,,,,,,,,,,,,,,,,,,,,
,,,left,1,1.4836,0,0.519838789,#a3d0fb,"[""0.25"",""0""]",left_blue.png,left,8,2,34,3,1,,,left,left_blue.png,down_orange.png,down,right,up,60885d559ca52f07dd234260,2021-09-11_16h51.53.683,arrow_simon_vert,2021.1.2,Win32,60.11421701,,,,,,,,,,,,,,,,,,,,,,,,,,,,,,,,,,,,,,
,,,down,1,0.8164,0,0.043119092,#f3af84,"[""0"",""0.25""]",down_orange.png,down,8,3,35,3,1,,,left,left_blue.png,down_orange.png,down,right,up,60885d559ca52f07dd234260,2021-09-11_16h51.53.683,arrow_simon_vert,2021.1.2,Win32,60.11421701,,,,,,,,,,,,,,,,,,,,,,,,,,,,,,,,,,,,,,
,,,right,1,0.915,0,0.315835126,#a3d0fb,"[""-0.25"",""0""]",right_blue.png,right,9,0,36,0,1,,,right,right_blue.png,up_orange.png,up,left,down,60885d559ca52f07dd234260,2021-09-11_16h51.53.683,arrow_simon_vert,2021.1.2,Win32,60.11421701,,,,,,,,,,,,,,,,,,,,,,,,,,,,,,,,,,,,,,
,,,down,1,0.6689,0,0.008512706,#f3af84,"[""0"",""0.25""]",down_orange.png,down,9,1,37,3,1,,,left,left_blue.png,down_orange.png,down,right,up,60885d559ca52f07dd234260,2021-09-11_16h51.53.683,arrow_simon_vert,2021.1.2,Win32,60.11421701,,,,,,,,,,,,,,,,,,,,,,,,,,,,,,,,,,,,,,
,,,left,1,0.7985,0,0.162208579,#a3d0fb,"[""0.25"",""0""]",left_blue.png,left,9,2,38,3,1,,,left,left_blue.png,down_orange.png,down,right,up,60885d559ca52f07dd234260,2021-09-11_16h51.53.683,arrow_simon_vert,2021.1.2,Win32,60.11421701,,,,,,,,,,,,,,,,,,,,,,,,,,,,,,,,,,,,,,
,,,down,1,1.7942,0,0.986694511,#f3af84,"[""0"",""0.25""]",down_orange.png,down,9,3,39,3,1,,,left,left_blue.png,down_orange.png,down,right,up,60885d559ca52f07dd234260,2021-09-11_16h51.53.683,arrow_simon_vert,2021.1.2,Win32,60.11421701,,,,,,,,,,,,,,,,,,,,,,,,,,,,,,,,,,,,,,
,,,right,1,1.5647,0,0.800989917,#a3d0fb,"[""0.25"",""0""]",right_blue.png,right,10,0,40,1,1,,,right,right_blue.png,up_orange.png,up,right,up,60885d559ca52f07dd234260,2021-09-11_16h51.53.683,arrow_simon_vert,2021.1.2,Win32,60.11421701,,,,,,,,,,,,,,,,,,,,,,,,,,,,,,,,,,,,,,
,,,down,1,1.2662,0,0.379338482,#f3af84,"[""0"",""-0.25""]",down_orange.png,down,10,1,41,2,1,,,left,left_blue.png,down_orange.png,down,left,down,60885d559ca52f07dd234260,2021-09-11_16h51.53.683,arrow_simon_vert,2021.1.2,Win32,60.11421701,,,,,,,,,,,,,,,,,,,,,,,,,,,,,,,,,,,,,,
,,,left,1,0.8826,0,0.013707017,#a3d0fb,"[""-0.25"",""0""]",left_blue.png,left,10,2,42,2,1,,,left,left_blue.png,down_orange.png,down,left,down,60885d559ca52f07dd234260,2021-09-11_16h51.53.683,arrow_simon_vert,2021.1.2,Win32,60.11421701,,,,,,,,,,,,,,,,,,,,,,,,,,,,,,,,,,,,,,
,,,down,1,1.6812,0,0.978008867,#f3af84,"[""0"",""0.25""]",down_orange.png,down,10,3,43,3,1,,,left,left_blue.png,down_orange.png,down,right,up,60885d559ca52f07dd234260,2021-09-11_16h51.53.683,arrow_simon_vert,2021.1.2,Win32,60.11421701,,,,,,,,,,,,,,,,,,,,,,,,,,,,,,,,,,,,,,
,,,right,1,1.2117,0,0.51548702,#a3d0fb,"[""-0.25"",""0""]",right_blue.png,right,11,0,44,0,1,,,right,right_blue.png,up_orange.png,up,left,down,60885d559ca52f07dd234260,2021-09-11_16h51.53.683,arrow_simon_vert,2021.1.2,Win32,60.11421701,,,,,,,,,,,,,,,,,,,,,,,,,,,,,,,,,,,,,,
,,,down,1,1.5426,0,0.617889513,#f3af84,"[""0"",""-0.25""]",down_orange.png,down,11,1,45,2,1,,,left,left_blue.png,down_orange.png,down,left,down,60885d559ca52f07dd234260,2021-09-11_16h51.53.683,arrow_simon_vert,2021.1.2,Win32,60.11421701,,,,,,,,,,,,,,,,,,,,,,,,,,,,,,,,,,,,,,
,,,right,1,1.3746,0,0.787195341,#a3d0fb,"[""-0.25"",""0""]",right_blue.png,right,11,2,46,0,1,,,right,right_blue.png,up_orange.png,up,left,down,60885d559ca52f07dd234260,2021-09-11_16h51.53.683,arrow_simon_vert,2021.1.2,Win32,60.11421701,,,,,,,,,,,,,,,,,,,,,,,,,,,,,,,,,,,,,,
,,,down,1,0.7235,0,0.002862413,#f3af84,"[""0"",""0.25""]",down_orange.png,down,11,3,47,3,1,,,left,left_blue.png,down_orange.png,down,right,up,60885d559ca52f07dd234260,2021-09-11_16h51.53.683,arrow_simon_vert,2021.1.2,Win32,60.11421701,,,,,,,,,,,,,,,,,,,,,,,,,,,,,,,,,,,,,,
,,,right,1,0.9629,0,0.355143302,#a3d0fb,"[""0.25"",""0""]",right_blue.png,right,12,0,48,1,1,,,right,right_blue.png,up_orange.png,up,right,up,60885d559ca52f07dd234260,2021-09-11_16h51.53.683,arrow_simon_vert,2021.1.2,Win32,60.11421701,,,,,,,,,,,,,,,,,,,,,,,,,,,,,,,,,,,,,,
,,,up,1,1.3815,0,0.783413657,#f3af84,"[""0"",""-0.25""]",up_orange.png,up,12,1,49,0,1,,,right,right_blue.png,up_orange.png,up,left,down,60885d559ca52f07dd234260,2021-09-11_16h51.53.683,arrow_simon_vert,2021.1.2,Win32,60.11421701,,,,,,,,,,,,,,,,,,,,,,,,,,,,,,,,,,,,,,
,,,right,1,0.9654,0,0.281330097,#a3d0fb,"[""-0.25"",""0""]",right_blue.png,right,12,2,50,0,1,,,right,right_blue.png,up_orange.png,up,left,down,60885d559ca52f07dd234260,2021-09-11_16h51.53.683,arrow_simon_vert,2021.1.2,Win32,60.11421701,,,,,,,,,,,,,,,,,,,,,,,,,,,,,,,,,,,,,,
,,,up,1,0.9155,0,0.351420411,#f3af84,"[""0"",""-0.25""]",up_orange.png,up,12,3,51,0,1,,,right,right_blue.png,up_orange.png,up,left,down,60885d559ca52f07dd234260,2021-09-11_16h51.53.683,arrow_simon_vert,2021.1.2,Win32,60.11421701,,,,,,,,,,,,,,,,,,,,,,,,,,,,,,,,,,,,,,
,,,right,1,1.3668,0,0.866600452,#a3d0fb,"[""0.25"",""0""]",right_blue.png,right,13,0,52,1,1,,,right,right_blue.png,up_orange.png,up,right,up,60885d559ca52f07dd234260,2021-09-11_16h51.53.683,arrow_simon_vert,2021.1.2,Win32,60.11421701,,,,,,,,,,,,,,,,,,,,,,,,,,,,,,,,,,,,,,
,,,up,1,0.7487,0,0.205759799,#f3af84,"[""0"",""-0.25""]",up_orange.png,up,13,1,53,0,1,,,right,right_blue.png,up_orange.png,up,left,down,60885d559ca52f07dd234260,2021-09-11_16h51.53.683,arrow_simon_vert,2021.1.2,Win32,60.11421701,,,,,,,,,,,,,,,,,,,,,,,,,,,,,,,,,,,,,,
,,,left,1,1.1318,0,0.57674203,#a3d0fb,"[""-0.25"",""0""]",left_blue.png,left,13,2,54,2,1,,,left,left_blue.png,down_orange.png,down,left,down,60885d559ca52f07dd234260,2021-09-11_16h51.53.683,arrow_simon_vert,2021.1.2,Win32,60.11421701,,,,,,,,,,,,,,,,,,,,,,,,,,,,,,,,,,,,,,
,,,up,1,0.7588,0,0.235230379,#f3af84,"[""0"",""0.25""]",up_orange.png,up,13,3,55,1,1,,,right,right_blue.png,up_orange.png,up,right,up,60885d559ca52f07dd234260,2021-09-11_16h51.53.683,arrow_simon_vert,2021.1.2,Win32,60.11421701,,,,,,,,,,,,,,,,,,,,,,,,,,,,,,,,,,,,,,
,,,left,1,1.5009,0,0.900832621,#a3d0fb,"[""-0.25"",""0""]",left_blue.png,left,14,0,56,2,1,,,left,left_blue.png,down_orange.png,down,left,down,60885d559ca52f07dd234260,2021-09-11_16h51.53.683,arrow_simon_vert,2021.1.2,Win32,60.11421701,,,,,,,,,,,,,,,,,,,,,,,,,,,,,,,,,,,,,,
,,,down,1,1.3002,0,0.513222276,#f3af84,"[""0"",""0.25""]",down_orange.png,down,14,1,57,3,1,,,left,left_blue.png,down_orange.png,down,right,up,60885d559ca52f07dd234260,2021-09-11_16h51.53.683,arrow_simon_vert,2021.1.2,Win32,60.11421701,,,,,,,,,,,,,,,,,,,,,,,,,,,,,,,,,,,,,,
,,,left,1,0.6696,0,0.051244947,#a3d0fb,"[""-0.25"",""0""]",left_blue.png,left,14,2,58,2,1,,,left,left_blue.png,down_orange.png,down,left,down,60885d559ca52f07dd234260,2021-09-11_16h51.53.683,arrow_simon_vert,2021.1.2,Win32,60.11421701,,,,,,,,,,,,,,,,,,,,,,,,,,,,,,,,,,,,,,
,,,up,1,0.8342,0,0.193442358,#f3af84,"[""0"",""-0.25""]",up_orange.png,up,14,3,59,0,1,,,right,right_blue.png,up_orange.png,up,left,down,60885d559ca52f07dd234260,2021-09-11_16h51.53.683,arrow_simon_vert,2021.1.2,Win32,60.11421701,,,,,,,,,,,,,,,,,,,,,,,,,,,,,,,,,,,,,,
,,,,,,,,,,,,,,,,,,,,,,,,,60885d559ca52f07dd234260,2021-09-11_16h51.53.683,arrow_simon_vert,2021.1.2,Win32,60.11421701,space,81.1914,1,0,1,0,1,,,,,,,,,,,,,,,,,,,,,,,,,,,,,,,
,,,,,,,,,,,,,,,,,,,,,,,,,60885d559ca52f07dd234260,2021-09-11_16h51.53.683,arrow_simon_vert,2021.1.2,Win32,60.11421701,,,,,,,,space,0,42.6832,right,2.9288,0,0,0,0,1,,,,,,,,,,,,,,,,,,,,,
,,,,,,,,,,,,,,,,,,,,,,,,,60885d559ca52f07dd234260,2021-09-11_16h51.53.683,arrow_simon_vert,2021.1.2,Win32,60.11421701,,,,,,,,,,,down,3.0848,1,0,1,0,1,,,,,,,,,,,,,,,,,,,,,
,,,,,,,,,,,,,,,,,,,,,,,,,60885d559ca52f07dd234260,2021-09-11_16h51.53.683,arrow_simon_vert,2021.1.2,Win32,60.11421701,,,,,,,,,,,up,3.0339,2,0,2,0,1,,,,,,,,,,,,,,,,,,,,,
,,,,,,,,,,,,,,,,,,,,,,,,,60885d559ca52f07dd234260,2021-09-11_16h51.53.683,arrow_simon_vert,2021.1.2,Win32,60.11421701,,,,,,,,,,,left,2.8769,3,0,3,0,1,,,,,,,,,,,,,,,,,,,,,
,,,,,,,,,,,,,,,,,,,,,,,,,60885d559ca52f07dd234260,2021-09-11_16h51.53.683,arrow_simon_vert,2021.1.2,Win32,60.11421701,,,,,,,,,,,right,3.0011,4,0,4,0,1,,,,,,,,,,,,,,,,,,,,,
,,,,,,,,,,,,,,,,,,,,,,,,,60885d559ca52f07dd234260,2021-09-11_16h51.53.683,arrow_simon_vert,2021.1.2,Win32,60.11421701,,,,,,,,,,,down,2.2643,5,0,5,0,1,,,,,,,,,,,,,,,,,,,,,
,,,,,,,,,,,,,,,,,,,,,,,,,60885d559ca52f07dd234260,2021-09-11_16h51.53.683,arrow_simon_vert,2021.1.2,Win32,60.11421701,,,,,,,,,,,down,2.7649,6,0,6,0,1,,,,,,,,,,,,,,,,,,,,,
,,,,,,,,,,,,,,,,,,,,,,,,,60885d559ca52f07dd234260,2021-09-11_16h51.53.683,arrow_simon_vert,2021.1.2,Win32,60.11421701,,,,,,,,,,,up,2.7871,7,0,7,0,1,,,,,,,,,,,,,,,,,,,,,
,,,,,,,,,,,,,,,,,,,,,,,,,60885d559ca52f07dd234260,2021-09-11_16h51.53.683,arrow_simon_vert,2021.1.2,Win32,60.11421701,,,,,,,,,,,up,2.4809,8,0,8,0,1,,,,,,,,,,,,,,,,,,,,,
,,,,,,,,,,,,,,,,,,,,,,,,,60885d559ca52f07dd234260,2021-09-11_16h51.53.683,arrow_simon_vert,2021.1.2,Win32,60.11421701,,,,,,,,,,,down,2.8465,9,0,9,0,1,,,,,,,,,,,,,,,,,,,,,
,,,,,,,,,,,,,,,,,,,,,,,,,60885d559ca52f07dd234260,2021-09-11_16h51.53.683,arrow_simon_vert,2021.1.2,Win32,60.11421701,,,,,,,,,,,left,2.7635,10,0,10,0,1,,,,,,,,,,,,,,,,,,,,,
,,,,,,,,,,,,,,,,,,,,,,,,,60885d559ca52f07dd234260,2021-09-11_16h51.53.683,arrow_simon_vert,2021.1.2,Win32,60.11421701,,,,,,,,,,,left,2.2509,11,0,11,0,1,,,,,,,,,,,,,,,,,,,,,
,,,,,,,,,,,,,,,,,,,,,,,,,60885d559ca52f07dd234260,2021-09-11_16h51.53.683,arrow_simon_vert,2021.1.2,Win32,60.11421701,,,,,,,,,,,right,2.5702,12,0,12,0,1,,,,,,,,,,,,,,,,,,,,,
,,,,,,,,,,,,,,,,,,,,,,,,,60885d559ca52f07dd234260,2021-09-11_16h51.53.683,arrow_simon_vert,2021.1.2,Win32,60.11421701,,,,,,,,,,,right,2.9473,13,0,13,0,1,,,,,,,,,,,,,,,,,,,,,
,,,,,,,,,,,,,,,,,,,,,,,,,60885d559ca52f07dd234260,2021-09-11_16h51.53.683,arrow_simon_vert,2021.1.2,Win32,60.11421701,,,,,,,,,,,left,2.8153,14,0,14,0,1,,,,,,,,,,,,,,,,,,,,,
,,,,,,,,,,,,,,,,,,,,,,,,,60885d559ca52f07dd234260,2021-09-11_16h51.53.683,arrow_simon_vert,2021.1.2,Win32,60.11421701,,,,,,,,,,,right,2.2979,15,0,15,0,1,,,,,,,,,,,,,,,,,,,,,
,,,,,,,,,,,,,,,,,,,,,,,,,60885d559ca52f07dd234260,2021-09-11_16h51.53.683,arrow_simon_vert,2021.1.2,Win32,60.11421701,,,,,,,,,,,right,2.216,16,0,16,0,1,,,,,,,,,,,,,,,,,,,,,
,,,,,,,,,,,,,,,,,,,,,,,,,60885d559ca52f07dd234260,2021-09-11_16h51.53.683,arrow_simon_vert,2021.1.2,Win32,60.11421701,,,,,,,,,,,left,2.7994,17,0,17,0,1,,,,,,,,,,,,,,,,,,,,,
,,,,,,,,,,,,,,,,,,,,,,,,,60885d559ca52f07dd234260,2021-09-11_16h51.53.683,arrow_simon_vert,2021.1.2,Win32,60.11421701,,,,,,,,,,,left,2.8021,18,0,18,0,1,,,,,,,,,,,,,,,,,,,,,
,,,,,,,,,,,,,,,,,,,,,,,,,60885d559ca52f07dd234260,2021-09-11_16h51.53.683,arrow_simon_vert,2021.1.2,Win32,60.11421701,,,,,,,,,,,right,2.2986,19,0,19,0,1,,,,,,,,,,,,,,,,,,,,,
,,,,,,,,,,,,,,,,,,,,,,,,,60885d559ca52f07dd234260,2021-09-11_16h51.53.683,arrow_simon_vert,2021.1.2,Win32,60.11421701,,,,,,,,,,,right,2.5419,20,0,20,0,1,,,,,,,,,,,,,,,,,,,,,
,,,,,,,,,,,,,,,,,,,,,,,,,60885d559ca52f07dd234260,2021-09-11_16h51.53.683,arrow_simon_vert,2021.1.2,Win32,60.11421701,,,,,,,,,,,left,2.2314,21,0,21,0,1,,,,,,,,,,,,,,,,,,,,,
,,,,,,,,,,,,,,,,,,,,,,,,,60885d559ca52f07dd234260,2021-09-11_16h51.53.683,arrow_simon_vert,2021.1.2,Win32,60.11421701,,,,,,,,,,,left,2.5334,22,0,22,0,1,,,,,,,,,,,,,,,,,,,,,
,,,,,,,,,,,,,,,,,,,,,,,,,60885d559ca52f07dd234260,2021-09-11_16h51.53.683,arrow_simon_vert,2021.1.2,Win32,60.11421701,,,,,,,,,,,right,2.5299,23,0,23,0,1,,,,,,,,,,,,,,,,,,,,,
,,,,,,,,,,,,,,,,,,,,,,,,,60885d559ca52f07dd234260,2021-09-11_16h51.53.683,arrow_simon_vert,2021.1.2,Win32,60.11421701,,,,,,,,,,,left,2.5845,24,0,24,0,1,,,,,,,,,,,,,,,,,,,,,
,,,,,,,,,,,,,,,,,,,,,,,,,60885d559ca52f07dd234260,2021-09-11_16h51.53.683,arrow_simon_vert,2021.1.2,Win32,60.11421701,,,,,,,,,,,right,2.5858,25,0,25,0,1,,,,,,,,,,,,,,,,,,,,,
,,,,,,,,,,,,,,,,,,,,,,,,,60885d559ca52f07dd234260,2021-09-11_16h51.53.683,arrow_simon_vert,2021.1.2,Win32,60.11421701,,,,,,,,,,,left,2.6691,26,0,26,0,1,,,,,,,,,,,,,,,,,,,,,
,,,,,,,,,,,,,,,,,,,,,,,,,60885d559ca52f07dd234260,2021-09-11_16h51.53.683,arrow_simon_vert,2021.1.2,Win32,60.11421701,,,,,,,,,,,down,2.2318,27,0,27,0,1,,,,,,,,,,,,,,,,,,,,,
,,,,,,,,,,,,,,,,,,,,,,,,,60885d559ca52f07dd234260,2021-09-11_16h51.53.683,arrow_simon_vert,2021.1.2,Win32,60.11421701,,,,,,,,,,,left,2.2981,28,0,28,0,1,,,,,,,,,,,,,,,,,,,,,
,,,,,,,,,,,,,,,,,,,,,,,,,60885d559ca52f07dd234260,2021-09-11_16h51.53.683,arrow_simon_vert,2021.1.2,Win32,60.11421701,,,,,,,,,,,down,2.4661,29,0,29,0,1,,,,,,,,,,,,,,,,,,,,,
,,,,,,,,,,,,,,,,,,,,,,,,,60885d559ca52f07dd234260,2021-09-11_16h51.53.683,arrow_simon_vert,2021.1.2,Win32,60.11421701,,,,,,,,,,,left,2.4782,30,0,30,0,1,,,,,,,,,,,,,,,,,,,,,
,,,,,,,,,,,,,,,,,,,,,,,,,60885d559ca52f07dd234260,2021-09-11_16h51.53.683,arrow_simon_vert,2021.1.2,Win32,60.11421701,,,,,,,,,,,down,2.515,31,0,31,0,1,,,,,,,,,,,,,,,,,,,,,
,,,,,,,,,,,,,,,,,,,,,,,,,60885d559ca52f07dd234260,2021-09-11_16h51.53.683,arrow_simon_vert,2021.1.2,Win32,60.11421701,,,,,,,,,,,left,2.5331,32,0,32,0,1,,,,,,,,,,,,,,,,,,,,,
,,,,,,,,,,,,,,,,,,,,,,,,,60885d559ca52f07dd234260,2021-09-11_16h51.53.683,arrow_simon_vert,2021.1.2,Win32,60.11421701,,,,,,,,,,,down,2.6999,33,0,33,0,1,,,,,,,,,,,,,,,,,,,,,
,,,,,,,,,,,,,,,,,,,,,,,,,60885d559ca52f07dd234260,2021-09-11_16h51.53.683,arrow_simon_vert,2021.1.2,Win32,60.11421701,,,,,,,,,,,left,2.5184,34,0,34,0,1,,,,,,,,,,,,,,,,,,,,,
,,,,,,,,,,,,,,,,,,,,,,,,,60885d559ca52f07dd234260,2021-09-11_16h51.53.683,arrow_simon_vert,2021.1.2,Win32,60.11421701,,,,,,,,,,,down,2.0679,35,0,35,0,1,,,,,,,,,,,,,,,,,,,,,
,,,,,,,,,,,,,,,,,,,,,,,,,60885d559ca52f07dd234260,2021-09-11_16h51.53.683,arrow_simon_vert,2021.1.2,Win32,60.11421701,,,,,,,,,,,left,2.1662,36,0,36,0,1,,,,,,,,,,,,,,,,,,,,,
,,,,,,,,,,,,,,,,,,,,,,,,,60885d559ca52f07dd234260,2021-09-11_16h51.53.683,arrow_simon_vert,2021.1.2,Win32,60.11421701,,,,,,,,,,,down,2.2982,37,0,37,0,1,,,,,,,,,,,,,,,,,,,,,
,,,,,,,,,,,,,,,,,,,,,,,,,60885d559ca52f07dd234260,2021-09-11_16h51.53.683,arrow_simon_vert,2021.1.2,Win32,60.11421701,,,,,,,,,,,left,2.418,38,0,38,0,1,,,,,,,,,,,,,,,,,,,,,
,,,,,,,,,,,,,,,,,,,,,,,,,60885d559ca52f07dd234260,2021-09-11_16h51.53.683,arrow_simon_vert,2021.1.2,Win32,60.11421701,,,,,,,,,,,down,2.3644,39,0,39,0,1,,,,,,,,,,,,,,,,,,,,,
,,,,,,,,,,,,,,,,,,,,,,,,,60885d559ca52f07dd234260,2021-09-11_16h51.53.683,arrow_simon_vert,2021.1.2,Win32,60.11421701,,,,,,,,,,,left,2.4274,40,0,40,0,1,,,,,,,,,,,,,,,,,,,,,
,,,,,,,,,,,,,,,,,,,,,,,,,60885d559ca52f07dd234260,2021-09-11_16h51.53.683,arrow_simon_vert,2021.1.2,Win32,60.11421701,,,,,,,,,,,down,2.4087,41,0,41,0,1,,,,,,,,,,,,,,,,,,,,,
,,,,,,,,,,,,,,,,,,,,,,,,,60885d559ca52f07dd234260,2021-09-11_16h51.53.683,arrow_simon_vert,2021.1.2,Win32,60.11421701,,,,,,,,,,,left,2.4661,42,0,42,0,1,,,,,,,,,,,,,,,,,,,,,
,,,,,,,,,,,,,,,,,,,,,,,,,60885d559ca52f07dd234260,2021-09-11_16h51.53.683,arrow_simon_vert,2021.1.2,Win32,60.11421701,,,,,,,,,,,down,2.5327,43,0,43,0,1,,,,,,,,,,,,,,,,,,,,,
,,,,,,,,,,,,,,,,,,,,,,,,,60885d559ca52f07dd234260,2021-09-11_16h51.53.683,arrow_simon_vert,2021.1.2,Win32,60.11421701,,,,,,,,,,,left,2.6155,44,0,44,0,1,,,,,,,,,,,,,,,,,,,,,
,,,,,,,,,,,,,,,,,,,,,,,,,60885d559ca52f07dd234260,2021-09-11_16h51.53.683,arrow_simon_vert,2021.1.2,Win32,60.11421701,,,,,,,,,,,down,2.5286,45,0,45,0,1,,,,,,,,,,,,,,,,,,,,,
,,,,,,,,,,,,,,,,,,,,,,,,,60885d559ca52f07dd234260,2021-09-11_16h51.53.683,arrow_simon_vert,2021.1.2,Win32,60.11421701,,,,,,,,,,,left,2.4151,46,0,46,0,1,,,,,,,,,,,,,,,,,,,,,
,,,,,,,,,,,,,,,,,,,,,,,,,60885d559ca52f07dd234260,2021-09-11_16h51.53.683,arrow_simon_vert,2021.1.2,Win32,60.11421701,,,,,,,,,,,down,2.5123,47,0,47,0,1,,,,,,,,,,,,,,,,,,,,,
,,,,,,,,,,,,,,,,,,,,,,,,,60885d559ca52f07dd234260,2021-09-11_16h51.53.683,arrow_simon_vert,2021.1.2,Win32,60.11421701,,,,,,,,,,,left,2.4824,48,0,48,0,1,,,,,,,,,,,,,,,,,,,,,
,,,,,,,,,,,,,,,,,,,,,,,,,60885d559ca52f07dd234260,2021-09-11_16h51.53.683,arrow_simon_vert,2021.1.2,Win32,60.11421701,,,,,,,,,,,down,2.4932,49,0,49,0,1,,,,,,,,,,,,,,,,,,,,,
,,,,,,,,,,,,,,,,,,,,,,,,,60885d559ca52f07dd234260,2021-09-11_16h51.53.683,arrow_simon_vert,2021.1.2,Win32,60.11421701,,,,,,,,,,,left,2.4483,50,0,50,0,1,,,,,,,,,,,,,,,,,,,,,
,,,,,,,,,,,,,,,,,,,,,,,,,60885d559ca52f07dd234260,2021-09-11_16h51.53.683,arrow_simon_vert,2021.1.2,Win32,60.11421701,,,,,,,,,,,down,2.5175,51,0,51,0,1,,,,,,,,,,,,,,,,,,,,,
,,,,,,,,,,,,,,,,,,,,,,,,,60885d559ca52f07dd234260,2021-09-11_16h51.53.683,arrow_simon_vert,2021.1.2,Win32,60.11421701,,,,,,,,,,,left,2.4965,52,0,52,0,1,,,,,,,,,,,,,,,,,,,,,
,,,,,,,,,,,,,,,,,,,,,,,,,60885d559ca52f07dd234260,2021-09-11_16h51.53.683,arrow_simon_vert,2021.1.2,Win32,60.11421701,,,,,,,,,,,down,2.5786,53,0,53,0,1,,,,,,,,,,,,,,,,,,,,,
,,,,,,,,,,,,,,,,,,,,,,,,,60885d559ca52f07dd234260,2021-09-11_16h51.53.683,arrow_simon_vert,2021.1.2,Win32,60.11421701,,,,,,,,,,,left,2.5321,54,0,54,0,1,,,,,,,,,,,,,,,,,,,,,
,,,,,,,,,,,,,,,,,,,,,,,,,60885d559ca52f07dd234260,2021-09-11_16h51.53.683,arrow_simon_vert,2021.1.2,Win32,60.11421701,,,,,,,,,,,down,2.5993,55,0,55,0,1,,,,,,,,,,,,,,,,,,,,,
,,,,,,,,,,,,,,,,,,,,,,,,,60885d559ca52f07dd234260,2021-09-11_16h51.53.683,arrow_simon_vert,2021.1.2,Win32,60.11421701,,,,,,,,,,,left,2.5313,56,0,56,0,1,,,,,,,,,,,,,,,,,,,,,
,,,,,,,,,,,,,,,,,,,,,,,,,60885d559ca52f07dd234260,2021-09-11_16h51.53.683,arrow_simon_vert,2021.1.2,Win32,60.11421701,,,,,,,,,,,down,2.5825,57,0,57,0,1,,,,,,,,,,,,,,,,,,,,,
,,,,,,,,,,,,,,,,,,,,,,,,,60885d559ca52f07dd234260,2021-09-11_16h51.53.683,arrow_simon_vert,2021.1.2,Win32,60.11421701,,,,,,,,,,,left,2.4482,58,0,58,0,1,,,,,,,,,,,,,,,,,,,,,
,,,,,,,,,,,,,,,,,,,,,,,,,60885d559ca52f07dd234260,2021-09-11_16h51.53.683,arrow_simon_vert,2021.1.2,Win32,60.11421701,,,,,,,,,,,down,2.5014,59,0,59,0,1,,,,,,,,,,,,,,,,,,,,,
,,,,,,0,2.104051633,#a3d0fb,"[""0.25"",""0""]",left_blue.png,left,,,,,,,,left,left_blue.png,down_orange.png,down,right,up,60885d559ca52f07dd234260,2021-09-11_16h51.53.683,arrow_simon_vert,2021.1.2,Win32,60.11421701,,,,,,,,,,,,,,,,,,space,0,72.4166,left,1,1.1517,1,FALSE,TRUE,0,0,0,3,1,,,,,,,
,,,,,,0,1.75689028,#f3af84,"[""0"",""-0.25""]",up_orange.png,up,,,,,,,,right,right_blue.png,up_orange.png,up,left,down,60885d559ca52f07dd234260,2021-09-11_16h51.53.683,arrow_simon_vert,2021.1.2,Win32,60.11421701,,,,,,,,,,,,,,,,,,,,,down,0,1.1902,2,FALSE,TRUE,0,1,1,0,1,,,,,,,
,,,,,,0,2.160221175,#a3d0fb,"[""-0.25"",""0""]",left_blue.png,left,,,,,,,,left,left_blue.png,down_orange.png,down,left,down,60885d559ca52f07dd234260,2021-09-11_16h51.53.683,arrow_simon_vert,2021.1.2,Win32,60.11421701,,,,,,,,,,,,,,,,,,,,,left,1,1.5331,3,FALSE,FALSE,0,2,2,2,1,,,,,,,
,,,,,,0,2.175478239,#f3af84,"[""0"",""-0.25""]",down_orange.png,down,,,,,,,,left,left_blue.png,down_orange.png,down,left,down,60885d559ca52f07dd234260,2021-09-11_16h51.53.683,arrow_simon_vert,2021.1.2,Win32,60.11421701,,,,,,,,,,,,,,,,,,,,,down,1,1.6497,4,TRUE,FALSE,0,3,3,2,1,,,,,,,
,,,,,,0,1.504415933,#a3d0fb,"[""0.25"",""0""]",right_blue.png,right,,,,,,,,right,right_blue.png,up_orange.png,up,right,up,60885d559ca52f07dd234260,2021-09-11_16h51.53.683,arrow_simon_vert,2021.1.2,Win32,60.11421701,,,,,,,,,,,,,,,,,,,,,right,1,0.9679,5,FALSE,TRUE,1,0,4,1,1,,,,,,,
,,,,,,0,1.569223017,#f3af84,"[""0"",""0.25""]",down_orange.png,down,,,,,,,,left,left_blue.png,down_orange.png,down,right,up,60885d559ca52f07dd234260,2021-09-11_16h51.53.683,arrow_simon_vert,2021.1.2,Win32,60.11421701,,,,,,,,,,,,,,,,,,,,,up,0,1.0396,6,FALSE,TRUE,1,1,5,3,1,,,,,,,
,,,,,,0,2.152987658,#a3d0fb,"[""0.25"",""0""]",right_blue.png,right,,,,,,,,right,right_blue.png,up_orange.png,up,right,up,60885d559ca52f07dd234260,2021-09-11_16h51.53.683,arrow_simon_vert,2021.1.2,Win32,60.11421701,,,,,,,,,,,,,,,,,,,,,down,0,1.0496,7,FALSE,TRUE,1,2,6,1,1,,,,,,,
,,,,,,0,2.136529909,#f3af84,"[""0"",""-0.25""]",down_orange.png,down,,,,,,,,left,left_blue.png,down_orange.png,down,left,down,60885d559ca52f07dd234260,2021-09-11_16h51.53.683,arrow_simon_vert,2021.1.2,Win32,60.11421701,,,,,,,,,,,,,,,,,,,,,right,0,1.634,8,TRUE,FALSE,1,3,7,2,1,,,,,,,
,,,,,,0,2.062915322,#a3d0fb,"[""0.25"",""0""]",right_blue.png,right,,,,,,,,right,right_blue.png,up_orange.png,up,right,up,60885d559ca52f07dd234260,2021-09-11_16h51.53.683,arrow_simon_vert,2021.1.2,Win32,60.11421701,,,,,,,,,,,,,,,,,,,,,right,1,1.4876,9,FALSE,FALSE,2,0,8,1,1,,,,,,,
,,,,,,0,1.537510931,#f3af84,"[""0"",""0.25""]",down_orange.png,down,,,,,,,,left,left_blue.png,down_orange.png,down,right,up,60885d559ca52f07dd234260,2021-09-11_16h51.53.683,arrow_simon_vert,2021.1.2,Win32,60.11421701,,,,,,,,,,,,,,,,,,,,,down,1,1.0307,10,FALSE,TRUE,2,1,9,3,1,,,,,,,
,,,,,,0,2.258338502,#a3d0fb,"[""0.25"",""0""]",right_blue.png,right,,,,,,,,right,right_blue.png,up_orange.png,up,right,up,60885d559ca52f07dd234260,2021-09-11_16h51.53.683,arrow_simon_vert,2021.1.2,Win32,60.11421701,,,,,,,,,,,,,,,,,,,,,right,1,1.6164,11,TRUE,FALSE,2,2,10,1,1,,,,,,,
,,,,,,1,2.233215228,#f3af84,"[""0"",""-0.25""]",up_orange.png,up,,,,,,,,right,right_blue.png,up_orange.png,up,left,down,60885d559ca52f07dd234260,2021-09-11_16h51.53.683,arrow_simon_vert,2021.1.2,Win32,60.11421701,,,,,,,,,,,,,,,,,,,,,down,0,1.5845,12,FALSE,FALSE,2,3,11,0,1,,,,,,,
,,,,,,1,2.31073837,#a3d0fb,"[""-0.25"",""0""]",left_blue.png,left,,,,,,,,left,left_blue.png,down_orange.png,down,left,down,60885d559ca52f07dd234260,2021-09-11_16h51.53.683,arrow_simon_vert,2021.1.2,Win32,60.11421701,,,,,,,,,,,,,,,,,,,,,left,1,2.0669,13,TRUE,FALSE,3,0,12,2,1,,,,,,,
,,,,,,1,2.230448392,#f3af84,"[""0"",""-0.25""]",up_orange.png,up,,,,,,,,right,right_blue.png,up_orange.png,up,left,down,60885d559ca52f07dd234260,2021-09-11_16h51.53.683,arrow_simon_vert,2021.1.2,Win32,60.11421701,,,,,,,,,,,,,,,,,,,,,down,0,1.6456,14,TRUE,FALSE,3,1,13,0,1,,,,,,,
,,,,,,1,2.142947249,#a3d0fb,"[""-0.25"",""0""]",right_blue.png,right,,,,,,,,right,right_blue.png,up_orange.png,up,left,down,60885d559ca52f07dd234260,2021-09-11_16h51.53.683,arrow_simon_vert,2021.1.2,Win32,60.11421701,,,,,,,,,,,,,,,,,,,,,right,1,1.6845,15,TRUE,FALSE,3,2,14,0,1,,,,,,,
,,,,,,1,1.797168934,#f3af84,"[""0"",""-0.25""]",up_orange.png,up,,,,,,,,right,right_blue.png,up_orange.png,up,left,down,60885d559ca52f07dd234260,2021-09-11_16h51.53.683,arrow_simon_vert,2021.1.2,Win32,60.11421701,,,,,,,,,,,,,,,,,,,,,up,1,1.3871,16,FALSE,TRUE,3,3,15,0,1,,,,,,,
,,,,,,1,2.380980661,#a3d0fb,"[""0.25"",""0""]",right_blue.png,right,,,,,,,,right,right_blue.png,up_orange.png,up,right,up,60885d559ca52f07dd234260,2021-09-11_16h51.53.683,arrow_simon_vert,2021.1.2,Win32,60.11421701,,,,,,,,,,,,,,,,,,,,,right,1,1.7398,17,TRUE,FALSE,4,0,16,1,1,,,,,,,
,,,,,,1,2.40554362,#f3af84,"[""0"",""-0.25""]",down_orange.png,down,,,,,,,,left,left_blue.png,down_orange.png,down,left,down,60885d559ca52f07dd234260,2021-09-11_16h51.53.683,arrow_simon_vert,2021.1.2,Win32,60.11421701,,,,,,,,,,,,,,,,,,,,,down,1,1.7678,18,TRUE,FALSE,4,1,17,2,1,,,,,,,
,,,,,,1,2.446529485,#a3d0fb,"[""0.25"",""0""]",right_blue.png,right,,,,,,,,right,right_blue.png,up_orange.png,up,right,up,60885d559ca52f07dd234260,2021-09-11_16h51.53.683,arrow_simon_vert,2021.1.2,Win32,60.11421701,,,,,,,,,,,,,,,,,,,,,right,1,1.8341,19,TRUE,FALSE,4,2,18,1,1,,,,,,,
,,,,,,1,2.417244296,#f3af84,"[""0"",""-0.25""]",down_orange.png,down,,,,,,,,left,left_blue.png,down_orange.png,down,left,down,60885d559ca52f07dd234260,2021-09-11_16h51.53.683,arrow_simon_vert,2021.1.2,Win32,60.11421701,,,,,,,,,,,,,,,,,,,,,down,1,1.9013,20,TRUE,FALSE,4,3,19,2,1,,,,,,,
,,,,,,1,2.255644031,#a3d0fb,"[""0.25"",""0""]",left_blue.png,left,,,,,,,,left,left_blue.png,down_orange.png,down,right,up,60885d559ca52f07dd234260,2021-09-11_16h51.53.683,arrow_simon_vert,2021.1.2,Win32,60.11421701,,,,,,,,,,,,,,,,,,,,,right,0,1.5816,21,FALSE,FALSE,5,0,20,3,1,,,,,,,
,,,,,,1,2.302309266,#f3af84,"[""0"",""0.25""]",up_orange.png,up,,,,,,,,right,right_blue.png,up_orange.png,up,right,up,60885d559ca52f07dd234260,2021-09-11_16h51.53.683,arrow_simon_vert,2021.1.2,Win32,60.11421701,,,,,,,,,,,,,,,,,,,,,up,1,1.735,22,TRUE,FALSE,5,1,21,1,1,,,,,,,
,,,,,,0,1.669391869,#a3d0fb,"[""-0.25"",""0""]",right_blue.png,right,,,,,,,,right,right_blue.png,up_orange.png,up,left,down,60885d559ca52f07dd234260,2021-09-11_16h51.53.683,arrow_simon_vert,2021.1.2,Win32,60.11421701,,,,,,,,,,,,,,,,,,,,,right,1,1.4521,23,FALSE,FALSE,5,2,22,0,1,,,,,,,
,,,,,,0,2.426736918,#f3af84,"[""0"",""-0.25""]",down_orange.png,down,,,,,,,,left,left_blue.png,down_orange.png,down,left,down,60885d559ca52f07dd234260,2021-09-11_16h51.53.683,arrow_simon_vert,2021.1.2,Win32,60.11421701,,,,,,,,,,,,,,,,,,,,,down,1,1.9015,24,TRUE,FALSE,5,3,23,2,1,,,,,,,
,,,,,,0,1.830537487,#a3d0fb,"[""0.25"",""0""]",left_blue.png,left,,,,,,,,left,left_blue.png,down_orange.png,down,right,up,60885d559ca52f07dd234260,2021-09-11_16h51.53.683,arrow_simon_vert,2021.1.2,Win32,60.11421701,,,,,,,,,,,,,,,,,,,,,right,0,1.2343,25,FALSE,TRUE,6,0,24,3,1,,,,,,,
,,,,,,0,2.389009118,#f3af84,"[""0"",""0.25""]",up_orange.png,up,,,,,,,,right,right_blue.png,up_orange.png,up,right,up,60885d559ca52f07dd234260,2021-09-11_16h51.53.683,arrow_simon_vert,2021.1.2,Win32,60.11421701,,,,,,,,,,,,,,,,,,,,,up,1,2.3857,26,TRUE,FALSE,6,1,25,1,1,,,,,,,
,,,,,,0,1.609717331,#a3d0fb,"[""-0.25"",""0""]",right_blue.png,right,,,,,,,,right,right_blue.png,up_orange.png,up,left,down,60885d559ca52f07dd234260,2021-09-11_16h51.53.683,arrow_simon_vert,2021.1.2,Win32,60.11421701,,,,,,,,,,,,,,,,,,,,,right,1,1.0483,27,FALSE,TRUE,6,2,26,0,1,,,,,,,
,,,,,,0,2.236659275,#f3af84,"[""0"",""0.25""]",up_orange.png,up,,,,,,,,right,right_blue.png,up_orange.png,up,right,up,60885d559ca52f07dd234260,2021-09-11_16h51.53.683,arrow_simon_vert,2021.1.2,Win32,60.11421701,,,,,,,,,,,,,,,,,,,,,up,1,1.975,28,TRUE,FALSE,6,3,27,1,1,,,,,,,
,,,,,,0,1.59160881,#a3d0fb,"[""-0.25"",""0""]",right_blue.png,right,,,,,,,,right,right_blue.png,up_orange.png,up,left,down,60885d559ca52f07dd234260,2021-09-11_16h51.53.683,arrow_simon_vert,2021.1.2,Win32,60.11421701,,,,,,,,,,,,,,,,,,,,,right,1,1.592,29,FALSE,FALSE,7,0,28,0,1,,,,,,,
,,,,,,0,2.468847173,#f3af84,"[""0"",""0.25""]",down_orange.png,down,,,,,,,,left,left_blue.png,down_orange.png,down,right,up,60885d559ca52f07dd234260,2021-09-11_16h51.53.683,arrow_simon_vert,2021.1.2,Win32,60.11421701,,,,,,,,,,,,,,,,,,,,,up,0,1.8479,30,TRUE,FALSE,7,1,29,3,1,,,,,,,
,,,,,,0,2.409085325,#a3d0fb,"[""0.25"",""0""]",left_blue.png,left,,,,,,,,left,left_blue.png,down_orange.png,down,right,up,60885d559ca52f07dd234260,2021-09-11_16h51.53.683,arrow_simon_vert,2021.1.2,Win32,60.11421701,,,,,,,,,,,,,,,,,,,,,left,1,1.9649,31,TRUE,FALSE,7,2,30,3,1,,,,,,,
,,,,,,1,2.143167503,#f3af84,"[""0"",""-0.25""]",up_orange.png,up,,,,,,,,right,right_blue.png,up_orange.png,up,left,down,60885d559ca52f07dd234260,2021-09-11_16h51.53.683,arrow_simon_vert,2021.1.2,Win32,60.11421701,,,,,,,,,,,,,,,,,,,,,down,0,1.5832,32,FALSE,FALSE,7,3,31,0,1,,,,,,,
,,,,,,1,1.780335311,#a3d0fb,"[""0.25"",""0""]",left_blue.png,left,,,,,,,,left,left_blue.png,down_orange.png,down,right,up,60885d559ca52f07dd234260,2021-09-11_16h51.53.683,arrow_simon_vert,2021.1.2,Win32,60.11421701,,,,,,,,,,,,,,,,,,,,,left,1,1.2823,33,FALSE,TRUE,8,0,32,3,1,,,,,,,
,,,,,,1,2.307678588,#f3af84,"[""0"",""-0.25""]",down_orange.png,down,,,,,,,,left,left_blue.png,down_orange.png,down,left,down,60885d559ca52f07dd234260,2021-09-11_16h51.53.683,arrow_simon_vert,2021.1.2,Win32,60.11421701,,,,,,,,,,,,,,,,,,,,,down,1,1.9894,34,TRUE,FALSE,8,1,33,2,1,,,,,,,
,,,,,,1,1.646529211,#a3d0fb,"[""-0.25"",""0""]",left_blue.png,left,,,,,,,,left,left_blue.png,down_orange.png,down,left,down,60885d559ca52f07dd234260,2021-09-11_16h51.53.683,arrow_simon_vert,2021.1.2,Win32,60.11421701,,,,,,,,,,,,,,,,,,,,,left,1,1.0908,35,FALSE,TRUE,8,2,34,2,1,,,,,,,
,,,,,,1,1.656402588,#f3af84,"[""0"",""-0.25""]",up_orange.png,up,,,,,,,,right,right_blue.png,up_orange.png,up,left,down,60885d559ca52f07dd234260,2021-09-11_16h51.53.683,arrow_simon_vert,2021.1.2,Win32,60.11421701,,,,,,,,,,,,,,,,,,,,,up,1,1.3385,36,FALSE,TRUE,8,3,35,0,1,,,,,,,
,,,,,,1,1.614278582,#a3d0fb,"[""-0.25"",""0""]",right_blue.png,right,,,,,,,,right,right_blue.png,up_orange.png,up,left,down,60885d559ca52f07dd234260,2021-09-11_16h51.53.683,arrow_simon_vert,2021.1.2,Win32,60.11421701,,,,,,,,,,,,,,,,,,,,,right,1,1.3008,37,FALSE,TRUE,9,0,36,0,1,,,,,,,
,,,,,,0,1.694779736,#f3af84,"[""0"",""0.25""]",up_orange.png,up,,,,,,,,right,right_blue.png,up_orange.png,up,right,up,60885d559ca52f07dd234260,2021-09-11_16h51.53.683,arrow_simon_vert,2021.1.2,Win32,60.11421701,,,,,,,,,,,,,,,,,,,,,up,1,1.5009,38,FALSE,FALSE,9,1,37,1,1,,,,,,,
,,,,,,0,1.756872361,#a3d0fb,"[""-0.25"",""0""]",left_blue.png,left,,,,,,,,left,left_blue.png,down_orange.png,down,left,down,60885d559ca52f07dd234260,2021-09-11_16h51.53.683,arrow_simon_vert,2021.1.2,Win32,60.11421701,,,,,,,,,,,,,,,,,,,,,left,1,1.3846,39,FALSE,TRUE,9,2,38,2,1,,,,,,,
,,,,,,0,2.487041498,#f3af84,"[""0"",""0.25""]",up_orange.png,up,,,,,,,,right,right_blue.png,up_orange.png,up,right,up,60885d559ca52f07dd234260,2021-09-11_16h51.53.683,arrow_simon_vert,2021.1.2,Win32,60.11421701,,,,,,,,,,,,,,,,,,,,,up,1,2.1199,40,TRUE,FALSE,9,3,39,1,1,,,,,,,
,,,,,,0,1.99443068,#a3d0fb,"[""-0.25"",""0""]",right_blue.png,right,,,,,,,,right,right_blue.png,up_orange.png,up,left,down,60885d559ca52f07dd234260,2021-09-11_16h51.53.683,arrow_simon_vert,2021.1.2,Win32,60.11421701,,,,,,,,,,,,,,,,,,,,,right,1,1.6034,41,TRUE,FALSE,10,0,40,0,1,,,,,,,
,,,,,,0,2.007676144,#f3af84,"[""0"",""0.25""]",down_orange.png,down,,,,,,,,left,left_blue.png,down_orange.png,down,right,up,60885d559ca52f07dd234260,2021-09-11_16h51.53.683,arrow_simon_vert,2021.1.2,Win32,60.11421701,,,,,,,,,,,,,,,,,,,,,down,1,1.8007,42,TRUE,FALSE,10,1,41,3,1,,,,,,,
,,,,,,0,1.982438938,#a3d0fb,"[""-0.25"",""0""]",left_blue.png,left,,,,,,,,left,left_blue.png,down_orange.png,down,left,down,60885d559ca52f07dd234260,2021-09-11_16h51.53.683,arrow_simon_vert,2021.1.2,Win32,60.11421701,,,,,,,,,,,,,,,,,,,,,left,1,1.5352,43,FALSE,FALSE,10,2,42,2,1,,,,,,,
,,,,,,0,1.627552044,#f3af84,"[""0"",""0.25""]",up_orange.png,up,,,,,,,,right,right_blue.png,up_orange.png,up,right,up,60885d559ca52f07dd234260,2021-09-11_16h51.53.683,arrow_simon_vert,2021.1.2,Win32,60.11421701,,,,,,,,,,,,,,,,,,,,,up,1,1.335,44,FALSE,TRUE,10,3,43,1,1,,,,,,,
,,,,,,0,2.20795761,#a3d0fb,"[""0.25"",""0""]",left_blue.png,left,,,,,,,,left,left_blue.png,down_orange.png,down,right,up,60885d559ca52f07dd234260,2021-09-11_16h51.53.683,arrow_simon_vert,2021.1.2,Win32,60.11421701,,,,,,,,,,,,,,,,,,,,,left,1,1.8511,45,TRUE,FALSE,11,0,44,3,1,,,,,,,
,,,,,,0,1.777915021,#f3af84,"[""0"",""0.25""]",down_orange.png,down,,,,,,,,left,left_blue.png,down_orange.png,down,right,up,60885d559ca52f07dd234260,2021-09-11_16h51.53.683,arrow_simon_vert,2021.1.2,Win32,60.11421701,,,,,,,,,,,,,,,,,,,,,down,1,1.4306,46,FALSE,FALSE,11,1,45,3,1,,,,,,,
,,,,,,0,1.648005165,#a3d0fb,"[""-0.25"",""0""]",right_blue.png,right,,,,,,,,right,right_blue.png,up_orange.png,up,left,down,60885d559ca52f07dd234260,2021-09-11_16h51.53.683,arrow_simon_vert,2021.1.2,Win32,60.11421701,,,,,,,,,,,,,,,,,,,,,right,1,1.5343,47,FALSE,FALSE,11,2,46,0,1,,,,,,,
,,,,,,0,1.615757707,#f3af84,"[""0"",""0.25""]",down_orange.png,down,,,,,,,,left,left_blue.png,down_orange.png,down,right,up,60885d559ca52f07dd234260,2021-09-11_16h51.53.683,arrow_simon_vert,2021.1.2,Win32,60.11421701,,,,,,,,,,,,,,,,,,,,,down,1,1.5558,48,FALSE,FALSE,11,3,47,3,1,,,,,,,
,,,,,,0,1.963883761,#a3d0fb,"[""-0.25"",""0""]",right_blue.png,right,,,,,,,,right,right_blue.png,up_orange.png,up,left,down,60885d559ca52f07dd234260,2021-09-11_16h51.53.683,arrow_simon_vert,2021.1.2,Win32,60.11421701,,,,,,,,,,,,,,,,,,,,,right,1,1.7831,49,TRUE,FALSE,12,0,48,0,1,,,,,,,
,,,,,,0,2.353615682,#f3af84,"[""0"",""-0.25""]",down_orange.png,down,,,,,,,,left,left_blue.png,down_orange.png,down,left,down,60885d559ca52f07dd234260,2021-09-11_16h51.53.683,arrow_simon_vert,2021.1.2,Win32,60.11421701,,,,,,,,,,,,,,,,,,,,,down,1,1.769,50,TRUE,FALSE,12,1,49,2,1,,,,,,,
,,,,,,0,1.606546035,#a3d0fb,"[""-0.25"",""0""]",left_blue.png,left,,,,,,,,left,left_blue.png,down_orange.png,down,left,down,60885d559ca52f07dd234260,2021-09-11_16h51.53.683,arrow_simon_vert,2021.1.2,Win32,60.11421701,,,,,,,,,,,,,,,,,,,,,left,1,1.2834,51,FALSE,TRUE,12,2,50,2,1,,,,,,,
,,,,,,0,2.043372701,#f3af84,"[""0"",""-0.25""]",down_orange.png,down,,,,,,,,left,left_blue.png,down_orange.png,down,left,down,60885d559ca52f07dd234260,2021-09-11_16h51.53.683,arrow_simon_vert,2021.1.2,Win32,60.11421701,,,,,,,,,,,,,,,,,,,,,down,1,1.6566,52,TRUE,FALSE,12,3,51,2,1,,,,,,,
,,,,,,0,1.501750446,#a3d0fb,"[""-0.25"",""0""]",left_blue.png,left,,,,,,,,left,left_blue.png,down_orange.png,down,left,down,60885d559ca52f07dd234260,2021-09-11_16h51.53.683,arrow_simon_vert,2021.1.2,Win32,60.11421701,,,,,,,,,,,,,,,,,,,,,left,1,1.7817,53,TRUE,FALSE,13,0,52,2,1,,,,,,,
,,,,,,0,2.215797962,#f3af84,"[""0"",""-0.25""]",up_orange.png,up,,,,,,,,right,right_blue.png,up_orange.png,up,left,down,60885d559ca52f07dd234260,2021-09-11_16h51.53.683,arrow_simon_vert,2021.1.2,Win32,60.11421701,,,,,,,,,,,,,,,,,,,,,up,1,1.8674,54,TRUE,FALSE,13,1,53,0,1,,,,,,,
,,,,,,0,1.811933876,#a3d0fb,"[""0.25"",""0""]",right_blue.png,right,,,,,,,,right,right_blue.png,up_orange.png,up,right,up,60885d559ca52f07dd234260,2021-09-11_16h51.53.683,arrow_simon_vert,2021.1.2,Win32,60.11421701,,,,,,,,,,,,,,,,,,,,,right,1,1.3846,55,FALSE,TRUE,13,2,54,1,1,,,,,,,
,,,,,,0,1.649471159,#f3af84,"[""0"",""0.25""]",down_orange.png,down,,,,,,,,left,left_blue.png,down_orange.png,down,right,up,60885d559ca52f07dd234260,2021-09-11_16h51.53.683,arrow_simon_vert,2021.1.2,Win32,60.11421701,,,,,,,,,,,,,,,,,,,,,down,1,1.7263,56,TRUE,FALSE,13,3,55,3,1,,,,,,,
,,,,,,0,1.857812666,#a3d0fb,"[""0.25"",""0""]",right_blue.png,right,,,,,,,,right,right_blue.png,up_orange.png,up,right,up,60885d559ca52f07dd234260,2021-09-11_16h51.53.683,arrow_simon_vert,2021.1.2,Win32,60.11421701,,,,,,,,,,,,,,,,,,,,,right,1,1.2714,57,FALSE,TRUE,14,0,56,1,1,,,,,,,
,,,,,,0,1.70544862,#f3af84,"[""0"",""0.25""]",down_orange.png,down,,,,,,,,left,left_blue.png,down_orange.png,down,right,up,60885d559ca52f07dd234260,2021-09-11_16h51.53.683,arrow_simon_vert,2021.1.2,Win32,60.11421701,,,,,,,,,,,,,,,,,,,,,down,1,1.3683,58,FALSE,TRUE,14,1,57,3,1,,,,,,,
,,,,,,0,2.12370084,#a3d0fb,"[""0.25"",""0""]",right_blue.png,right,,,,,,,,right,right_blue.png,up_orange.png,up,right,up,60885d559ca52f07dd234260,2021-09-11_16h51.53.683,arrow_simon_vert,2021.1.2,Win32,60.11421701,,,,,,,,,,,,,,,,,,,,,right,1,1.5688,59,FALSE,FALSE,14,2,58,1,1,,,,,,,
,,,,,,0,1.537578209,#f3af84,"[""0"",""0.25""]",down_orange.png,down,,,,,,,,left,left_blue.png,down_orange.png,down,right,up,60885d559ca52f07dd234260,2021-09-11_16h51.53.683,arrow_simon_vert,2021.1.2,Win32,60.11421701,,,,,,,,,,,,,,,,,,,,,down,1,1.2901,60,FALSE,TRUE,14,3,59,3,1,,,,,,,
,,,,,,,,,,,,,,,,,,,,,,,,,60885d559ca52f07dd234260,2021-09-11_16h51.53.683,arrow_simon_vert,2021.1.2,Win32,60.11421701,,,,,,,,,,,,,,,,,,,,,,,,,,,,,,,,space,40.7282,0,0,0,0,1
,,,,,,0,1.789295811,#a3d0fb,"[""-0.25"",""0""]",left_blue.png,left,,,,,,,,left,left_blue.png,down_orange.png,down,left,down,60885d559ca52f07dd234260,2021-09-11_16h51.53.683,arrow_simon_vert,2021.1.2,Win32,60.11421701,,,,,,,,,,,,,,,,,,,,,left,1,1.3316,1,FALSE,TRUE,0,0,0,2,1,,,,,,,
,,,,,,0,2.22809716,#f3af84,"[""0"",""-0.25""]",up_orange.png,up,,,,,,,,right,right_blue.png,up_orange.png,up,left,down,60885d559ca52f07dd234260,2021-09-11_16h51.53.683,arrow_simon_vert,2021.1.2,Win32,60.11421701,,,,,,,,,,,,,,,,,,,,,up,1,1.8893,2,TRUE,FALSE,0,1,1,0,1,,,,,,,
,,,,,,0,2.388186599,#a3d0fb,"[""-0.25"",""0""]",left_blue.png,left,,,,,,,,left,left_blue.png,down_orange.png,down,left,down,60885d559ca52f07dd234260,2021-09-11_16h51.53.683,arrow_simon_vert,2021.1.2,Win32,60.11421701,,,,,,,,,,,,,,,,,,,,,left,1,4.268,3,TRUE,FALSE,0,2,2,2,1,,,,,,,
,,,,,,0,1.891399799,#f3af84,"[""0"",""-0.25""]",up_orange.png,up,,,,,,,,right,right_blue.png,up_orange.png,up,left,down,60885d559ca52f07dd234260,2021-09-11_16h51.53.683,arrow_simon_vert,2021.1.2,Win32,60.11421701,,,,,,,,,,,,,,,,,,,,,up,1,2.1168,4,TRUE,FALSE,0,3,3,0,1,,,,,,,
,,,,,,0,1.924611493,#a3d0fb,"[""0.25"",""0""]",left_blue.png,left,,,,,,,,left,left_blue.png,down_orange.png,down,right,up,60885d559ca52f07dd234260,2021-09-11_16h51.53.683,arrow_simon_vert,2021.1.2,Win32,60.11421701,,,,,,,,,,,,,,,,,,,,,left,1,1.5677,5,FALSE,FALSE,1,0,4,3,1,,,,,,,
,,,,,,0,1.890744495,#f3af84,"[""0"",""0.25""]",down_orange.png,down,,,,,,,,left,left_blue.png,down_orange.png,down,right,up,60885d559ca52f07dd234260,2021-09-11_16h51.53.683,arrow_simon_vert,2021.1.2,Win32,60.11421701,,,,,,,,,,,,,,,,,,,,,down,1,1.4894,6,FALSE,FALSE,1,1,5,3,1,,,,,,,
,,,,,,0,1.763459106,#a3d0fb,"[""0.25"",""0""]",left_blue.png,left,,,,,,,,left,left_blue.png,down_orange.png,down,right,up,60885d559ca52f07dd234260,2021-09-11_16h51.53.683,arrow_simon_vert,2021.1.2,Win32,60.11421701,,,,,,,,,,,,,,,,,,,,,left,1,1.3981,7,FALSE,TRUE,1,2,6,3,1,,,,,,,
,,,,,,0,1.918576701,#f3af84,"[""0"",""-0.25""]",up_orange.png,up,,,,,,,,right,right_blue.png,up_orange.png,up,left,down,60885d559ca52f07dd234260,2021-09-11_16h51.53.683,arrow_simon_vert,2021.1.2,Win32,60.11421701,,,,,,,,,,,,,,,,,,,,,up,1,1.601,8,TRUE,FALSE,1,3,7,0,1,,,,,,,
,,,,,,0,2.4104249,#a3d0fb,"[""0.25"",""0""]",right_blue.png,right,,,,,,,,right,right_blue.png,up_orange.png,up,right,up,60885d559ca52f07dd234260,2021-09-11_16h51.53.683,arrow_simon_vert,2021.1.2,Win32,60.11421701,,,,,,,,,,,,,,,,,,,,,right,1,2.0089,9,TRUE,FALSE,2,0,8,1,1,,,,,,,
,,,,,,0,2.228869015,#f3af84,"[""0"",""-0.25""]",down_orange.png,down,,,,,,,,left,left_blue.png,down_orange.png,down,left,down,60885d559ca52f07dd234260,2021-09-11_16h51.53.683,arrow_simon_vert,2021.1.2,Win32,60.11421701,,,,,,,,,,,,,,,,,,,,,down,1,1.8856,10,TRUE,FALSE,2,1,9,2,1,,,,,,,
,,,,,,0,1.913433775,#a3d0fb,"[""0.25"",""0""]",left_blue.png,left,,,,,,,,left,left_blue.png,down_orange.png,down,right,up,60885d559ca52f07dd234260,2021-09-11_16h51.53.683,arrow_simon_vert,2021.1.2,Win32,60.11421701,,,,,,,,,,,,,,,,,,,,,left,1,1.698,11,TRUE,FALSE,2,2,10,3,1,,,,,,,
,,,,,,0,1.620721911,#f3af84,"[""0"",""-0.25""]",up_orange.png,up,,,,,,,,right,right_blue.png,up_orange.png,up,left,down,60885d559ca52f07dd234260,2021-09-11_16h51.53.683,arrow_simon_vert,2021.1.2,Win32,60.11421701,,,,,,,,,,,,,,,,,,,,,up,1,1.6174,12,TRUE,FALSE,2,3,11,0,1,,,,,,,
,,,,,,0,2.363120757,#a3d0fb,"[""0.25"",""0""]",right_blue.png,right,,,,,,,,right,right_blue.png,up_orange.png,up,right,up,60885d559ca52f07dd234260,2021-09-11_16h51.53.683,arrow_simon_vert,2021.1.2,Win32,60.11421701,,,,,,,,,,,,,,,,,,,,,right,1,1.7684,13,TRUE,FALSE,3,0,12,1,1,,,,,,,
,,,,,,0,1.73034076,#f3af84,"[""0"",""0.25""]",up_orange.png,up,,,,,,,,right,right_blue.png,up_orange.png,up,right,up,60885d559ca52f07dd234260,2021-09-11_16h51.53.683,arrow_simon_vert,2021.1.2,Win32,60.11421701,,,,,,,,,,,,,,,,,,,,,up,1,1.6147,14,TRUE,FALSE,3,1,13,1,1,,,,,,,
,,,,,,0,2.087806824,#a3d0fb,"[""-0.25"",""0""]",left_blue.png,left,,,,,,,,left,left_blue.png,down_orange.png,down,left,down,60885d559ca52f07dd234260,2021-09-11_16h51.53.683,arrow_simon_vert,2021.1.2,Win32,60.11421701,,,,,,,,,,,,,,,,,,,,,left,1,1.5675,15,FALSE,FALSE,3,2,14,2,1,,,,,,,
,,,,,,0,1.508023488,#f3af84,"[""0"",""0.25""]",up_orange.png,up,,,,,,,,right,right_blue.png,up_orange.png,up,right,up,60885d559ca52f07dd234260,2021-09-11_16h51.53.683,arrow_simon_vert,2021.1.2,Win32,60.11421701,,,,,,,,,,,,,,,,,,,,,up,1,1.4799,16,FALSE,FALSE,3,3,15,1,1,,,,,,,
,,,,,,0,2.26471166,#a3d0fb,"[""-0.25"",""0""]",right_blue.png,right,,,,,,,,right,right_blue.png,up_orange.png,up,left,down,60885d559ca52f07dd234260,2021-09-11_16h51.53.683,arrow_simon_vert,2021.1.2,Win32,60.11421701,,,,,,,,,,,,,,,,,,,,,right,1,1.7579,17,TRUE,FALSE,4,0,16,0,1,,,,,,,
,,,,,,0,1.973769246,#f3af84,"[""0"",""0.25""]",down_orange.png,down,,,,,,,,left,left_blue.png,down_orange.png,down,right,up,60885d559ca52f07dd234260,2021-09-11_16h51.53.683,arrow_simon_vert,2021.1.2,Win32,60.11421701,,,,,,,,,,,,,,,,,,,,,down,1,1.7339,18,TRUE,FALSE,4,1,17,3,1,,,,,,,
,,,,,,0,2.048097656,#a3d0fb,"[""-0.25"",""0""]",left_blue.png,left,,,,,,,,left,left_blue.png,down_orange.png,down,left,down,60885d559ca52f07dd234260,2021-09-11_16h51.53.683,arrow_simon_vert,2021.1.2,Win32,60.11421701,,,,,,,,,,,,,,,,,,,,,left,1,1.5748,19,FALSE,FALSE,4,2,18,2,1,,,,,,,
,,,,,,0,1.610197031,#f3af84,"[""0"",""0.25""]",up_orange.png,up,,,,,,,,right,right_blue.png,up_orange.png,up,right,up,60885d559ca52f07dd234260,2021-09-11_16h51.53.683,arrow_simon_vert,2021.1.2,Win32,60.11421701,,,,,,,,,,,,,,,,,,,,,up,1,1.2857,20,FALSE,TRUE,4,3,19,1,1,,,,,,,
,,,,,,0,2.117759614,#a3d0fb,"[""-0.25"",""0""]",right_blue.png,right,,,,,,,,right,right_blue.png,up_orange.png,up,left,down,60885d559ca52f07dd234260,2021-09-11_16h51.53.683,arrow_simon_vert,2021.1.2,Win32,60.11421701,,,,,,,,,,,,,,,,,,,,,right,1,1.6348,21,TRUE,FALSE,5,0,20,0,1,,,,,,,
,,,,,,0,1.979181613,#f3af84,"[""0"",""0.25""]",up_orange.png,up,,,,,,,,right,right_blue.png,up_orange.png,up,right,up,60885d559ca52f07dd234260,2021-09-11_16h51.53.683,arrow_simon_vert,2021.1.2,Win32,60.11421701,,,,,,,,,,,,,,,,,,,,,up,1,1.8797,22,TRUE,FALSE,5,1,21,1,1,,,,,,,
,,,,,,0,1.86362114,#a3d0fb,"[""0.25"",""0""]",right_blue.png,right,,,,,,,,right,right_blue.png,up_orange.png,up,right,up,60885d559ca52f07dd234260,2021-09-11_16h51.53.683,arrow_simon_vert,2021.1.2,Win32,60.11421701,,,,,,,,,,,,,,,,,,,,,right,1,1.4857,23,FALSE,FALSE,5,2,22,1,1,,,,,,,
,,,,,,0,2.391469125,#f3af84,"[""0"",""-0.25""]",down_orange.png,down,,,,,,,,left,left_blue.png,down_orange.png,down,left,down,60885d559ca52f07dd234260,2021-09-11_16h51.53.683,arrow_simon_vert,2021.1.2,Win32,60.11421701,,,,,,,,,,,,,,,,,,,,,down,1,1.9145,24,TRUE,FALSE,5,3,23,2,1,,,,,,,
,,,,,,0,2.170630203,#a3d0fb,"[""-0.25"",""0""]",right_blue.png,right,,,,,,,,right,right_blue.png,up_orange.png,up,left,down,60885d559ca52f07dd234260,2021-09-11_16h51.53.683,arrow_simon_vert,2021.1.2,Win32,60.11421701,,,,,,,,,,,,,,,,,,,,,right,1,1.6547,25,TRUE,FALSE,6,0,24,0,1,,,,,,,
,,,,,,0,1.843131226,#f3af84,"[""0"",""0.25""]",up_orange.png,up,,,,,,,,right,right_blue.png,up_orange.png,up,right,up,60885d559ca52f07dd234260,2021-09-11_16h51.53.683,arrow_simon_vert,2021.1.2,Win32,60.11421701,,,,,,,,,,,,,,,,,,,,,up,1,1.5207,26,FALSE,FALSE,6,1,25,1,1,,,,,,,
,,,,,,0,1.890579951,#a3d0fb,"[""0.25"",""0""]",left_blue.png,left,,,,,,,,left,left_blue.png,down_orange.png,down,right,up,60885d559ca52f07dd234260,2021-09-11_16h51.53.683,arrow_simon_vert,2021.1.2,Win32,60.11421701,,,,,,,,,,,,,,,,,,,,,left,1,1.5367,27,FALSE,FALSE,6,2,26,3,1,,,,,,,
,,,,,,0,1.784130079,#f3af84,"[""0"",""-0.25""]",up_orange.png,up,,,,,,,,right,right_blue.png,up_orange.png,up,left,down,60885d559ca52f07dd234260,2021-09-11_16h51.53.683,arrow_simon_vert,2021.1.2,Win32,60.11421701,,,,,,,,,,,,,,,,,,,,,up,1,1.3816,28,FALSE,TRUE,6,3,27,0,1,,,,,,,
,,,,,,0,2.414860993,#a3d0fb,"[""-0.25"",""0""]",left_blue.png,left,,,,,,,,left,left_blue.png,down_orange.png,down,left,down,60885d559ca52f07dd234260,2021-09-11_16h51.53.683,arrow_simon_vert,2021.1.2,Win32,60.11421701,,,,,,,,,,,,,,,,,,,,,left,1,1.9403,29,TRUE,FALSE,7,0,28,2,1,,,,,,,
,,,,,,1,2.141421166,#f3af84,"[""0"",""-0.25""]",up_orange.png,up,,,,,,,,right,right_blue.png,up_orange.png,up,left,down,60885d559ca52f07dd234260,2021-09-11_16h51.53.683,arrow_simon_vert,2021.1.2,Win32,60.11421701,,,,,,,,,,,,,,,,,,,,,right,0,1.5484,30,FALSE,FALSE,7,1,29,0,1,,,,,,,
,,,,,,0,1.990681737,#a3d0fb,"[""0.25"",""0""]",left_blue.png,left,,,,,,,,left,left_blue.png,down_orange.png,down,right,up,60885d559ca52f07dd234260,2021-09-11_16h51.53.683,arrow_simon_vert,2021.1.2,Win32,60.11421701,,,,,,,,,,,,,,,,,,,,,left,1,1.5843,31,FALSE,FALSE,7,2,30,3,1,,,,,,,
,,,,,,0,1.870723661,#f3af84,"[""0"",""-0.25""]",up_orange.png,up,,,,,,,,right,right_blue.png,up_orange.png,up,left,down,60885d559ca52f07dd234260,2021-09-11_16h51.53.683,arrow_simon_vert,2021.1.2,Win32,60.11421701,,,,,,,,,,,,,,,,,,,,,right,0,1.2217,32,FALSE,TRUE,7,3,31,0,1,,,,,,,
,,,,,,0,2.337961667,#a3d0fb,"[""-0.25"",""0""]",right_blue.png,right,,,,,,,,right,right_blue.png,up_orange.png,up,left,down,60885d559ca52f07dd234260,2021-09-11_16h51.53.683,arrow_simon_vert,2021.1.2,Win32,60.11421701,,,,,,,,,,,,,,,,,,,,,right,1,1.8726,33,TRUE,FALSE,8,0,32,0,1,,,,,,,
,,,,,,0,2.471514909,#f3af84,"[""0"",""-0.25""]",up_orange.png,up,,,,,,,,right,right_blue.png,up_orange.png,up,left,down,60885d559ca52f07dd234260,2021-09-11_16h51.53.683,arrow_simon_vert,2021.1.2,Win32,60.11421701,,,,,,,,,,,,,,,,,,,,,right,0,1.9812,34,TRUE,FALSE,8,1,33,0,1,,,,,,,
,,,,,,0,1.654437948,#a3d0fb,"[""-0.25"",""0""]",left_blue.png,left,,,,,,,,left,left_blue.png,down_orange.png,down,left,down,60885d559ca52f07dd234260,2021-09-11_16h51.53.683,arrow_simon_vert,2021.1.2,Win32,60.11421701,,,,,,,,,,,,,,,,,,,,,down,0,1.298,35,FALSE,TRUE,8,2,34,2,1,,,,,,,
,,,,,,0,2.324664739,#f3af84,"[""0"",""0.25""]",down_orange.png,down,,,,,,,,left,left_blue.png,down_orange.png,down,right,up,60885d559ca52f07dd234260,2021-09-11_16h51.53.683,arrow_simon_vert,2021.1.2,Win32,60.11421701,,,,,,,,,,,,,,,,,,,,,down,1,1.9307,36,TRUE,FALSE,8,3,35,3,1,,,,,,,
,,,,,,0,2.415506803,#a3d0fb,"[""-0.25"",""0""]",right_blue.png,right,,,,,,,,right,right_blue.png,up_orange.png,up,left,down,60885d559ca52f07dd234260,2021-09-11_16h51.53.683,arrow_simon_vert,2021.1.2,Win32,60.11421701,,,,,,,,,,,,,,,,,,,,,right,1,1.9054,37,TRUE,FALSE,9,0,36,0,1,,,,,,,
,,,,,,0,2.359438995,#f3af84,"[""0"",""-0.25""]",down_orange.png,down,,,,,,,,left,left_blue.png,down_orange.png,down,left,down,60885d559ca52f07dd234260,2021-09-11_16h51.53.683,arrow_simon_vert,2021.1.2,Win32,60.11421701,,,,,,,,,,,,,,,,,,,,,right,0,1.2515,38,FALSE,TRUE,9,1,37,2,1,,,,,,,
,,,,,,0,1.834045788,#a3d0fb,"[""0.25"",""0""]",left_blue.png,left,,,,,,,,left,left_blue.png,down_orange.png,down,right,up,60885d559ca52f07dd234260,2021-09-11_16h51.53.683,arrow_simon_vert,2021.1.2,Win32,60.11421701,,,,,,,,,,,,,,,,,,,,,left,1,1.4325,39,FALSE,FALSE,9,2,38,3,1,,,,,,,
,,,,,,0,2.299788856,#f3af84,"[""0"",""0.25""]",up_orange.png,up,,,,,,,,right,right_blue.png,up_orange.png,up,right,up,60885d559ca52f07dd234260,2021-09-11_16h51.53.683,arrow_simon_vert,2021.1.2,Win32,60.11421701,,,,,,,,,,,,,,,,,,,,,up,1,1.7847,40,TRUE,FALSE,9,3,39,1,1,,,,,,,
,,,,,,0,2.136268601,#a3d0fb,"[""0.25"",""0""]",right_blue.png,right,,,,,,,,right,right_blue.png,up_orange.png,up,right,up,60885d559ca52f07dd234260,2021-09-11_16h51.53.683,arrow_simon_vert,2021.1.2,Win32,60.11421701,,,,,,,,,,,,,,,,,,,,,right,1,1.6014,41,TRUE,FALSE,10,0,40,1,1,,,,,,,
,,,,,,0,2.089133236,#f3af84,"[""0"",""0.25""]",down_orange.png,down,,,,,,,,left,left_blue.png,down_orange.png,down,right,up,60885d559ca52f07dd234260,2021-09-11_16h51.53.683,arrow_simon_vert,2021.1.2,Win32,60.11421701,,,,,,,,,,,,,,,,,,,,,down,1,1.6811,42,TRUE,FALSE,10,1,41,3,1,,,,,,,
,,,,,,0,1.860932051,#a3d0fb,"[""0.25"",""0""]",right_blue.png,right,,,,,,,,right,right_blue.png,up_orange.png,up,right,up,60885d559ca52f07dd234260,2021-09-11_16h51.53.683,arrow_simon_vert,2021.1.2,Win32,60.11421701,,,,,,,,,,,,,,,,,,,,,right,1,1.7009,43,TRUE,FALSE,10,2,42,1,1,,,,,,,
,,,,,,0,1.748230436,#f3af84,"[""0"",""-0.25""]",down_orange.png,down,,,,,,,,left,left_blue.png,down_orange.png,down,left,down,60885d559ca52f07dd234260,2021-09-11_16h51.53.683,arrow_simon_vert,2021.1.2,Win32,60.11421701,,,,,,,,,,,,,,,,,,,,,down,1,1.2833,44,FALSE,TRUE,10,3,43,2,1,,,,,,,
,,,,,,0,2.342674989,#a3d0fb,"[""-0.25"",""0""]",left_blue.png,left,,,,,,,,left,left_blue.png,down_orange.png,down,left,down,60885d559ca52f07dd234260,2021-09-11_16h51.53.683,arrow_simon_vert,2021.1.2,Win32,60.11421701,,,,,,,,,,,,,,,,,,,,,left,1,1.7682,45,TRUE,FALSE,11,0,44,2,1,,,,,,,
,,,,,,0,2.183867551,#f3af84,"[""0"",""0.25""]",down_orange.png,down,,,,,,,,left,left_blue.png,down_orange.png,down,right,up,60885d559ca52f07dd234260,2021-09-11_16h51.53.683,arrow_simon_vert,2021.1.2,Win32,60.11421701,,,,,,,,,,,,,,,,,,,,,down,1,1.7122,46,TRUE,FALSE,11,1,45,3,1,,,,,,,
,,,,,,0,2.010310432,#a3d0fb,"[""0.25"",""0""]",right_blue.png,right,,,,,,,,right,right_blue.png,up_orange.png,up,right,up,60885d559ca52f07dd234260,2021-09-11_16h51.53.683,arrow_simon_vert,2021.1.2,Win32,60.11421701,,,,,,,,,,,,,,,,,,,,,right,1,1.6177,47,TRUE,FALSE,11,2,46,1,1,,,,,,,
,,,,,,0,1.793347616,#f3af84,"[""0"",""0.25""]",up_orange.png,up,,,,,,,,right,right_blue.png,up_orange.png,up,right,up,60885d559ca52f07dd234260,2021-09-11_16h51.53.683,arrow_simon_vert,2021.1.2,Win32,60.11421701,,,,,,,,,,,,,,,,,,,,,up,1,1.3521,48,FALSE,TRUE,11,3,47,1,1,,,,,,,
,,,,,,0,1.802663,#a3d0fb,"[""0.25"",""0""]",left_blue.png,left,,,,,,,,left,left_blue.png,down_orange.png,down,right,up,60885d559ca52f07dd234260,2021-09-11_16h51.53.683,arrow_simon_vert,2021.1.2,Win32,60.11421701,,,,,,,,,,,,,,,,,,,,,left,1,1.2726,49,FALSE,TRUE,12,0,48,3,1,,,,,,,
,,,,,,0,1.510406841,#f3af84,"[""0"",""0.25""]",down_orange.png,down,,,,,,,,left,left_blue.png,down_orange.png,down,right,up,60885d559ca52f07dd234260,2021-09-11_16h51.53.683,arrow_simon_vert,2021.1.2,Win32,60.11421701,,,,,,,,,,,,,,,,,,,,,down,1,1.3506,50,FALSE,TRUE,12,1,49,3,1,,,,,,,
,,,,,,0,1.555276523,#a3d0fb,"[""0.25"",""0""]",left_blue.png,left,,,,,,,,left,left_blue.png,down_orange.png,down,right,up,60885d559ca52f07dd234260,2021-09-11_16h51.53.683,arrow_simon_vert,2021.1.2,Win32,60.11421701,,,,,,,,,,,,,,,,,,,,,left,1,1.2733,51,FALSE,TRUE,12,2,50,3,1,,,,,,,
,,,,,,0,2.373112506,#f3af84,"[""0"",""-0.25""]",up_orange.png,up,,,,,,,,right,right_blue.png,up_orange.png,up,left,down,60885d559ca52f07dd234260,2021-09-11_16h51.53.683,arrow_simon_vert,2021.1.2,Win32,60.11421701,,,,,,,,,,,,,,,,,,,,,up,1,2.0172,52,TRUE,FALSE,12,3,51,0,1,,,,,,,
,,,,,,0,1.639052863,#a3d0fb,"[""0.25"",""0""]",left_blue.png,left,,,,,,,,left,left_blue.png,down_orange.png,down,right,up,60885d559ca52f07dd234260,2021-09-11_16h51.53.683,arrow_simon_vert,2021.1.2,Win32,60.11421701,,,,,,,,,,,,,,,,,,,,,left,1,1.3082,53,FALSE,TRUE,13,0,52,3,1,,,,,,,
,,,,,,0,2.302467776,#f3af84,"[""0"",""-0.25""]",down_orange.png,down,,,,,,,,left,left_blue.png,down_orange.png,down,left,down,60885d559ca52f07dd234260,2021-09-11_16h51.53.683,arrow_simon_vert,2021.1.2,Win32,60.11421701,,,,,,,,,,,,,,,,,,,,,down,1,2.0337,54,TRUE,FALSE,13,1,53,2,1,,,,,,,
,,,,,,0,1.577338442,#a3d0fb,"[""0.25"",""0""]",right_blue.png,right,,,,,,,,right,right_blue.png,up_orange.png,up,right,up,60885d559ca52f07dd234260,2021-09-11_16h51.53.683,arrow_simon_vert,2021.1.2,Win32,60.11421701,,,,,,,,,,,,,,,,,,,,,right,1,1.3862,55,FALSE,TRUE,13,2,54,1,1,,,,,,,
,,,,,,1,2.050277476,#f3af84,"[""0"",""-0.25""]",down_orange.png,down,,,,,,,,left,left_blue.png,down_orange.png,down,left,down,60885d559ca52f07dd234260,2021-09-11_16h51.53.683,arrow_simon_vert,2021.1.2,Win32,60.11421701,,,,,,,,,,,,,,,,,,,,,left,0,1.5844,56,FALSE,FALSE,13,3,55,2,1,,,,,,,
,,,,,,0,1.872122028,#a3d0fb,"[""-0.25"",""0""]",left_blue.png,left,,,,,,,,left,left_blue.png,down_orange.png,down,left,down,60885d559ca52f07dd234260,2021-09-11_16h51.53.683,arrow_simon_vert,2021.1.2,Win32,60.11421701,,,,,,,,,,,,,,,,,,,,,left,1,1.4215,57,FALSE,FALSE,14,0,56,2,1,,,,,,,
,,,,,,0,2.167430068,#f3af84,"[""0"",""-0.25""]",up_orange.png,up,,,,,,,,right,right_blue.png,up_orange.png,up,left,down,60885d559ca52f07dd234260,2021-09-11_16h51.53.683,arrow_simon_vert,2021.1.2,Win32,60.11421701,,,,,,,,,,,,,,,,,,,,,down,0,1.6348,58,TRUE,FALSE,14,1,57,0,1,,,,,,,
,,,,,,0,2.108670684,#a3d0fb,"[""0.25"",""0""]",right_blue.png,right,,,,,,,,right,right_blue.png,up_orange.png,up,right,up,60885d559ca52f07dd234260,2021-09-11_16h51.53.683,arrow_simon_vert,2021.1.2,Win32,60.11421701,,,,,,,,,,,,,,,,,,,,,right,1,1.5157,59,FALSE,FALSE,14,2,58,1,1,,,,,,,
,,,,,,0,2.015564909,#f3af84,"[""0"",""-0.25""]",down_orange.png,down,,,,,,,,left,left_blue.png,down_orange.png,down,left,down,60885d559ca52f07dd234260,2021-09-11_16h51.53.683,arrow_simon_vert,2021.1.2,Win32,60.11421701,,,,,,,,,,,,,,,,,,,,,down,1,1.5518,60,FALSE,FALSE,14,3,59,2,1,,,,,,,
,,,,,,,,,,,,,,,,,,,,,,,,,60885d559ca52f07dd234260,2021-09-11_16h51.53.683,arrow_simon_vert,2021.1.2,Win32,60.11421701,,,,,,,,,,,,,,,,,,,,,,,,,,,,,,,,space,109.1059,1,0,1,0,1
,,,,,,0,2.423672157,#a3d0fb,"[""0.25"",""0""]",left_blue.png,left,,,,,,,,left,left_blue.png,down_orange.png,down,right,up,60885d559ca52f07dd234260,2021-09-11_16h51.53.683,arrow_simon_vert,2021.1.2,Win32,60.11421701,,,,,,,,,,,,,,,,,,,,,left,1,1.897,1,TRUE,FALSE,0,0,0,3,1,,,,,,,
,,,,,,0,2.38190336,#f3af84,"[""0"",""-0.25""]",up_orange.png,up,,,,,,,,right,right_blue.png,up_orange.png,up,left,down,60885d559ca52f07dd234260,2021-09-11_16h51.53.683,arrow_simon_vert,2021.1.2,Win32,60.11421701,,,,,,,,,,,,,,,,,,,,,up,1,1.9512,2,TRUE,FALSE,0,1,1,0,1,,,,,,,
,,,,,,0,1.530796613,#a3d0fb,"[""0.25"",""0""]",right_blue.png,right,,,,,,,,right,right_blue.png,up_orange.png,up,right,up,60885d559ca52f07dd234260,2021-09-11_16h51.53.683,arrow_simon_vert,2021.1.2,Win32,60.11421701,,,,,,,,,,,,,,,,,,,,,right,1,1.0502,3,FALSE,TRUE,0,2,2,1,1,,,,,,,
,,,,,,0,1.912321615,#f3af84,"[""0"",""-0.25""]",down_orange.png,down,,,,,,,,left,left_blue.png,down_orange.png,down,left,down,60885d559ca52f07dd234260,2021-09-11_16h51.53.683,arrow_simon_vert,2021.1.2,Win32,60.11421701,,,,,,,,,,,,,,,,,,,,,down,1,1.6004,4,TRUE,FALSE,0,3,3,2,1,,,,,,,
,,,,,,0,2.018500915,#a3d0fb,"[""-0.25"",""0""]",left_blue.png,left,,,,,,,,left,left_blue.png,down_orange.png,down,left,down,60885d559ca52f07dd234260,2021-09-11_16h51.53.683,arrow_simon_vert,2021.1.2,Win32,60.11421701,,,,,,,,,,,,,,,,,,,,,left,1,1.4254,5,FALSE,FALSE,1,0,4,2,1,,,,,,,
,,,,,,0,1.679849777,#f3af84,"[""0"",""-0.25""]",up_orange.png,up,,,,,,,,right,right_blue.png,up_orange.png,up,left,down,60885d559ca52f07dd234260,2021-09-11_16h51.53.683,arrow_simon_vert,2021.1.2,Win32,60.11421701,,,,,,,,,,,,,,,,,,,,,up,1,1.2352,6,FALSE,TRUE,1,1,5,0,1,,,,,,,
,,,,,,0,2.358359457,#a3d0fb,"[""-0.25"",""0""]",left_blue.png,left,,,,,,,,left,left_blue.png,down_orange.png,down,left,down,60885d559ca52f07dd234260,2021-09-11_16h51.53.683,arrow_simon_vert,2021.1.2,Win32,60.11421701,,,,,,,,,,,,,,,,,,,,,left,1,1.8681,7,TRUE,FALSE,1,2,6,2,1,,,,,,,
,,,,,,0,2.335854897,#f3af84,"[""0"",""0.25""]",down_orange.png,down,,,,,,,,left,left_blue.png,down_orange.png,down,right,up,60885d559ca52f07dd234260,2021-09-11_16h51.53.683,arrow_simon_vert,2021.1.2,Win32,60.11421701,,,,,,,,,,,,,,,,,,,,,down,1,1.9355,8,TRUE,FALSE,1,3,7,3,1,,,,,,,
,,,,,,0,1.762037492,#a3d0fb,"[""-0.25"",""0""]",left_blue.png,left,,,,,,,,left,left_blue.png,down_orange.png,down,left,down,60885d559ca52f07dd234260,2021-09-11_16h51.53.683,arrow_simon_vert,2021.1.2,Win32,60.11421701,,,,,,,,,,,,,,,,,,,,,left,1,1.1678,9,FALSE,TRUE,2,0,8,2,1,,,,,,,
,,,,,,0,2.260376547,#f3af84,"[""0"",""0.25""]",down_orange.png,down,,,,,,,,left,left_blue.png,down_orange.png,down,right,up,60885d559ca52f07dd234260,2021-09-11_16h51.53.683,arrow_simon_vert,2021.1.2,Win32,60.11421701,,,,,,,,,,,,,,,,,,,,,right,0,1.8427,10,TRUE,FALSE,2,1,9,3,1,,,,,,,
,,,,,,0,2.268772477,#a3d0fb,"[""0.25"",""0""]",left_blue.png,left,,,,,,,,left,left_blue.png,down_orange.png,down,right,up,60885d559ca52f07dd234260,2021-09-11_16h51.53.683,arrow_simon_vert,2021.1.2,Win32,60.11421701,,,,,,,,,,,,,,,,,,,,,left,1,1.751,11,TRUE,FALSE,2,2,10,3,1,,,,,,,
,,,,,,0,1.695551164,#f3af84,"[""0"",""0.25""]",down_orange.png,down,,,,,,,,left,left_blue.png,down_orange.png,down,right,up,60885d559ca52f07dd234260,2021-09-11_16h51.53.683,arrow_simon_vert,2021.1.2,Win32,60.11421701,,,,,,,,,,,,,,,,,,,,,down,1,1.4678,12,FALSE,FALSE,2,3,11,3,1,,,,,,,
,,,,,,0,2.143613683,#a3d0fb,"[""-0.25"",""0""]",left_blue.png,left,,,,,,,,left,left_blue.png,down_orange.png,down,left,down,60885d559ca52f07dd234260,2021-09-11_16h51.53.683,arrow_simon_vert,2021.1.2,Win32,60.11421701,,,,,,,,,,,,,,,,,,,,,left,1,1.6187,13,TRUE,FALSE,3,0,12,2,1,,,,,,,
,,,,,,0,2.120218028,#f3af84,"[""0"",""-0.25""]",up_orange.png,up,,,,,,,,right,right_blue.png,up_orange.png,up,left,down,60885d559ca52f07dd234260,2021-09-11_16h51.53.683,arrow_simon_vert,2021.1.2,Win32,60.11421701,,,,,,,,,,,,,,,,,,,,,up,1,1.6848,14,TRUE,FALSE,3,1,13,0,1,,,,,,,
,,,,,,0,2.412440813,#a3d0fb,"[""-0.25"",""0""]",right_blue.png,right,,,,,,,,right,right_blue.png,up_orange.png,up,left,down,60885d559ca52f07dd234260,2021-09-11_16h51.53.683,arrow_simon_vert,2021.1.2,Win32,60.11421701,,,,,,,,,,,,,,,,,,,,,right,1,1.9225,15,TRUE,FALSE,3,2,14,0,1,,,,,,,
,,,,,,0,2.387727628,#f3af84,"[""0"",""0.25""]",up_orange.png,up,,,,,,,,right,right_blue.png,up_orange.png,up,right,up,60885d559ca52f07dd234260,2021-09-11_16h51.53.683,arrow_simon_vert,2021.1.2,Win32,60.11421701,,,,,,,,,,,,,,,,,,,,,up,1,1.9841,16,TRUE,FALSE,3,3,15,1,1,,,,,,,
,,,,,,0,1.534249946,#a3d0fb,"[""-0.25"",""0""]",right_blue.png,right,,,,,,,,right,right_blue.png,up_orange.png,up,left,down,60885d559ca52f07dd234260,2021-09-11_16h51.53.683,arrow_simon_vert,2021.1.2,Win32,60.11421701,,,,,,,,,,,,,,,,,,,,,right,1,1.1017,17,FALSE,TRUE,4,0,16,0,1,,,,,,,
,,,,,,0,2.115752772,#f3af84,"[""0"",""0.25""]",down_orange.png,down,,,,,,,,left,left_blue.png,down_orange.png,down,right,up,60885d559ca52f07dd234260,2021-09-11_16h51.53.683,arrow_simon_vert,2021.1.2,Win32,60.11421701,,,,,,,,,,,,,,,,,,,,,down,1,1.7021,18,TRUE,FALSE,4,1,17,3,1,,,,,,,
,,,,,,0,2.417963925,#a3d0fb,"[""0.25"",""0""]",right_blue.png,right,,,,,,,,right,right_blue.png,up_orange.png,up,right,up,60885d559ca52f07dd234260,2021-09-11_16h51.53.683,arrow_simon_vert,2021.1.2,Win32,60.11421701,,,,,,,,,,,,,,,,,,,,,right,1,1.8064,19,TRUE,FALSE,4,2,18,1,1,,,,,,,
,,,,,,0,2.029786304,#f3af84,"[""0"",""0.25""]",up_orange.png,up,,,,,,,,right,right_blue.png,up_orange.png,up,right,up,60885d559ca52f07dd234260,2021-09-11_16h51.53.683,arrow_simon_vert,2021.1.2,Win32,60.11421701,,,,,,,,,,,,,,,,,,,,,up,1,1.6678,20,TRUE,FALSE,4,3,19,1,1,,,,,,,
,,,,,,0,2.065836745,#a3d0fb,"[""-0.25"",""0""]",left_blue.png,left,,,,,,,,left,left_blue.png,down_orange.png,down,left,down,60885d559ca52f07dd234260,2021-09-11_16h51.53.683,arrow_simon_vert,2021.1.2,Win32,60.11421701,,,,,,,,,,,,,,,,,,,,,left,1,1.691,21,TRUE,FALSE,5,0,20,2,1,,,,,,,
,,,,,,0,1.530809096,#f3af84,"[""0"",""0.25""]",up_orange.png,up,,,,,,,,right,right_blue.png,up_orange.png,up,right,up,60885d559ca52f07dd234260,2021-09-11_16h51.53.683,arrow_simon_vert,2021.1.2,Win32,60.11421701,,,,,,,,,,,,,,,,,,,,,up,1,1.1854,22,FALSE,TRUE,5,1,21,1,1,,,,,,,
,,,,,,0,2.0701113,#a3d0fb,"[""-0.25"",""0""]",right_blue.png,right,,,,,,,,right,right_blue.png,up_orange.png,up,left,down,60885d559ca52f07dd234260,2021-09-11_16h51.53.683,arrow_simon_vert,2021.1.2,Win32,60.11421701,,,,,,,,,,,,,,,,,,,,,right,1,1.6526,23,TRUE,FALSE,5,2,22,0,1,,,,,,,
,,,,,,0,1.952189625,#f3af84,"[""0"",""0.25""]",up_orange.png,up,,,,,,,,right,right_blue.png,up_orange.png,up,right,up,60885d559ca52f07dd234260,2021-09-11_16h51.53.683,arrow_simon_vert,2021.1.2,Win32,60.11421701,,,,,,,,,,,,,,,,,,,,,up,1,1.4891,24,FALSE,FALSE,5,3,23,1,1,,,,,,,
,,,,,,0,2.311980843,#a3d0fb,"[""-0.25"",""0""]",left_blue.png,left,,,,,,,,left,left_blue.png,down_orange.png,down,left,down,60885d559ca52f07dd234260,2021-09-11_16h51.53.683,arrow_simon_vert,2021.1.2,Win32,60.11421701,,,,,,,,,,,,,,,,,,,,,left,1,1.7225,25,TRUE,FALSE,6,0,24,2,1,,,,,,,
,,,,,,0,2.153432084,#f3af84,"[""0"",""0.25""]",down_orange.png,down,,,,,,,,left,left_blue.png,down_orange.png,down,right,up,60885d559ca52f07dd234260,2021-09-11_16h51.53.683,arrow_simon_vert,2021.1.2,Win32,60.11421701,,,,,,,,,,,,,,,,,,,,,down,1,1.7397,26,TRUE,FALSE,6,1,25,3,1,,,,,,,
,,,,,,0,2.141125193,#a3d0fb,"[""-0.25"",""0""]",right_blue.png,right,,,,,,,,right,right_blue.png,up_orange.png,up,left,down,60885d559ca52f07dd234260,2021-09-11_16h51.53.683,arrow_simon_vert,2021.1.2,Win32,60.11421701,,,,,,,,,,,,,,,,,,,,,right,1,1.7191,27,TRUE,FALSE,6,2,26,0,1,,,,,,,
,,,,,,0,2.227494459,#f3af84,"[""0"",""-0.25""]",down_orange.png,down,,,,,,,,left,left_blue.png,down_orange.png,down,left,down,60885d559ca52f07dd234260,2021-09-11_16h51.53.683,arrow_simon_vert,2021.1.2,Win32,60.11421701,,,,,,,,,,,,,,,,,,,,,down,1,2.085,28,TRUE,FALSE,6,3,27,2,1,,,,,,,
,,,,,,0,1.726929684,#a3d0fb,"[""-0.25"",""0""]",left_blue.png,left,,,,,,,,left,left_blue.png,down_orange.png,down,left,down,60885d559ca52f07dd234260,2021-09-11_16h51.53.683,arrow_simon_vert,2021.1.2,Win32,60.11421701,,,,,,,,,,,,,,,,,,,,,left,1,1.2699,29,FALSE,TRUE,7,0,28,2,1,,,,,,,
,,,,,,0,2.081399667,#f3af84,"[""0"",""0.25""]",up_orange.png,up,,,,,,,,right,right_blue.png,up_orange.png,up,right,up,60885d559ca52f07dd234260,2021-09-11_16h51.53.683,arrow_simon_vert,2021.1.2,Win32,60.11421701,,,,,,,,,,,,,,,,,,,,,up,1,1.554,30,FALSE,FALSE,7,1,29,1,1,,,,,,,
,,,,,,0,1.739212669,#a3d0fb,"[""-0.25"",""0""]",left_blue.png,left,,,,,,,,left,left_blue.png,down_orange.png,down,left,down,60885d559ca52f07dd234260,2021-09-11_16h51.53.683,arrow_simon_vert,2021.1.2,Win32,60.11421701,,,,,,,,,,,,,,,,,,,,,left,1,1.1848,31,FALSE,TRUE,7,2,30,2,1,,,,,,,
,,,,,,0,2.047001884,#f3af84,"[""0"",""0.25""]",down_orange.png,down,,,,,,,,left,left_blue.png,down_orange.png,down,right,up,60885d559ca52f07dd234260,2021-09-11_16h51.53.683,arrow_simon_vert,2021.1.2,Win32,60.11421701,,,,,,,,,,,,,,,,,,,,,down,1,1.7674,32,TRUE,FALSE,7,3,31,3,1,,,,,,,
,,,,,,0,1.788276162,#a3d0fb,"[""-0.25"",""0""]",left_blue.png,left,,,,,,,,left,left_blue.png,down_orange.png,down,left,down,60885d559ca52f07dd234260,2021-09-11_16h51.53.683,arrow_simon_vert,2021.1.2,Win32,60.11421701,,,,,,,,,,,,,,,,,,,,,left,1,1.2673,33,FALSE,TRUE,8,0,32,2,1,,,,,,,
,,,,,,0,2.073959754,#f3af84,"[""0"",""-0.25""]",down_orange.png,down,,,,,,,,left,left_blue.png,down_orange.png,down,left,down,60885d559ca52f07dd234260,2021-09-11_16h51.53.683,arrow_simon_vert,2021.1.2,Win32,60.11421701,,,,,,,,,,,,,,,,,,,,,down,1,1.7567,34,TRUE,FALSE,8,1,33,2,1,,,,,,,
,,,,,,0,2.054427967,#a3d0fb,"[""-0.25"",""0""]",right_blue.png,right,,,,,,,,right,right_blue.png,up_orange.png,up,left,down,60885d559ca52f07dd234260,2021-09-11_16h51.53.683,arrow_simon_vert,2021.1.2,Win32,60.11421701,,,,,,,,,,,,,,,,,,,,,right,1,1.5679,35,FALSE,FALSE,8,2,34,0,1,,,,,,,
,,,,,,0,1.873483242,#f3af84,"[""0"",""0.25""]",down_orange.png,down,,,,,,,,left,left_blue.png,down_orange.png,down,right,up,60885d559ca52f07dd234260,2021-09-11_16h51.53.683,arrow_simon_vert,2021.1.2,Win32,60.11421701,,,,,,,,,,,,,,,,,,,,,down,1,1.4002,36,FALSE,FALSE,8,3,35,3,1,,,,,,,
,,,,,,0,2.298668081,#a3d0fb,"[""0.25"",""0""]",right_blue.png,right,,,,,,,,right,right_blue.png,up_orange.png,up,right,up,60885d559ca52f07dd234260,2021-09-11_16h51.53.683,arrow_simon_vert,2021.1.2,Win32,60.11421701,,,,,,,,,,,,,,,,,,,,,right,1,1.7521,37,TRUE,FALSE,9,0,36,1,1,,,,,,,
,,,,,,0,2.000888476,#f3af84,"[""0"",""0.25""]",up_orange.png,up,,,,,,,,right,right_blue.png,up_orange.png,up,right,up,60885d559ca52f07dd234260,2021-09-11_16h51.53.683,arrow_simon_vert,2021.1.2,Win32,60.11421701,,,,,,,,,,,,,,,,,,,,,up,1,1.6691,38,TRUE,FALSE,9,1,37,1,1,,,,,,,
,,,,,,0,1.709046745,#a3d0fb,"[""0.25"",""0""]",left_blue.png,left,,,,,,,,left,left_blue.png,down_orange.png,down,right,up,60885d559ca52f07dd234260,2021-09-11_16h51.53.683,arrow_simon_vert,2021.1.2,Win32,60.11421701,,,,,,,,,,,,,,,,,,,,,left,1,1.2848,39,FALSE,TRUE,9,2,38,3,1,,,,,,,
,,,,,,0,2.278644807,#f3af84,"[""0"",""-0.25""]",up_orange.png,up,,,,,,,,right,right_blue.png,up_orange.png,up,left,down,60885d559ca52f07dd234260,2021-09-11_16h51.53.683,arrow_simon_vert,2021.1.2,Win32,60.11421701,,,,,,,,,,,,,,,,,,,,,up,1,2.2354,40,TRUE,FALSE,9,3,39,0,1,,,,,,,
,,,,,,0,2.391481754,#a3d0fb,"[""0.25"",""0""]",right_blue.png,right,,,,,,,,right,right_blue.png,up_orange.png,up,right,up,60885d559ca52f07dd234260,2021-09-11_16h51.53.683,arrow_simon_vert,2021.1.2,Win32,60.11421701,,,,,,,,,,,,,,,,,,,,,right,1,1.7336,41,TRUE,FALSE,10,0,40,1,1,,,,,,,
,,,,,,0,1.855308708,#f3af84,"[""0"",""-0.25""]",up_orange.png,up,,,,,,,,right,right_blue.png,up_orange.png,up,left,down,60885d559ca52f07dd234260,2021-09-11_16h51.53.683,arrow_simon_vert,2021.1.2,Win32,60.11421701,,,,,,,,,,,,,,,,,,,,,up,1,1.3875,42,FALSE,TRUE,10,1,41,0,1,,,,,,,
,,,,,,0,1.759493385,#a3d0fb,"[""0.25"",""0""]",right_blue.png,right,,,,,,,,right,right_blue.png,up_orange.png,up,right,up,60885d559ca52f07dd234260,2021-09-11_16h51.53.683,arrow_simon_vert,2021.1.2,Win32,60.11421701,,,,,,,,,,,,,,,,,,,,,right,1,1.1337,43,FALSE,TRUE,10,2,42,1,1,,,,,,,
,,,,,,0,2.376204747,#f3af84,"[""0"",""0.25""]",up_orange.png,up,,,,,,,,right,right_blue.png,up_orange.png,up,right,up,60885d559ca52f07dd234260,2021-09-11_16h51.53.683,arrow_simon_vert,2021.1.2,Win32,60.11421701,,,,,,,,,,,,,,,,,,,,,up,1,1.8687,44,TRUE,FALSE,10,3,43,1,1,,,,,,,
,,,,,,0,1.634629863,#a3d0fb,"[""-0.25"",""0""]",right_blue.png,right,,,,,,,,right,right_blue.png,up_orange.png,up,left,down,60885d559ca52f07dd234260,2021-09-11_16h51.53.683,arrow_simon_vert,2021.1.2,Win32,60.11421701,,,,,,,,,,,,,,,,,,,,,right,1,1.2233,45,FALSE,TRUE,11,0,44,0,1,,,,,,,
,,,,,,0,2.411417976,#f3af84,"[""0"",""-0.25""]",up_orange.png,up,,,,,,,,right,right_blue.png,up_orange.png,up,left,down,60885d559ca52f07dd234260,2021-09-11_16h51.53.683,arrow_simon_vert,2021.1.2,Win32,60.11421701,,,,,,,,,,,,,,,,,,,,,right,0,1.7176,46,TRUE,FALSE,11,1,45,0,1,,,,,,,
,,,,,,0,2.152214943,#a3d0fb,"[""0.25"",""0""]",right_blue.png,right,,,,,,,,right,right_blue.png,up_orange.png,up,right,up,60885d559ca52f07dd234260,2021-09-11_16h51.53.683,arrow_simon_vert,2021.1.2,Win32,60.11421701,,,,,,,,,,,,,,,,,,,,,right,1,1.5516,47,FALSE,FALSE,11,2,46,1,1,,,,,,,
,,,,,,0,1.832887751,#f3af84,"[""0"",""0.25""]",down_orange.png,down,,,,,,,,left,left_blue.png,down_orange.png,down,right,up,60885d559ca52f07dd234260,2021-09-11_16h51.53.683,arrow_simon_vert,2021.1.2,Win32,60.11421701,,,,,,,,,,,,,,,,,,,,,right,0,1.3063,48,FALSE,TRUE,11,3,47,3,1,,,,,,,
,,,,,,0,1.779375605,#a3d0fb,"[""0.25"",""0""]",right_blue.png,right,,,,,,,,right,right_blue.png,up_orange.png,up,right,up,60885d559ca52f07dd234260,2021-09-11_16h51.53.683,arrow_simon_vert,2021.1.2,Win32,60.11421701,,,,,,,,,,,,,,,,,,,,,right,1,1.2226,49,FALSE,TRUE,12,0,48,1,1,,,,,,,
,,,,,,0,1.643257791,#f3af84,"[""0"",""-0.25""]",down_orange.png,down,,,,,,,,left,left_blue.png,down_orange.png,down,left,down,60885d559ca52f07dd234260,2021-09-11_16h51.53.683,arrow_simon_vert,2021.1.2,Win32,60.11421701,,,,,,,,,,,,,,,,,,,,,down,1,1.2667,50,FALSE,TRUE,12,1,49,2,1,,,,,,,
,,,,,,0,2.283874167,#a3d0fb,"[""-0.25"",""0""]",right_blue.png,right,,,,,,,,right,right_blue.png,up_orange.png,up,left,down,60885d559ca52f07dd234260,2021-09-11_16h51.53.683,arrow_simon_vert,2021.1.2,Win32,60.11421701,,,,,,,,,,,,,,,,,,,,,right,1,1.7893,51,TRUE,FALSE,12,2,50,0,1,,,,,,,
,,,,,,0,2.084385084,#f3af84,"[""0"",""-0.25""]",down_orange.png,down,,,,,,,,left,left_blue.png,down_orange.png,down,left,down,60885d559ca52f07dd234260,2021-09-11_16h51.53.683,arrow_simon_vert,2021.1.2,Win32,60.11421701,,,,,,,,,,,,,,,,,,,,,down,1,1.6345,52,TRUE,FALSE,12,3,51,2,1,,,,,,,
,,,,,,0,1.912494041,#a3d0fb,"[""0.25"",""0""]",left_blue.png,left,,,,,,,,left,left_blue.png,down_orange.png,down,right,up,60885d559ca52f07dd234260,2021-09-11_16h51.53.683,arrow_simon_vert,2021.1.2,Win32,60.11421701,,,,,,,,,,,,,,,,,,,,,down,0,1.7051,53,TRUE,FALSE,13,0,52,3,1,,,,,,,
,,,,,,0,1.708983995,#f3af84,"[""0"",""0.25""]",down_orange.png,down,,,,,,,,left,left_blue.png,down_orange.png,down,right,up,60885d559ca52f07dd234260,2021-09-11_16h51.53.683,arrow_simon_vert,2021.1.2,Win32,60.11421701,,,,,,,,,,,,,,,,,,,,,down,1,1.4628,54,FALSE,FALSE,13,1,53,3,1,,,,,,,
,,,,,,0,1.579595588,#a3d0fb,"[""-0.25"",""0""]",right_blue.png,right,,,,,,,,right,right_blue.png,up_orange.png,up,left,down,60885d559ca52f07dd234260,2021-09-11_16h51.53.683,arrow_simon_vert,2021.1.2,Win32,60.11421701,,,,,,,,,,,,,,,,,,,,,right,1,1.0684,55,FALSE,TRUE,13,2,54,0,1,,,,,,,
,,,,,,0,1.690125899,#f3af84,"[""0"",""-0.25""]",up_orange.png,up,,,,,,,,right,right_blue.png,up_orange.png,up,left,down,60885d559ca52f07dd234260,2021-09-11_16h51.53.683,arrow_simon_vert,2021.1.2,Win32,60.11421701,,,,,,,,,,,,,,,,,,,,,up,1,1.6364,56,TRUE,FALSE,13,3,55,0,1,,,,,,,
,,,,,,0,1.540032196,#a3d0fb,"[""0.25"",""0""]",left_blue.png,left,,,,,,,,left,left_blue.png,down_orange.png,down,right,up,60885d559ca52f07dd234260,2021-09-11_16h51.53.683,arrow_simon_vert,2021.1.2,Win32,60.11421701,,,,,,,,,,,,,,,,,,,,,left,1,1.1175,57,FALSE,TRUE,14,0,56,3,1,,,,,,,
,,,,,,0,1.905803187,#f3af84,"[""0"",""-0.25""]",down_orange.png,down,,,,,,,,left,left_blue.png,down_orange.png,down,left,down,60885d559ca52f07dd234260,2021-09-11_16h51.53.683,arrow_simon_vert,2021.1.2,Win32,60.11421701,,,,,,,,,,,,,,,,,,,,,down,1,1.675,58,TRUE,FALSE,14,1,57,2,1,,,,,,,
,,,,,,0,1.578748921,#a3d0fb,"[""0.25"",""0""]",right_blue.png,right,,,,,,,,right,right_blue.png,up_orange.png,up,right,up,60885d559ca52f07dd234260,2021-09-11_16h51.53.683,arrow_simon_vert,2021.1.2,Win32,60.11421701,,,,,,,,,,,,,,,,,,,,,right,1,1.0776,59,FALSE,TRUE,14,2,58,1,1,,,,,,,
,,,,,,0,2.102772253,#f3af84,"[""0"",""0.25""]",down_orange.png,down,,,,,,,,left,left_blue.png,down_orange.png,down,right,up,60885d559ca52f07dd234260,2021-09-11_16h51.53.683,arrow_simon_vert,2021.1.2,Win32,60.11421701,,,,,,,,,,,,,,,,,,,,,down,1,1.9512,60,TRUE,FALSE,14,3,59,3,1,,,,,,,
,,,,,,,,,,,,,,,,,,,,,,,,,60885d559ca52f07dd234260,2021-09-11_16h51.53.683,arrow_simon_vert,2021.1.2,Win32,60.11421701,,,,,,,,,,,,,,,,,,,,,,,,,,,,,,,,space,225.7777,2,0,2,0,1
,,,,,,0,1.807597815,#a3d0fb,"[""-0.25"",""0""]",right_blue.png,right,,,,,,,,right,right_blue.png,up_orange.png,up,left,down,60885d559ca52f07dd234260,2021-09-11_16h51.53.683,arrow_simon_vert,2021.1.2,Win32,60.11421701,,,,,,,,,,,,,,,,,,,,,right,1,1.2854,1,FALSE,TRUE,0,0,0,0,1,,,,,,,
,,,,,,0,1.673154524,#f3af84,"[""0"",""0.25""]",down_orange.png,down,,,,,,,,left,left_blue.png,down_orange.png,down,right,up,60885d559ca52f07dd234260,2021-09-11_16h51.53.683,arrow_simon_vert,2021.1.2,Win32,60.11421701,,,,,,,,,,,,,,,,,,,,,down,1,1.2726,2,FALSE,TRUE,0,1,1,3,1,,,,,,,
,,,,,,0,2.446358481,#a3d0fb,"[""-0.25"",""0""]",right_blue.png,right,,,,,,,,right,right_blue.png,up_orange.png,up,left,down,60885d559ca52f07dd234260,2021-09-11_16h51.53.683,arrow_simon_vert,2021.1.2,Win32,60.11421701,,,,,,,,,,,,,,,,,,,,,right,1,1.9343,3,TRUE,FALSE,0,2,2,0,1,,,,,,,
,,,,,,0,1.593705674,#f3af84,"[""0"",""0.25""]",down_orange.png,down,,,,,,,,left,left_blue.png,down_orange.png,down,right,up,60885d559ca52f07dd234260,2021-09-11_16h51.53.683,arrow_simon_vert,2021.1.2,Win32,60.11421701,,,,,,,,,,,,,,,,,,,,,down,1,1.2188,4,FALSE,TRUE,0,3,3,3,1,,,,,,,
,,,,,,0,2.081349926,#a3d0fb,"[""0.25"",""0""]",right_blue.png,right,,,,,,,,right,right_blue.png,up_orange.png,up,right,up,60885d559ca52f07dd234260,2021-09-11_16h51.53.683,arrow_simon_vert,2021.1.2,Win32,60.11421701,,,,,,,,,,,,,,,,,,,,,right,1,1.6213,5,TRUE,FALSE,1,0,4,1,1,,,,,,,
,,,,,,0,1.542238593,#f3af84,"[""0"",""0.25""]",up_orange.png,up,,,,,,,,right,right_blue.png,up_orange.png,up,right,up,60885d559ca52f07dd234260,2021-09-11_16h51.53.683,arrow_simon_vert,2021.1.2,Win32,60.11421701,,,,,,,,,,,,,,,,,,,,,up,1,1.4351,6,FALSE,FALSE,1,1,5,1,1,,,,,,,
,,,,,,0,2.08779609,#a3d0fb,"[""-0.25"",""0""]",left_blue.png,left,,,,,,,,left,left_blue.png,down_orange.png,down,left,down,60885d559ca52f07dd234260,2021-09-11_16h51.53.683,arrow_simon_vert,2021.1.2,Win32,60.11421701,,,,,,,,,,,,,,,,,,,,,left,1,1.6846,7,TRUE,FALSE,1,2,6,2,1,,,,,,,
,,,,,,0,2.434161016,#f3af84,"[""0"",""-0.25""]",down_orange.png,down,,,,,,,,left,left_blue.png,down_orange.png,down,left,down,60885d559ca52f07dd234260,2021-09-11_16h51.53.683,arrow_simon_vert,2021.1.2,Win32,60.11421701,,,,,,,,,,,,,,,,,,,,,down,1,2.2188,8,TRUE,FALSE,1,3,7,2,1,,,,,,,
,,,,,,0,1.954616042,#a3d0fb,"[""0.25"",""0""]",left_blue.png,left,,,,,,,,left,left_blue.png,down_orange.png,down,right,up,60885d559ca52f07dd234260,2021-09-11_16h51.53.683,arrow_simon_vert,2021.1.2,Win32,60.11421701,,,,,,,,,,,,,,,,,,,,,left,1,1.4336,9,FALSE,FALSE,2,0,8,3,1,,,,,,,
,,,,,,0,1.766863987,#f3af84,"[""0"",""-0.25""]",up_orange.png,up,,,,,,,,right,right_blue.png,up_orange.png,up,left,down,60885d559ca52f07dd234260,2021-09-11_16h51.53.683,arrow_simon_vert,2021.1.2,Win32,60.11421701,,,,,,,,,,,,,,,,,,,,,up,1,1.4681,10,FALSE,FALSE,2,1,9,0,1,,,,,,,
,,,,,,0,1.824028808,#a3d0fb,"[""-0.25"",""0""]",right_blue.png,right,,,,,,,,right,right_blue.png,up_orange.png,up,left,down,60885d559ca52f07dd234260,2021-09-11_16h51.53.683,arrow_simon_vert,2021.1.2,Win32,60.11421701,,,,,,,,,,,,,,,,,,,,,right,1,1.3018,11,FALSE,TRUE,2,2,10,0,1,,,,,,,
,,,,,,0,1.810929877,#f3af84,"[""0"",""-0.25""]",up_orange.png,up,,,,,,,,right,right_blue.png,up_orange.png,up,left,down,60885d559ca52f07dd234260,2021-09-11_16h51.53.683,arrow_simon_vert,2021.1.2,Win32,60.11421701,,,,,,,,,,,,,,,,,,,,,up,1,1.7401,12,TRUE,FALSE,2,3,11,0,1,,,,,,,
,,,,,,0,2.233905031,#a3d0fb,"[""0.25"",""0""]",left_blue.png,left,,,,,,,,left,left_blue.png,down_orange.png,down,right,up,60885d559ca52f07dd234260,2021-09-11_16h51.53.683,arrow_simon_vert,2021.1.2,Win32,60.11421701,,,,,,,,,,,,,,,,,,,,,left,1,1.7038,13,TRUE,FALSE,3,0,12,3,1,,,,,,,
,,,,,,0,1.549374058,#f3af84,"[""0"",""-0.25""]",down_orange.png,down,,,,,,,,left,left_blue.png,down_orange.png,down,left,down,60885d559ca52f07dd234260,2021-09-11_16h51.53.683,arrow_simon_vert,2021.1.2,Win32,60.11421701,,,,,,,,,,,,,,,,,,,,,down,1,1.954,14,TRUE,FALSE,3,1,13,2,1,,,,,,,
,,,,,,0,1.73996253,#a3d0fb,"[""-0.25"",""0""]",left_blue.png,left,,,,,,,,left,left_blue.png,down_orange.png,down,left,down,60885d559ca52f07dd234260,2021-09-11_16h51.53.683,arrow_simon_vert,2021.1.2,Win32,60.11421701,,,,,,,,,,,,,,,,,,,,,left,1,1.1971,15,FALSE,TRUE,3,2,14,2,1,,,,,,,
