instruct_resp_simon.keys,instruct_resp_simon.corr,instruct_resp_simon.rt,trial_resp_simon.keys,trial_resp_simon.corr,trial_resp_simon.rt,kerr,target_onset,target_color,target_pos,target_file,target_resp,trials_train_simon.thisRepN,trials_train_simon.thisTrialN,trials_train_simon.thisN,trials_train_simon.thisIndex,trials_train_simon.ran,odd_target_pos,even_target_pos,odd_target_resp,odd_target_file,even_target_file,even_target_resp,odd_target_side,even_target_side,participant,date,expName,psychopyVersion,OS,frameRate,train_block_note_resp.keys,train_block_note_resp.rt,blocks_train.thisRepN,blocks_train.thisTrialN,blocks_train.thisN,blocks_train.thisIndex,blocks_train.ran,instruct_resp_timing.keys,instruct_resp_timing.corr,instruct_resp_timing.rt,trial_resp_timing.keys,trial_resp_timing.rt,trials_train_timing.thisRepN,trials_train_timing.thisTrialN,trials_train_timing.thisN,trials_train_timing.thisIndex,trials_train_timing.ran,instruct_resp.keys,instruct_resp.corr,instruct_resp.rt,trial_resp.keys,trial_resp.corr,trial_resp.rt,trial_num,too_slow,too_soon,trials.thisRepN,trials.thisTrialN,trials.thisN,trials.thisIndex,trials.ran,block_note_resp.keys,block_note_resp.rt,blocks.thisRepN,blocks.thisTrialN,blocks.thisN,blocks.thisIndex,blocks.ran
space,0,82.0315,right,1,1.1759,0,0.326727317,#a3d0fb,"[""-0.25"",""0""]",right_blue.png,right,0,0,0,0,1,,,right,right_blue.png,up_orange.png,up,left,down,60c12fe6ca8c4aa6d0185190,2021-09-11_16h38.19.843,arrow_simon_vert,2021.1.2,Win32,59.88741167,,,,,,,,,,,,,,,,,,,,,,,,,,,,,,,,,,,,,,
,,,down,1,1.4416,0,0.758839223,#f3af84,"[""0"",""0.25""]",down_orange.png,down,0,1,1,3,1,,,left,left_blue.png,down_orange.png,down,right,up,60c12fe6ca8c4aa6d0185190,2021-09-11_16h38.19.843,arrow_simon_vert,2021.1.2,Win32,59.88741167,,,,,,,,,,,,,,,,,,,,,,,,,,,,,,,,,,,,,,
,,,left,1,1.1853,0,0.535984318,#a3d0fb,"[""0.25"",""0""]",left_blue.png,left,0,2,2,3,1,,,left,left_blue.png,down_orange.png,down,right,up,60c12fe6ca8c4aa6d0185190,2021-09-11_16h38.19.843,arrow_simon_vert,2021.1.2,Win32,59.88741167,,,,,,,,,,,,,,,,,,,,,,,,,,,,,,,,,,,,,,
,,,down,1,0.8706,0,0.272324362,#f3af84,"[""0"",""0.25""]",down_orange.png,down,0,3,3,3,1,,,left,left_blue.png,down_orange.png,down,right,up,60c12fe6ca8c4aa6d0185190,2021-09-11_16h38.19.843,arrow_simon_vert,2021.1.2,Win32,59.88741167,,,,,,,,,,,,,,,,,,,,,,,,,,,,,,,,,,,,,,
,,,right,1,0.6746,0,0.125745776,#a3d0fb,"[""0.25"",""0""]",right_blue.png,right,1,0,4,1,1,,,right,right_blue.png,up_orange.png,up,right,up,60c12fe6ca8c4aa6d0185190,2021-09-11_16h38.19.843,arrow_simon_vert,2021.1.2,Win32,59.88741167,,,,,,,,,,,,,,,,,,,,,,,,,,,,,,,,,,,,,,
,,,down,1,0.7164,0,0.097943277,#f3af84,"[""0"",""-0.25""]",down_orange.png,down,1,1,5,2,1,,,left,left_blue.png,down_orange.png,down,left,down,60c12fe6ca8c4aa6d0185190,2021-09-11_16h38.19.843,arrow_simon_vert,2021.1.2,Win32,59.88741167,,,,,,,,,,,,,,,,,,,,,,,,,,,,,,,,,,,,,,
,,,left,1,0.8547,0,0.294523046,#a3d0fb,"[""0.25"",""0""]",left_blue.png,left,1,2,6,3,1,,,left,left_blue.png,down_orange.png,down,right,up,60c12fe6ca8c4aa6d0185190,2021-09-11_16h38.19.843,arrow_simon_vert,2021.1.2,Win32,59.88741167,,,,,,,,,,,,,,,,,,,,,,,,,,,,,,,,,,,,,,
,,,down,1,1.1034,0,0.449686297,#f3af84,"[""0"",""-0.25""]",down_orange.png,down,1,3,7,2,1,,,left,left_blue.png,down_orange.png,down,left,down,60c12fe6ca8c4aa6d0185190,2021-09-11_16h38.19.843,arrow_simon_vert,2021.1.2,Win32,59.88741167,,,,,,,,,,,,,,,,,,,,,,,,,,,,,,,,,,,,,,
,,,right,1,1.0827,0,0.450615516,#a3d0fb,"[""-0.25"",""0""]",right_blue.png,right,2,0,8,0,1,,,right,right_blue.png,up_orange.png,up,left,down,60c12fe6ca8c4aa6d0185190,2021-09-11_16h38.19.843,arrow_simon_vert,2021.1.2,Win32,59.88741167,,,,,,,,,,,,,,,,,,,,,,,,,,,,,,,,,,,,,,
,,,up,1,0.8325,0,0.300158772,#f3af84,"[""0"",""0.25""]",up_orange.png,up,2,1,9,1,1,,,right,right_blue.png,up_orange.png,up,right,up,60c12fe6ca8c4aa6d0185190,2021-09-11_16h38.19.843,arrow_simon_vert,2021.1.2,Win32,59.88741167,,,,,,,,,,,,,,,,,,,,,,,,,,,,,,,,,,,,,,
,,,left,1,0.5677,0,0.025329309,#a3d0fb,"[""0.25"",""0""]",left_blue.png,left,2,2,10,3,1,,,left,left_blue.png,down_orange.png,down,right,up,60c12fe6ca8c4aa6d0185190,2021-09-11_16h38.19.843,arrow_simon_vert,2021.1.2,Win32,59.88741167,,,,,,,,,,,,,,,,,,,,,,,,,,,,,,,,,,,,,,
,,,up,1,0.8492,0,0.218983112,#f3af84,"[""0"",""-0.25""]",up_orange.png,up,2,3,11,0,1,,,right,right_blue.png,up_orange.png,up,left,down,60c12fe6ca8c4aa6d0185190,2021-09-11_16h38.19.843,arrow_simon_vert,2021.1.2,Win32,59.88741167,,,,,,,,,,,,,,,,,,,,,,,,,,,,,,,,,,,,,,
,,,left,1,1.2278,0,0.650137139,#a3d0fb,"[""0.25"",""0""]",left_blue.png,left,3,0,12,3,1,,,left,left_blue.png,down_orange.png,down,right,up,60c12fe6ca8c4aa6d0185190,2021-09-11_16h38.19.843,arrow_simon_vert,2021.1.2,Win32,59.88741167,,,,,,,,,,,,,,,,,,,,,,,,,,,,,,,,,,,,,,
,,,down,1,1.443,0,0.879166537,#f3af84,"[""0"",""-0.25""]",down_orange.png,down,3,1,13,2,1,,,left,left_blue.png,down_orange.png,down,left,down,60c12fe6ca8c4aa6d0185190,2021-09-11_16h38.19.843,arrow_simon_vert,2021.1.2,Win32,59.88741167,,,,,,,,,,,,,,,,,,,,,,,,,,,,,,,,,,,,,,
,,,left,1,0.8503,0,0.207982353,#a3d0fb,"[""0.25"",""0""]",left_blue.png,left,3,2,14,3,1,,,left,left_blue.png,down_orange.png,down,right,up,60c12fe6ca8c4aa6d0185190,2021-09-11_16h38.19.843,arrow_simon_vert,2021.1.2,Win32,59.88741167,,,,,,,,,,,,,,,,,,,,,,,,,,,,,,,,,,,,,,
,,,down,1,1.4287,0,0.829087019,#f3af84,"[""0"",""-0.25""]",down_orange.png,down,3,3,15,2,1,,,left,left_blue.png,down_orange.png,down,left,down,60c12fe6ca8c4aa6d0185190,2021-09-11_16h38.19.843,arrow_simon_vert,2021.1.2,Win32,59.88741167,,,,,,,,,,,,,,,,,,,,,,,,,,,,,,,,,,,,,,
,,,right,1,1.4315,0,0.806829219,#a3d0fb,"[""0.25"",""0""]",right_blue.png,right,4,0,16,1,1,,,right,right_blue.png,up_orange.png,up,right,up,60c12fe6ca8c4aa6d0185190,2021-09-11_16h38.19.843,arrow_simon_vert,2021.1.2,Win32,59.88741167,,,,,,,,,,,,,,,,,,,,,,,,,,,,,,,,,,,,,,
,,,down,1,1.4821,0,0.75314603,#f3af84,"[""0"",""0.25""]",down_orange.png,down,4,1,17,3,1,,,left,left_blue.png,down_orange.png,down,right,up,60c12fe6ca8c4aa6d0185190,2021-09-11_16h38.19.843,arrow_simon_vert,2021.1.2,Win32,59.88741167,,,,,,,,,,,,,,,,,,,,,,,,,,,,,,,,,,,,,,
,,,left,1,0.9991,0,0.439107848,#a3d0fb,"[""-0.25"",""0""]",left_blue.png,left,4,2,18,2,1,,,left,left_blue.png,down_orange.png,down,left,down,60c12fe6ca8c4aa6d0185190,2021-09-11_16h38.19.843,arrow_simon_vert,2021.1.2,Win32,59.88741167,,,,,,,,,,,,,,,,,,,,,,,,,,,,,,,,,,,,,,
,,,down,1,0.9954,0,0.421853602,#f3af84,"[""0"",""-0.25""]",down_orange.png,down,4,3,19,2,1,,,left,left_blue.png,down_orange.png,down,left,down,60c12fe6ca8c4aa6d0185190,2021-09-11_16h38.19.843,arrow_simon_vert,2021.1.2,Win32,59.88741167,,,,,,,,,,,,,,,,,,,,,,,,,,,,,,,,,,,,,,
,,,right,1,1.1011,0,0.412382043,#a3d0fb,"[""-0.25"",""0""]",right_blue.png,right,5,0,20,0,1,,,right,right_blue.png,up_orange.png,up,left,down,60c12fe6ca8c4aa6d0185190,2021-09-11_16h38.19.843,arrow_simon_vert,2021.1.2,Win32,59.88741167,,,,,,,,,,,,,,,,,,,,,,,,,,,,,,,,,,,,,,
,,,up,1,1.2065,0,0.491658666,#f3af84,"[""0"",""0.25""]",up_orange.png,up,5,1,21,1,1,,,right,right_blue.png,up_orange.png,up,right,up,60c12fe6ca8c4aa6d0185190,2021-09-11_16h38.19.843,arrow_simon_vert,2021.1.2,Win32,59.88741167,,,,,,,,,,,,,,,,,,,,,,,,,,,,,,,,,,,,,,
,,,left,1,0.6528,0,0.106062028,#a3d0fb,"[""-0.25"",""0""]",left_blue.png,left,5,2,22,2,1,,,left,left_blue.png,down_orange.png,down,left,down,60c12fe6ca8c4aa6d0185190,2021-09-11_16h38.19.843,arrow_simon_vert,2021.1.2,Win32,59.88741167,,,,,,,,,,,,,,,,,,,,,,,,,,,,,,,,,,,,,,
,,,up,1,0.8426,0,0.184967449,#f3af84,"[""0"",""-0.25""]",up_orange.png,up,5,3,23,0,1,,,right,right_blue.png,up_orange.png,up,left,down,60c12fe6ca8c4aa6d0185190,2021-09-11_16h38.19.843,arrow_simon_vert,2021.1.2,Win32,59.88741167,,,,,,,,,,,,,,,,,,,,,,,,,,,,,,,,,,,,,,
,,,right,1,0.9072,0,0.212120571,#a3d0fb,"[""-0.25"",""0""]",right_blue.png,right,6,0,24,0,1,,,right,right_blue.png,up_orange.png,up,left,down,60c12fe6ca8c4aa6d0185190,2021-09-11_16h38.19.843,arrow_simon_vert,2021.1.2,Win32,59.88741167,,,,,,,,,,,,,,,,,,,,,,,,,,,,,,,,,,,,,,
,,,up,1,1.5101,0,0.63054855,#f3af84,"[""0"",""-0.25""]",up_orange.png,up,6,1,25,0,1,,,right,right_blue.png,up_orange.png,up,left,down,60c12fe6ca8c4aa6d0185190,2021-09-11_16h38.19.843,arrow_simon_vert,2021.1.2,Win32,59.88741167,,,,,,,,,,,,,,,,,,,,,,,,,,,,,,,,,,,,,,
,,,left,1,0.7822,0,0.188476841,#a3d0fb,"[""0.25"",""0""]",left_blue.png,left,6,2,26,3,1,,,left,left_blue.png,down_orange.png,down,right,up,60c12fe6ca8c4aa6d0185190,2021-09-11_16h38.19.843,arrow_simon_vert,2021.1.2,Win32,59.88741167,,,,,,,,,,,,,,,,,,,,,,,,,,,,,,,,,,,,,,
,,,down,1,1.3436,0,0.738767892,#f3af84,"[""0"",""0.25""]",down_orange.png,down,6,3,27,3,1,,,left,left_blue.png,down_orange.png,down,right,up,60c12fe6ca8c4aa6d0185190,2021-09-11_16h38.19.843,arrow_simon_vert,2021.1.2,Win32,59.88741167,,,,,,,,,,,,,,,,,,,,,,,,,,,,,,,,,,,,,,
,,,right,1,1.1498,0,0.450367658,#a3d0fb,"[""-0.25"",""0""]",right_blue.png,right,7,0,28,0,1,,,right,right_blue.png,up_orange.png,up,left,down,60c12fe6ca8c4aa6d0185190,2021-09-11_16h38.19.843,arrow_simon_vert,2021.1.2,Win32,59.88741167,,,,,,,,,,,,,,,,,,,,,,,,,,,,,,,,,,,,,,
,,,down,1,1.5178,0,0.819786661,#f3af84,"[""0"",""-0.25""]",down_orange.png,down,7,1,29,2,1,,,left,left_blue.png,down_orange.png,down,left,down,60c12fe6ca8c4aa6d0185190,2021-09-11_16h38.19.843,arrow_simon_vert,2021.1.2,Win32,59.88741167,,,,,,,,,,,,,,,,,,,,,,,,,,,,,,,,,,,,,,
,,,right,1,1.4828,0,0.947227416,#a3d0fb,"[""0.25"",""0""]",right_blue.png,right,7,2,30,1,1,,,right,right_blue.png,up_orange.png,up,right,up,60c12fe6ca8c4aa6d0185190,2021-09-11_16h38.19.843,arrow_simon_vert,2021.1.2,Win32,59.88741167,,,,,,,,,,,,,,,,,,,,,,,,,,,,,,,,,,,,,,
,,,up,1,1.3498,0,0.617084214,#f3af84,"[""0"",""0.25""]",up_orange.png,up,7,3,31,1,1,,,right,right_blue.png,up_orange.png,up,right,up,60c12fe6ca8c4aa6d0185190,2021-09-11_16h38.19.843,arrow_simon_vert,2021.1.2,Win32,59.88741167,,,,,,,,,,,,,,,,,,,,,,,,,,,,,,,,,,,,,,
,,,left,1,1.1565,0,0.751381201,#a3d0fb,"[""-0.25"",""0""]",left_blue.png,left,8,0,32,2,1,,,left,left_blue.png,down_orange.png,down,left,down,60c12fe6ca8c4aa6d0185190,2021-09-11_16h38.19.843,arrow_simon_vert,2021.1.2,Win32,59.88741167,,,,,,,,,,,,,,,,,,,,,,,,,,,,,,,,,,,,,,
,,,up,1,1.3329,0,0.764017369,#f3af84,"[""0"",""-0.25""]",up_orange.png,up,8,1,33,0,1,,,right,right_blue.png,up_orange.png,up,left,down,60c12fe6ca8c4aa6d0185190,2021-09-11_16h38.19.843,arrow_simon_vert,2021.1.2,Win32,59.88741167,,,,,,,,,,,,,,,,,,,,,,,,,,,,,,,,,,,,,,
,,,left,1,1.5902,0,0.995464475,#a3d0fb,"[""0.25"",""0""]",left_blue.png,left,8,2,34,3,1,,,left,left_blue.png,down_orange.png,down,right,up,60c12fe6ca8c4aa6d0185190,2021-09-11_16h38.19.843,arrow_simon_vert,2021.1.2,Win32,59.88741167,,,,,,,,,,,,,,,,,,,,,,,,,,,,,,,,,,,,,,
,,,up,1,1.2836,0,0.756419108,#f3af84,"[""0"",""-0.25""]",up_orange.png,up,8,3,35,0,1,,,right,right_blue.png,up_orange.png,up,left,down,60c12fe6ca8c4aa6d0185190,2021-09-11_16h38.19.843,arrow_simon_vert,2021.1.2,Win32,59.88741167,,,,,,,,,,,,,,,,,,,,,,,,,,,,,,,,,,,,,,
,,,right,1,0.849,0,0.30826091,#a3d0fb,"[""0.25"",""0""]",right_blue.png,right,9,0,36,1,1,,,right,right_blue.png,up_orange.png,up,right,up,60c12fe6ca8c4aa6d0185190,2021-09-11_16h38.19.843,arrow_simon_vert,2021.1.2,Win32,59.88741167,,,,,,,,,,,,,,,,,,,,,,,,,,,,,,,,,,,,,,
,,,down,1,0.8997,0,0.259441279,#f3af84,"[""0"",""0.25""]",down_orange.png,down,9,1,37,3,1,,,left,left_blue.png,down_orange.png,down,right,up,60c12fe6ca8c4aa6d0185190,2021-09-11_16h38.19.843,arrow_simon_vert,2021.1.2,Win32,59.88741167,,,,,,,,,,,,,,,,,,,,,,,,,,,,,,,,,,,,,,
,,,right,1,1.3104,0,0.731726576,#a3d0fb,"[""0.25"",""0""]",right_blue.png,right,9,2,38,1,1,,,right,right_blue.png,up_orange.png,up,right,up,60c12fe6ca8c4aa6d0185190,2021-09-11_16h38.19.843,arrow_simon_vert,2021.1.2,Win32,59.88741167,,,,,,,,,,,,,,,,,,,,,,,,,,,,,,,,,,,,,,
,,,down,1,1.3277,0,0.734717069,#f3af84,"[""0"",""-0.25""]",down_orange.png,down,9,3,39,2,1,,,left,left_blue.png,down_orange.png,down,left,down,60c12fe6ca8c4aa6d0185190,2021-09-11_16h38.19.843,arrow_simon_vert,2021.1.2,Win32,59.88741167,,,,,,,,,,,,,,,,,,,,,,,,,,,,,,,,,,,,,,
,,,left,1,1.2442,0,0.775476513,#a3d0fb,"[""-0.25"",""0""]",left_blue.png,left,10,0,40,2,1,,,left,left_blue.png,down_orange.png,down,left,down,60c12fe6ca8c4aa6d0185190,2021-09-11_16h38.19.843,arrow_simon_vert,2021.1.2,Win32,59.88741167,,,,,,,,,,,,,,,,,,,,,,,,,,,,,,,,,,,,,,
,,,up,1,0.8228,0,0.21158338,#f3af84,"[""0"",""0.25""]",up_orange.png,up,10,1,41,1,1,,,right,right_blue.png,up_orange.png,up,right,up,60c12fe6ca8c4aa6d0185190,2021-09-11_16h38.19.843,arrow_simon_vert,2021.1.2,Win32,59.88741167,,,,,,,,,,,,,,,,,,,,,,,,,,,,,,,,,,,,,,
,,,right,1,0.8333,0,0.209997976,#a3d0fb,"[""-0.25"",""0""]",right_blue.png,right,10,2,42,0,1,,,right,right_blue.png,up_orange.png,up,left,down,60c12fe6ca8c4aa6d0185190,2021-09-11_16h38.19.843,arrow_simon_vert,2021.1.2,Win32,59.88741167,,,,,,,,,,,,,,,,,,,,,,,,,,,,,,,,,,,,,,
,,,down,1,0.8624,0,0.256082555,#f3af84,"[""0"",""0.25""]",down_orange.png,down,10,3,43,3,1,,,left,left_blue.png,down_orange.png,down,right,up,60c12fe6ca8c4aa6d0185190,2021-09-11_16h38.19.843,arrow_simon_vert,2021.1.2,Win32,59.88741167,,,,,,,,,,,,,,,,,,,,,,,,,,,,,,,,,,,,,,
,,,left,1,1.3832,0,0.837476471,#a3d0fb,"[""-0.25"",""0""]",left_blue.png,left,11,0,44,2,1,,,left,left_blue.png,down_orange.png,down,left,down,60c12fe6ca8c4aa6d0185190,2021-09-11_16h38.19.843,arrow_simon_vert,2021.1.2,Win32,59.88741167,,,,,,,,,,,,,,,,,,,,,,,,,,,,,,,,,,,,,,
,,,down,1,1.1607,0,0.665057114,#f3af84,"[""0"",""-0.25""]",down_orange.png,down,11,1,45,2,1,,,left,left_blue.png,down_orange.png,down,left,down,60c12fe6ca8c4aa6d0185190,2021-09-11_16h38.19.843,arrow_simon_vert,2021.1.2,Win32,59.88741167,,,,,,,,,,,,,,,,,,,,,,,,,,,,,,,,,,,,,,
,,,left,1,1.4829,0,0.913882535,#a3d0fb,"[""0.25"",""0""]",left_blue.png,left,11,2,46,3,1,,,left,left_blue.png,down_orange.png,down,right,up,60c12fe6ca8c4aa6d0185190,2021-09-11_16h38.19.843,arrow_simon_vert,2021.1.2,Win32,59.88741167,,,,,,,,,,,,,,,,,,,,,,,,,,,,,,,,,,,,,,
,,,up,1,1.2159,0,0.761954302,#f3af84,"[""0"",""0.25""]",up_orange.png,up,11,3,47,1,1,,,right,right_blue.png,up_orange.png,up,right,up,60c12fe6ca8c4aa6d0185190,2021-09-11_16h38.19.843,arrow_simon_vert,2021.1.2,Win32,59.88741167,,,,,,,,,,,,,,,,,,,,,,,,,,,,,,,,,,,,,,
,,,right,1,1.3837,0,0.867541259,#a3d0fb,"[""-0.25"",""0""]",right_blue.png,right,12,0,48,0,1,,,right,right_blue.png,up_orange.png,up,left,down,60c12fe6ca8c4aa6d0185190,2021-09-11_16h38.19.843,arrow_simon_vert,2021.1.2,Win32,59.88741167,,,,,,,,,,,,,,,,,,,,,,,,,,,,,,,,,,,,,,
,,,up,1,1.066,0,0.313540407,#f3af84,"[""0"",""0.25""]",up_orange.png,up,12,1,49,1,1,,,right,right_blue.png,up_orange.png,up,right,up,60c12fe6ca8c4aa6d0185190,2021-09-11_16h38.19.843,arrow_simon_vert,2021.1.2,Win32,59.88741167,,,,,,,,,,,,,,,,,,,,,,,,,,,,,,,,,,,,,,
,,,right,1,1.1933,0,0.558124971,#a3d0fb,"[""-0.25"",""0""]",right_blue.png,right,12,2,50,0,1,,,right,right_blue.png,up_orange.png,up,left,down,60c12fe6ca8c4aa6d0185190,2021-09-11_16h38.19.843,arrow_simon_vert,2021.1.2,Win32,59.88741167,,,,,,,,,,,,,,,,,,,,,,,,,,,,,,,,,,,,,,
,,,up,1,1.3162,0,0.832240911,#f3af84,"[""0"",""0.25""]",up_orange.png,up,12,3,51,1,1,,,right,right_blue.png,up_orange.png,up,right,up,60c12fe6ca8c4aa6d0185190,2021-09-11_16h38.19.843,arrow_simon_vert,2021.1.2,Win32,59.88741167,,,,,,,,,,,,,,,,,,,,,,,,,,,,,,,,,,,,,,
,,,right,1,1.5152,0,0.951287834,#a3d0fb,"[""-0.25"",""0""]",right_blue.png,right,13,0,52,0,1,,,right,right_blue.png,up_orange.png,up,left,down,60c12fe6ca8c4aa6d0185190,2021-09-11_16h38.19.843,arrow_simon_vert,2021.1.2,Win32,59.88741167,,,,,,,,,,,,,,,,,,,,,,,,,,,,,,,,,,,,,,
,,,down,1,1.1328,0,0.514552698,#f3af84,"[""0"",""-0.25""]",down_orange.png,down,13,1,53,2,1,,,left,left_blue.png,down_orange.png,down,left,down,60c12fe6ca8c4aa6d0185190,2021-09-11_16h38.19.843,arrow_simon_vert,2021.1.2,Win32,59.88741167,,,,,,,,,,,,,,,,,,,,,,,,,,,,,,,,,,,,,,
,,,left,1,1.4523,0,0.980857226,#a3d0fb,"[""-0.25"",""0""]",left_blue.png,left,13,2,54,2,1,,,left,left_blue.png,down_orange.png,down,left,down,60c12fe6ca8c4aa6d0185190,2021-09-11_16h38.19.843,arrow_simon_vert,2021.1.2,Win32,59.88741167,,,,,,,,,,,,,,,,,,,,,,,,,,,,,,,,,,,,,,
,,,up,1,1.2817,0,0.742530579,#f3af84,"[""0"",""0.25""]",up_orange.png,up,13,3,55,1,1,,,right,right_blue.png,up_orange.png,up,right,up,60c12fe6ca8c4aa6d0185190,2021-09-11_16h38.19.843,arrow_simon_vert,2021.1.2,Win32,59.88741167,,,,,,,,,,,,,,,,,,,,,,,,,,,,,,,,,,,,,,
,,,right,1,0.7959,0,0.210437915,#a3d0fb,"[""-0.25"",""0""]",right_blue.png,right,14,0,56,0,1,,,right,right_blue.png,up_orange.png,up,left,down,60c12fe6ca8c4aa6d0185190,2021-09-11_16h38.19.843,arrow_simon_vert,2021.1.2,Win32,59.88741167,,,,,,,,,,,,,,,,,,,,,,,,,,,,,,,,,,,,,,
,,,up,1,1.4248,0,0.968925194,#f3af84,"[""0"",""0.25""]",up_orange.png,up,14,1,57,1,1,,,right,right_blue.png,up_orange.png,up,right,up,60c12fe6ca8c4aa6d0185190,2021-09-11_16h38.19.843,arrow_simon_vert,2021.1.2,Win32,59.88741167,,,,,,,,,,,,,,,,,,,,,,,,,,,,,,,,,,,,,,
,,,left,1,0.9498,0,0.315977551,#a3d0fb,"[""0.25"",""0""]",left_blue.png,left,14,2,58,3,1,,,left,left_blue.png,down_orange.png,down,right,up,60c12fe6ca8c4aa6d0185190,2021-09-11_16h38.19.843,arrow_simon_vert,2021.1.2,Win32,59.88741167,,,,,,,,,,,,,,,,,,,,,,,,,,,,,,,,,,,,,,
,,,down,0,1.0273,1,0.351325523,#f3af84,"[""0"",""0.25""]",up_orange.png,up,14,3,59,1,1,,,right,right_blue.png,up_orange.png,up,right,up,60c12fe6ca8c4aa6d0185190,2021-09-11_16h38.19.843,arrow_simon_vert,2021.1.2,Win32,59.88741167,,,,,,,,,,,,,,,,,,,,,,,,,,,,,,,,,,,,,,
,,,,,,,,,,,,,,,,,,,,,,,,,60c12fe6ca8c4aa6d0185190,2021-09-11_16h38.19.843,arrow_simon_vert,2021.1.2,Win32,59.88741167,space,12.5948,0,0,0,0,1,,,,,,,,,,,,,,,,,,,,,,,,,,,,,,,
,,,left,1,1.1958,0,0.708836828,#a3d0fb,"[""0.25"",""0""]",left_blue.png,left,0,0,0,3,1,,,left,left_blue.png,down_orange.png,down,right,up,60c12fe6ca8c4aa6d0185190,2021-09-11_16h38.19.843,arrow_simon_vert,2021.1.2,Win32,59.88741167,,,,,,,,,,,,,,,,,,,,,,,,,,,,,,,,,,,,,,
,,,down,1,1.1998,0,0.643973885,#f3af84,"[""0"",""-0.25""]",down_orange.png,down,0,1,1,2,1,,,left,left_blue.png,down_orange.png,down,left,down,60c12fe6ca8c4aa6d0185190,2021-09-11_16h38.19.843,arrow_simon_vert,2021.1.2,Win32,59.88741167,,,,,,,,,,,,,,,,,,,,,,,,,,,,,,,,,,,,,,
,,,right,1,0.9681,0,0.383738968,#a3d0fb,"[""-0.25"",""0""]",right_blue.png,right,0,2,2,0,1,,,right,right_blue.png,up_orange.png,up,left,down,60c12fe6ca8c4aa6d0185190,2021-09-11_16h38.19.843,arrow_simon_vert,2021.1.2,Win32,59.88741167,,,,,,,,,,,,,,,,,,,,,,,,,,,,,,,,,,,,,,
,,,down,1,0.7327,0,0.086451693,#f3af84,"[""0"",""-0.25""]",down_orange.png,down,0,3,3,2,1,,,left,left_blue.png,down_orange.png,down,left,down,60c12fe6ca8c4aa6d0185190,2021-09-11_16h38.19.843,arrow_simon_vert,2021.1.2,Win32,59.88741167,,,,,,,,,,,,,,,,,,,,,,,,,,,,,,,,,,,,,,
,,,right,1,1.0988,0,0.471623659,#a3d0fb,"[""0.25"",""0""]",right_blue.png,right,1,0,4,1,1,,,right,right_blue.png,up_orange.png,up,right,up,60c12fe6ca8c4aa6d0185190,2021-09-11_16h38.19.843,arrow_simon_vert,2021.1.2,Win32,59.88741167,,,,,,,,,,,,,,,,,,,,,,,,,,,,,,,,,,,,,,
,,,down,1,0.8501,0,0.181975307,#f3af84,"[""0"",""-0.25""]",down_orange.png,down,1,1,5,2,1,,,left,left_blue.png,down_orange.png,down,left,down,60c12fe6ca8c4aa6d0185190,2021-09-11_16h38.19.843,arrow_simon_vert,2021.1.2,Win32,59.88741167,,,,,,,,,,,,,,,,,,,,,,,,,,,,,,,,,,,,,,
,,,right,1,1.3156,0,0.743883545,#a3d0fb,"[""0.25"",""0""]",right_blue.png,right,1,2,6,1,1,,,right,right_blue.png,up_orange.png,up,right,up,60c12fe6ca8c4aa6d0185190,2021-09-11_16h38.19.843,arrow_simon_vert,2021.1.2,Win32,59.88741167,,,,,,,,,,,,,,,,,,,,,,,,,,,,,,,,,,,,,,
,,,down,1,1.1417,0,0.52302591,#f3af84,"[""0"",""0.25""]",down_orange.png,down,1,3,7,3,1,,,left,left_blue.png,down_orange.png,down,right,up,60c12fe6ca8c4aa6d0185190,2021-09-11_16h38.19.843,arrow_simon_vert,2021.1.2,Win32,59.88741167,,,,,,,,,,,,,,,,,,,,,,,,,,,,,,,,,,,,,,
,,,right,1,1.4831,0,0.981095071,#a3d0fb,"[""-0.25"",""0""]",right_blue.png,right,2,0,8,0,1,,,right,right_blue.png,up_orange.png,up,left,down,60c12fe6ca8c4aa6d0185190,2021-09-11_16h38.19.843,arrow_simon_vert,2021.1.2,Win32,59.88741167,,,,,,,,,,,,,,,,,,,,,,,,,,,,,,,,,,,,,,
,,,down,1,0.7174,0,0.02451185,#f3af84,"[""0"",""-0.25""]",down_orange.png,down,2,1,9,2,1,,,left,left_blue.png,down_orange.png,down,left,down,60c12fe6ca8c4aa6d0185190,2021-09-11_16h38.19.843,arrow_simon_vert,2021.1.2,Win32,59.88741167,,,,,,,,,,,,,,,,,,,,,,,,,,,,,,,,,,,,,,
,,,right,1,1.226,0,0.692794933,#a3d0fb,"[""-0.25"",""0""]",right_blue.png,right,2,2,10,0,1,,,right,right_blue.png,up_orange.png,up,left,down,60c12fe6ca8c4aa6d0185190,2021-09-11_16h38.19.843,arrow_simon_vert,2021.1.2,Win32,59.88741167,,,,,,,,,,,,,,,,,,,,,,,,,,,,,,,,,,,,,,
,,,down,1,0.6667,0,0.117859322,#f3af84,"[""0"",""-0.25""]",down_orange.png,down,2,3,11,2,1,,,left,left_blue.png,down_orange.png,down,left,down,60c12fe6ca8c4aa6d0185190,2021-09-11_16h38.19.843,arrow_simon_vert,2021.1.2,Win32,59.88741167,,,,,,,,,,,,,,,,,,,,,,,,,,,,,,,,,,,,,,
,,,right,1,1.458,0,0.903157566,#a3d0fb,"[""0.25"",""0""]",right_blue.png,right,3,0,12,1,1,,,right,right_blue.png,up_orange.png,up,right,up,60c12fe6ca8c4aa6d0185190,2021-09-11_16h38.19.843,arrow_simon_vert,2021.1.2,Win32,59.88741167,,,,,,,,,,,,,,,,,,,,,,,,,,,,,,,,,,,,,,
,,,down,1,1.4717,0,0.872584569,#f3af84,"[""0"",""0.25""]",down_orange.png,down,3,1,13,3,1,,,left,left_blue.png,down_orange.png,down,right,up,60c12fe6ca8c4aa6d0185190,2021-09-11_16h38.19.843,arrow_simon_vert,2021.1.2,Win32,59.88741167,,,,,,,,,,,,,,,,,,,,,,,,,,,,,,,,,,,,,,
,,,right,1,0.817,0,0.266251844,#a3d0fb,"[""0.25"",""0""]",right_blue.png,right,3,2,14,1,1,,,right,right_blue.png,up_orange.png,up,right,up,60c12fe6ca8c4aa6d0185190,2021-09-11_16h38.19.843,arrow_simon_vert,2021.1.2,Win32,59.88741167,,,,,,,,,,,,,,,,,,,,,,,,,,,,,,,,,,,,,,
,,,up,1,1.1494,0,0.570217547,#f3af84,"[""0"",""0.25""]",up_orange.png,up,3,3,15,1,1,,,right,right_blue.png,up_orange.png,up,right,up,60c12fe6ca8c4aa6d0185190,2021-09-11_16h38.19.843,arrow_simon_vert,2021.1.2,Win32,59.88741167,,,,,,,,,,,,,,,,,,,,,,,,,,,,,,,,,,,,,,
,,,right,1,0.8689,0,0.2961996,#a3d0fb,"[""-0.25"",""0""]",right_blue.png,right,4,0,16,0,1,,,right,right_blue.png,up_orange.png,up,left,down,60c12fe6ca8c4aa6d0185190,2021-09-11_16h38.19.843,arrow_simon_vert,2021.1.2,Win32,59.88741167,,,,,,,,,,,,,,,,,,,,,,,,,,,,,,,,,,,,,,
,,,up,1,0.8906,0,0.191517522,#f3af84,"[""0"",""-0.25""]",up_orange.png,up,4,1,17,0,1,,,right,right_blue.png,up_orange.png,up,left,down,60c12fe6ca8c4aa6d0185190,2021-09-11_16h38.19.843,arrow_simon_vert,2021.1.2,Win32,59.88741167,,,,,,,,,,,,,,,,,,,,,,,,,,,,,,,,,,,,,,
,,,left,1,1.129,0,0.631092579,#a3d0fb,"[""0.25"",""0""]",left_blue.png,left,4,2,18,3,1,,,left,left_blue.png,down_orange.png,down,right,up,60c12fe6ca8c4aa6d0185190,2021-09-11_16h38.19.843,arrow_simon_vert,2021.1.2,Win32,59.88741167,,,,,,,,,,,,,,,,,,,,,,,,,,,,,,,,,,,,,,
,,,up,1,1.0823,0,0.470913281,#f3af84,"[""0"",""-0.25""]",up_orange.png,up,4,3,19,0,1,,,right,right_blue.png,up_orange.png,up,left,down,60c12fe6ca8c4aa6d0185190,2021-09-11_16h38.19.843,arrow_simon_vert,2021.1.2,Win32,59.88741167,,,,,,,,,,,,,,,,,,,,,,,,,,,,,,,,,,,,,,
,,,right,1,0.6497,0,0.028943438,#a3d0fb,"[""-0.25"",""0""]",right_blue.png,right,5,0,20,0,1,,,right,right_blue.png,up_orange.png,up,left,down,60c12fe6ca8c4aa6d0185190,2021-09-11_16h38.19.843,arrow_simon_vert,2021.1.2,Win32,59.88741167,,,,,,,,,,,,,,,,,,,,,,,,,,,,,,,,,,,,,,
,,,down,1,1.0202,0,0.519640494,#f3af84,"[""0"",""-0.25""]",down_orange.png,down,5,1,21,2,1,,,left,left_blue.png,down_orange.png,down,left,down,60c12fe6ca8c4aa6d0185190,2021-09-11_16h38.19.843,arrow_simon_vert,2021.1.2,Win32,59.88741167,,,,,,,,,,,,,,,,,,,,,,,,,,,,,,,,,,,,,,
,,,right,1,1.0497,0,0.328979091,#a3d0fb,"[""-0.25"",""0""]",right_blue.png,right,5,2,22,0,1,,,right,right_blue.png,up_orange.png,up,left,down,60c12fe6ca8c4aa6d0185190,2021-09-11_16h38.19.843,arrow_simon_vert,2021.1.2,Win32,59.88741167,,,,,,,,,,,,,,,,,,,,,,,,,,,,,,,,,,,,,,
,,,up,1,0.8442,0,0.183237193,#f3af84,"[""0"",""0.25""]",up_orange.png,up,5,3,23,1,1,,,right,right_blue.png,up_orange.png,up,right,up,60c12fe6ca8c4aa6d0185190,2021-09-11_16h38.19.843,arrow_simon_vert,2021.1.2,Win32,59.88741167,,,,,,,,,,,,,,,,,,,,,,,,,,,,,,,,,,,,,,
,,,left,1,1.2999,0,0.793770712,#a3d0fb,"[""0.25"",""0""]",left_blue.png,left,6,0,24,3,1,,,left,left_blue.png,down_orange.png,down,right,up,60c12fe6ca8c4aa6d0185190,2021-09-11_16h38.19.843,arrow_simon_vert,2021.1.2,Win32,59.88741167,,,,,,,,,,,,,,,,,,,,,,,,,,,,,,,,,,,,,,
,,,up,1,1.433,0,0.996410353,#f3af84,"[""0"",""-0.25""]",up_orange.png,up,6,1,25,0,1,,,right,right_blue.png,up_orange.png,up,left,down,60c12fe6ca8c4aa6d0185190,2021-09-11_16h38.19.843,arrow_simon_vert,2021.1.2,Win32,59.88741167,,,,,,,,,,,,,,,,,,,,,,,,,,,,,,,,,,,,,,
,,,left,1,1.0557,0,0.330160767,#a3d0fb,"[""0.25"",""0""]",left_blue.png,left,6,2,26,3,1,,,left,left_blue.png,down_orange.png,down,right,up,60c12fe6ca8c4aa6d0185190,2021-09-11_16h38.19.843,arrow_simon_vert,2021.1.2,Win32,59.88741167,,,,,,,,,,,,,,,,,,,,,,,,,,,,,,,,,,,,,,
,,,up,1,1.0904,0,0.631683697,#f3af84,"[""0"",""-0.25""]",up_orange.png,up,6,3,27,0,1,,,right,right_blue.png,up_orange.png,up,left,down,60c12fe6ca8c4aa6d0185190,2021-09-11_16h38.19.843,arrow_simon_vert,2021.1.2,Win32,59.88741167,,,,,,,,,,,,,,,,,,,,,,,,,,,,,,,,,,,,,,
,,,right,1,1.0403,0,0.560935565,#a3d0fb,"[""0.25"",""0""]",right_blue.png,right,7,0,28,1,1,,,right,right_blue.png,up_orange.png,up,right,up,60c12fe6ca8c4aa6d0185190,2021-09-11_16h38.19.843,arrow_simon_vert,2021.1.2,Win32,59.88741167,,,,,,,,,,,,,,,,,,,,,,,,,,,,,,,,,,,,,,
,,,up,1,0.6213,0,0.004088924,#f3af84,"[""0"",""0.25""]",up_orange.png,up,7,1,29,1,1,,,right,right_blue.png,up_orange.png,up,right,up,60c12fe6ca8c4aa6d0185190,2021-09-11_16h38.19.843,arrow_simon_vert,2021.1.2,Win32,59.88741167,,,,,,,,,,,,,,,,,,,,,,,,,,,,,,,,,,,,,,
,,,left,1,0.999,0,0.432947881,#a3d0fb,"[""-0.25"",""0""]",left_blue.png,left,7,2,30,2,1,,,left,left_blue.png,down_orange.png,down,left,down,60c12fe6ca8c4aa6d0185190,2021-09-11_16h38.19.843,arrow_simon_vert,2021.1.2,Win32,59.88741167,,,,,,,,,,,,,,,,,,,,,,,,,,,,,,,,,,,,,,
,,,down,0,0.9202,1,0.481356616,#f3af84,"[""0"",""-0.25""]",up_orange.png,up,7,3,31,0,1,,,right,right_blue.png,up_orange.png,up,left,down,60c12fe6ca8c4aa6d0185190,2021-09-11_16h38.19.843,arrow_simon_vert,2021.1.2,Win32,59.88741167,,,,,,,,,,,,,,,,,,,,,,,,,,,,,,,,,,,,,,
,,,left,1,1.0395,0,0.513614532,#a3d0fb,"[""0.25"",""0""]",left_blue.png,left,8,0,32,3,1,,,left,left_blue.png,down_orange.png,down,right,up,60c12fe6ca8c4aa6d0185190,2021-09-11_16h38.19.843,arrow_simon_vert,2021.1.2,Win32,59.88741167,,,,,,,,,,,,,,,,,,,,,,,,,,,,,,,,,,,,,,
,,,down,1,1.0095,0,0.522446101,#f3af84,"[""0"",""-0.25""]",down_orange.png,down,8,1,33,2,1,,,left,left_blue.png,down_orange.png,down,left,down,60c12fe6ca8c4aa6d0185190,2021-09-11_16h38.19.843,arrow_simon_vert,2021.1.2,Win32,59.88741167,,,,,,,,,,,,,,,,,,,,,,,,,,,,,,,,,,,,,,
,,,left,1,1.5324,0,0.992708953,#a3d0fb,"[""-0.25"",""0""]",left_blue.png,left,8,2,34,2,1,,,left,left_blue.png,down_orange.png,down,left,down,60c12fe6ca8c4aa6d0185190,2021-09-11_16h38.19.843,arrow_simon_vert,2021.1.2,Win32,59.88741167,,,,,,,,,,,,,,,,,,,,,,,,,,,,,,,,,,,,,,
,,,down,1,1.1602,0,0.430625372,#f3af84,"[""0"",""0.25""]",down_orange.png,down,8,3,35,3,1,,,left,left_blue.png,down_orange.png,down,right,up,60c12fe6ca8c4aa6d0185190,2021-09-11_16h38.19.843,arrow_simon_vert,2021.1.2,Win32,59.88741167,,,,,,,,,,,,,,,,,,,,,,,,,,,,,,,,,,,,,,
,,,right,1,1.3038,0,0.749462105,#a3d0fb,"[""0.25"",""0""]",right_blue.png,right,9,0,36,1,1,,,right,right_blue.png,up_orange.png,up,right,up,60c12fe6ca8c4aa6d0185190,2021-09-11_16h38.19.843,arrow_simon_vert,2021.1.2,Win32,59.88741167,,,,,,,,,,,,,,,,,,,,,,,,,,,,,,,,,,,,,,
,,,down,1,1.4493,0,0.965536284,#f3af84,"[""0"",""-0.25""]",down_orange.png,down,9,1,37,2,1,,,left,left_blue.png,down_orange.png,down,left,down,60c12fe6ca8c4aa6d0185190,2021-09-11_16h38.19.843,arrow_simon_vert,2021.1.2,Win32,59.88741167,,,,,,,,,,,,,,,,,,,,,,,,,,,,,,,,,,,,,,
,,,left,1,0.872,0,0.224577366,#a3d0fb,"[""-0.25"",""0""]",left_blue.png,left,9,2,38,2,1,,,left,left_blue.png,down_orange.png,down,left,down,60c12fe6ca8c4aa6d0185190,2021-09-11_16h38.19.843,arrow_simon_vert,2021.1.2,Win32,59.88741167,,,,,,,,,,,,,,,,,,,,,,,,,,,,,,,,,,,,,,
,,,down,1,0.9169,0,0.32037673,#f3af84,"[""0"",""-0.25""]",down_orange.png,down,9,3,39,2,1,,,left,left_blue.png,down_orange.png,down,left,down,60c12fe6ca8c4aa6d0185190,2021-09-11_16h38.19.843,arrow_simon_vert,2021.1.2,Win32,59.88741167,,,,,,,,,,,,,,,,,,,,,,,,,,,,,,,,,,,,,,
,,,right,1,0.9075,0,0.162812483,#a3d0fb,"[""-0.25"",""0""]",right_blue.png,right,10,0,40,0,1,,,right,right_blue.png,up_orange.png,up,left,down,60c12fe6ca8c4aa6d0185190,2021-09-11_16h38.19.843,arrow_simon_vert,2021.1.2,Win32,59.88741167,,,,,,,,,,,,,,,,,,,,,,,,,,,,,,,,,,,,,,
,,,up,1,0.8444,0,0.199509014,#f3af84,"[""0"",""0.25""]",up_orange.png,up,10,1,41,1,1,,,right,right_blue.png,up_orange.png,up,right,up,60c12fe6ca8c4aa6d0185190,2021-09-11_16h38.19.843,arrow_simon_vert,2021.1.2,Win32,59.88741167,,,,,,,,,,,,,,,,,,,,,,,,,,,,,,,,,,,,,,
,,,right,1,0.8165,0,0.345307462,#a3d0fb,"[""0.25"",""0""]",right_blue.png,right,10,2,42,1,1,,,right,right_blue.png,up_orange.png,up,right,up,60c12fe6ca8c4aa6d0185190,2021-09-11_16h38.19.843,arrow_simon_vert,2021.1.2,Win32,59.88741167,,,,,,,,,,,,,,,,,,,,,,,,,,,,,,,,,,,,,,
,,,down,1,1.4322,0,0.86022613,#f3af84,"[""0"",""0.25""]",down_orange.png,down,10,3,43,3,1,,,left,left_blue.png,down_orange.png,down,right,up,60c12fe6ca8c4aa6d0185190,2021-09-11_16h38.19.843,arrow_simon_vert,2021.1.2,Win32,59.88741167,,,,,,,,,,,,,,,,,,,,,,,,,,,,,,,,,,,,,,
,,,right,1,1.2656,0,0.640256901,#a3d0fb,"[""0.25"",""0""]",right_blue.png,right,11,0,44,1,1,,,right,right_blue.png,up_orange.png,up,right,up,60c12fe6ca8c4aa6d0185190,2021-09-11_16h38.19.843,arrow_simon_vert,2021.1.2,Win32,59.88741167,,,,,,,,,,,,,,,,,,,,,,,,,,,,,,,,,,,,,,
,,,up,1,1.1336,0,0.52876571,#f3af84,"[""0"",""-0.25""]",up_orange.png,up,11,1,45,0,1,,,right,right_blue.png,up_orange.png,up,left,down,60c12fe6ca8c4aa6d0185190,2021-09-11_16h38.19.843,arrow_simon_vert,2021.1.2,Win32,59.88741167,,,,,,,,,,,,,,,,,,,,,,,,,,,,,,,,,,,,,,
,,,left,1,0.8868,0,0.383398197,#a3d0fb,"[""0.25"",""0""]",left_blue.png,left,11,2,46,3,1,,,left,left_blue.png,down_orange.png,down,right,up,60c12fe6ca8c4aa6d0185190,2021-09-11_16h38.19.843,arrow_simon_vert,2021.1.2,Win32,59.88741167,,,,,,,,,,,,,,,,,,,,,,,,,,,,,,,,,,,,,,
,,,up,1,0.7666,0,0.183121256,#f3af84,"[""0"",""0.25""]",up_orange.png,up,11,3,47,1,1,,,right,right_blue.png,up_orange.png,up,right,up,60c12fe6ca8c4aa6d0185190,2021-09-11_16h38.19.843,arrow_simon_vert,2021.1.2,Win32,59.88741167,,,,,,,,,,,,,,,,,,,,,,,,,,,,,,,,,,,,,,
,,,left,1,0.7231,0,0.159374311,#a3d0fb,"[""-0.25"",""0""]",left_blue.png,left,12,0,48,2,1,,,left,left_blue.png,down_orange.png,down,left,down,60c12fe6ca8c4aa6d0185190,2021-09-11_16h38.19.843,arrow_simon_vert,2021.1.2,Win32,59.88741167,,,,,,,,,,,,,,,,,,,,,,,,,,,,,,,,,,,,,,
,,,up,1,0.784,0,0.176820366,#f3af84,"[""0"",""-0.25""]",up_orange.png,up,12,1,49,0,1,,,right,right_blue.png,up_orange.png,up,left,down,60c12fe6ca8c4aa6d0185190,2021-09-11_16h38.19.843,arrow_simon_vert,2021.1.2,Win32,59.88741167,,,,,,,,,,,,,,,,,,,,,,,,,,,,,,,,,,,,,,
,,,right,1,1.4212,0,0.968012507,#a3d0fb,"[""0.25"",""0""]",right_blue.png,right,12,2,50,1,1,,,right,right_blue.png,up_orange.png,up,right,up,60c12fe6ca8c4aa6d0185190,2021-09-11_16h38.19.843,arrow_simon_vert,2021.1.2,Win32,59.88741167,,,,,,,,,,,,,,,,,,,,,,,,,,,,,,,,,,,,,,
,,,down,1,1.1009,0,0.61949515,#f3af84,"[""0"",""0.25""]",down_orange.png,down,12,3,51,3,1,,,left,left_blue.png,down_orange.png,down,right,up,60c12fe6ca8c4aa6d0185190,2021-09-11_16h38.19.843,arrow_simon_vert,2021.1.2,Win32,59.88741167,,,,,,,,,,,,,,,,,,,,,,,,,,,,,,,,,,,,,,
,,,left,1,0.8951,0,0.455320726,#a3d0fb,"[""0.25"",""0""]",left_blue.png,left,13,0,52,3,1,,,left,left_blue.png,down_orange.png,down,right,up,60c12fe6ca8c4aa6d0185190,2021-09-11_16h38.19.843,arrow_simon_vert,2021.1.2,Win32,59.88741167,,,,,,,,,,,,,,,,,,,,,,,,,,,,,,,,,,,,,,
,,,down,1,0.7837,0,0.197572549,#f3af84,"[""0"",""-0.25""]",down_orange.png,down,13,1,53,2,1,,,left,left_blue.png,down_orange.png,down,left,down,60c12fe6ca8c4aa6d0185190,2021-09-11_16h38.19.843,arrow_simon_vert,2021.1.2,Win32,59.88741167,,,,,,,,,,,,,,,,,,,,,,,,,,,,,,,,,,,,,,
,,,left,1,1.6157,0,0.943518925,#a3d0fb,"[""0.25"",""0""]",left_blue.png,left,13,2,54,3,1,,,left,left_blue.png,down_orange.png,down,right,up,60c12fe6ca8c4aa6d0185190,2021-09-11_16h38.19.843,arrow_simon_vert,2021.1.2,Win32,59.88741167,,,,,,,,,,,,,,,,,,,,,,,,,,,,,,,,,,,,,,
,,,down,1,1.4,0,0.769119517,#f3af84,"[""0"",""0.25""]",down_orange.png,down,13,3,55,3,1,,,left,left_blue.png,down_orange.png,down,right,up,60c12fe6ca8c4aa6d0185190,2021-09-11_16h38.19.843,arrow_simon_vert,2021.1.2,Win32,59.88741167,,,,,,,,,,,,,,,,,,,,,,,,,,,,,,,,,,,,,,
,,,right,1,1.2913,0,0.784173965,#a3d0fb,"[""0.25"",""0""]",right_blue.png,right,14,0,56,1,1,,,right,right_blue.png,up_orange.png,up,right,up,60c12fe6ca8c4aa6d0185190,2021-09-11_16h38.19.843,arrow_simon_vert,2021.1.2,Win32,59.88741167,,,,,,,,,,,,,,,,,,,,,,,,,,,,,,,,,,,,,,
,,,down,1,0.9699,0,0.246289252,#f3af84,"[""0"",""0.25""]",down_orange.png,down,14,1,57,3,1,,,left,left_blue.png,down_orange.png,down,right,up,60c12fe6ca8c4aa6d0185190,2021-09-11_16h38.19.843,arrow_simon_vert,2021.1.2,Win32,59.88741167,,,,,,,,,,,,,,,,,,,,,,,,,,,,,,,,,,,,,,
,,,right,1,1.1368,0,0.56369201,#a3d0fb,"[""-0.25"",""0""]",right_blue.png,right,14,2,58,0,1,,,right,right_blue.png,up_orange.png,up,left,down,60c12fe6ca8c4aa6d0185190,2021-09-11_16h38.19.843,arrow_simon_vert,2021.1.2,Win32,59.88741167,,,,,,,,,,,,,,,,,,,,,,,,,,,,,,,,,,,,,,
,,,down,1,0.8826,0,0.425416582,#f3af84,"[""0"",""-0.25""]",down_orange.png,down,14,3,59,2,1,,,left,left_blue.png,down_orange.png,down,left,down,60c12fe6ca8c4aa6d0185190,2021-09-11_16h38.19.843,arrow_simon_vert,2021.1.2,Win32,59.88741167,,,,,,,,,,,,,,,,,,,,,,,,,,,,,,,,,,,,,,
,,,,,,,,,,,,,,,,,,,,,,,,,60c12fe6ca8c4aa6d0185190,2021-09-11_16h38.19.843,arrow_simon_vert,2021.1.2,Win32,59.88741167,space,52.5371,1,0,1,0,1,,,,,,,,,,,,,,,,,,,,,,,,,,,,,,,
,,,,,,,,,,,,,,,,,,,,,,,,,60c12fe6ca8c4aa6d0185190,2021-09-11_16h38.19.843,arrow_simon_vert,2021.1.2,Win32,59.88741167,,,,,,,,space,0,49.6781,up,3.2816,0,0,0,0,1,,,,,,,,,,,,,,,,,,,,,
,,,,,,,,,,,,,,,,,,,,,,,,,60c12fe6ca8c4aa6d0185190,2021-09-11_16h38.19.843,arrow_simon_vert,2021.1.2,Win32,59.88741167,,,,,,,,,,,down,4.8134,1,0,1,0,1,,,,,,,,,,,,,,,,,,,,,
,,,,,,,,,,,,,,,,,,,,,,,,,60c12fe6ca8c4aa6d0185190,2021-09-11_16h38.19.843,arrow_simon_vert,2021.1.2,Win32,59.88741167,,,,,,,,,,,right,3.286,2,0,2,0,1,,,,,,,,,,,,,,,,,,,,,
,,,,,,,,,,,,,,,,,,,,,,,,,60c12fe6ca8c4aa6d0185190,2021-09-11_16h38.19.843,arrow_simon_vert,2021.1.2,Win32,59.88741167,,,,,,,,,,,up,2.8321,3,0,3,0,1,,,,,,,,,,,,,,,,,,,,,
,,,,,,,,,,,,,,,,,,,,,,,,,60c12fe6ca8c4aa6d0185190,2021-09-11_16h38.19.843,arrow_simon_vert,2021.1.2,Win32,59.88741167,,,,,,,,,,,left,2.9977,4,0,4,0,1,,,,,,,,,,,,,,,,,,,,,
,,,,,,,,,,,,,,,,,,,,,,,,,60c12fe6ca8c4aa6d0185190,2021-09-11_16h38.19.843,arrow_simon_vert,2021.1.2,Win32,59.88741167,,,,,,,,,,,down,2.2765,5,0,5,0,1,,,,,,,,,,,,,,,,,,,,,
,,,,,,,,,,,,,,,,,,,,,,,,,60c12fe6ca8c4aa6d0185190,2021-09-11_16h38.19.843,arrow_simon_vert,2021.1.2,Win32,59.88741167,,,,,,,,,,,right,2.7762,6,0,6,0,1,,,,,,,,,,,,,,,,,,,,,
,,,,,,,,,,,,,,,,,,,,,,,,,60c12fe6ca8c4aa6d0185190,2021-09-11_16h38.19.843,arrow_simon_vert,2021.1.2,Win32,59.88741167,,,,,,,,,,,left,2.7492,7,0,7,0,1,,,,,,,,,,,,,,,,,,,,,
,,,,,,,,,,,,,,,,,,,,,,,,,60c12fe6ca8c4aa6d0185190,2021-09-11_16h38.19.843,arrow_simon_vert,2021.1.2,Win32,59.88741167,,,,,,,,,,,right,2.8849,8,0,8,0,1,,,,,,,,,,,,,,,,,,,,,
,,,,,,,,,,,,,,,,,,,,,,,,,60c12fe6ca8c4aa6d0185190,2021-09-11_16h38.19.843,arrow_simon_vert,2021.1.2,Win32,59.88741167,,,,,,,,,,,up,2.665,9,0,9,0,1,,,,,,,,,,,,,,,,,,,,,
,,,,,,,,,,,,,,,,,,,,,,,,,60c12fe6ca8c4aa6d0185190,2021-09-11_16h38.19.843,arrow_simon_vert,2021.1.2,Win32,59.88741167,,,,,,,,,,,right,2.737,10,0,10,0,1,,,,,,,,,,,,,,,,,,,,,
,,,,,,,,,,,,,,,,,,,,,,,,,60c12fe6ca8c4aa6d0185190,2021-09-11_16h38.19.843,arrow_simon_vert,2021.1.2,Win32,59.88741167,,,,,,,,,,,right,2.7367,11,0,11,0,1,,,,,,,,,,,,,,,,,,,,,
,,,,,,,,,,,,,,,,,,,,,,,,,60c12fe6ca8c4aa6d0185190,2021-09-11_16h38.19.843,arrow_simon_vert,2021.1.2,Win32,59.88741167,,,,,,,,,,,down,2.9048,12,0,12,0,1,,,,,,,,,,,,,,,,,,,,,
,,,,,,,,,,,,,,,,,,,,,,,,,60c12fe6ca8c4aa6d0185190,2021-09-11_16h38.19.843,arrow_simon_vert,2021.1.2,Win32,59.88741167,,,,,,,,,,,up,2.7931,13,0,13,0,1,,,,,,,,,,,,,,,,,,,,,
,,,,,,,,,,,,,,,,,,,,,,,,,60c12fe6ca8c4aa6d0185190,2021-09-11_16h38.19.843,arrow_simon_vert,2021.1.2,Win32,59.88741167,,,,,,,,,,,up,2.9165,14,0,14,0,1,,,,,,,,,,,,,,,,,,,,,
,,,,,,,,,,,,,,,,,,,,,,,,,60c12fe6ca8c4aa6d0185190,2021-09-11_16h38.19.843,arrow_simon_vert,2021.1.2,Win32,59.88741167,,,,,,,,,,,up,2.7751,15,0,15,0,1,,,,,,,,,,,,,,,,,,,,,
,,,,,,,,,,,,,,,,,,,,,,,,,60c12fe6ca8c4aa6d0185190,2021-09-11_16h38.19.843,arrow_simon_vert,2021.1.2,Win32,59.88741167,,,,,,,,,,,left,2.61,16,0,16,0,1,,,,,,,,,,,,,,,,,,,,,
,,,,,,,,,,,,,,,,,,,,,,,,,60c12fe6ca8c4aa6d0185190,2021-09-11_16h38.19.843,arrow_simon_vert,2021.1.2,Win32,59.88741167,,,,,,,,,,,down,2.5275,17,0,17,0,1,,,,,,,,,,,,,,,,,,,,,
,,,,,,,,,,,,,,,,,,,,,,,,,60c12fe6ca8c4aa6d0185190,2021-09-11_16h38.19.843,arrow_simon_vert,2021.1.2,Win32,59.88741167,,,,,,,,,,,right,2.5391,18,0,18,0,1,,,,,,,,,,,,,,,,,,,,,
,,,,,,,,,,,,,,,,,,,,,,,,,60c12fe6ca8c4aa6d0185190,2021-09-11_16h38.19.843,arrow_simon_vert,2021.1.2,Win32,59.88741167,,,,,,,,,,,up,2.6092,19,0,19,0,1,,,,,,,,,,,,,,,,,,,,,
,,,,,,,,,,,,,,,,,,,,,,,,,60c12fe6ca8c4aa6d0185190,2021-09-11_16h38.19.843,arrow_simon_vert,2021.1.2,Win32,59.88741167,,,,,,,,,,,right,2.4308,20,0,20,0,1,,,,,,,,,,,,,,,,,,,,,
,,,,,,,,,,,,,,,,,,,,,,,,,60c12fe6ca8c4aa6d0185190,2021-09-11_16h38.19.843,arrow_simon_vert,2021.1.2,Win32,59.88741167,,,,,,,,,,,down,2.5547,21,0,21,0,1,,,,,,,,,,,,,,,,,,,,,
,,,,,,,,,,,,,,,,,,,,,,,,,60c12fe6ca8c4aa6d0185190,2021-09-11_16h38.19.843,arrow_simon_vert,2021.1.2,Win32,59.88741167,,,,,,,,,,,right,2.5771,22,0,22,0,1,,,,,,,,,,,,,,,,,,,,,
,,,,,,,,,,,,,,,,,,,,,,,,,60c12fe6ca8c4aa6d0185190,2021-09-11_16h38.19.843,arrow_simon_vert,2021.1.2,Win32,59.88741167,,,,,,,,,,,down,2.631,23,0,23,0,1,,,,,,,,,,,,,,,,,,,,,
,,,,,,,,,,,,,,,,,,,,,,,,,60c12fe6ca8c4aa6d0185190,2021-09-11_16h38.19.843,arrow_simon_vert,2021.1.2,Win32,59.88741167,,,,,,,,,,,right,2.5325,24,0,24,0,1,,,,,,,,,,,,,,,,,,,,,
,,,,,,,,,,,,,,,,,,,,,,,,,60c12fe6ca8c4aa6d0185190,2021-09-11_16h38.19.843,arrow_simon_vert,2021.1.2,Win32,59.88741167,,,,,,,,,,,up,2.5434,25,0,25,0,1,,,,,,,,,,,,,,,,,,,,,
,,,,,,,,,,,,,,,,,,,,,,,,,60c12fe6ca8c4aa6d0185190,2021-09-11_16h38.19.843,arrow_simon_vert,2021.1.2,Win32,59.88741167,,,,,,,,,,,right,2.5481,26,0,26,0,1,,,,,,,,,,,,,,,,,,,,,
,,,,,,,,,,,,,,,,,,,,,,,,,60c12fe6ca8c4aa6d0185190,2021-09-11_16h38.19.843,arrow_simon_vert,2021.1.2,Win32,59.88741167,,,,,,,,,,,up,2.5151,27,0,27,0,1,,,,,,,,,,,,,,,,,,,,,
,,,,,,,,,,,,,,,,,,,,,,,,,60c12fe6ca8c4aa6d0185190,2021-09-11_16h38.19.843,arrow_simon_vert,2021.1.2,Win32,59.88741167,,,,,,,,,,,right,2.5578,28,0,28,0,1,,,,,,,,,,,,,,,,,,,,,
,,,,,,,,,,,,,,,,,,,,,,,,,60c12fe6ca8c4aa6d0185190,2021-09-11_16h38.19.843,arrow_simon_vert,2021.1.2,Win32,59.88741167,,,,,,,,,,,up,2.5707,29,0,29,0,1,,,,,,,,,,,,,,,,,,,,,
,,,,,,,,,,,,,,,,,,,,,,,,,60c12fe6ca8c4aa6d0185190,2021-09-11_16h38.19.843,arrow_simon_vert,2021.1.2,Win32,59.88741167,,,,,,,,,,,right,2.6348,30,0,30,0,1,,,,,,,,,,,,,,,,,,,,,
,,,,,,,,,,,,,,,,,,,,,,,,,60c12fe6ca8c4aa6d0185190,2021-09-11_16h38.19.843,arrow_simon_vert,2021.1.2,Win32,59.88741167,,,,,,,,,,,up,2.5201,31,0,31,0,1,,,,,,,,,,,,,,,,,,,,,
,,,,,,,,,,,,,,,,,,,,,,,,,60c12fe6ca8c4aa6d0185190,2021-09-11_16h38.19.843,arrow_simon_vert,2021.1.2,Win32,59.88741167,,,,,,,,,,,right,2.5481,32,0,32,0,1,,,,,,,,,,,,,,,,,,,,,
,,,,,,,,,,,,,,,,,,,,,,,,,60c12fe6ca8c4aa6d0185190,2021-09-11_16h38.19.843,arrow_simon_vert,2021.1.2,Win32,59.88741167,,,,,,,,,,,up,2.5987,33,0,33,0,1,,,,,,,,,,,,,,,,,,,,,
,,,,,,,,,,,,,,,,,,,,,,,,,60c12fe6ca8c4aa6d0185190,2021-09-11_16h38.19.843,arrow_simon_vert,2021.1.2,Win32,59.88741167,,,,,,,,,,,right,2.521,34,0,34,0,1,,,,,,,,,,,,,,,,,,,,,
,,,,,,,,,,,,,,,,,,,,,,,,,60c12fe6ca8c4aa6d0185190,2021-09-11_16h38.19.843,arrow_simon_vert,2021.1.2,Win32,59.88741167,,,,,,,,,,,up,2.5679,35,0,35,0,1,,,,,,,,,,,,,,,,,,,,,
,,,,,,,,,,,,,,,,,,,,,,,,,60c12fe6ca8c4aa6d0185190,2021-09-11_16h38.19.843,arrow_simon_vert,2021.1.2,Win32,59.88741167,,,,,,,,,,,right,2.5926,36,0,36,0,1,,,,,,,,,,,,,,,,,,,,,
,,,,,,,,,,,,,,,,,,,,,,,,,60c12fe6ca8c4aa6d0185190,2021-09-11_16h38.19.843,arrow_simon_vert,2021.1.2,Win32,59.88741167,,,,,,,,,,,up,2.5036,37,0,37,0,1,,,,,,,,,,,,,,,,,,,,,
,,,,,,,,,,,,,,,,,,,,,,,,,60c12fe6ca8c4aa6d0185190,2021-09-11_16h38.19.843,arrow_simon_vert,2021.1.2,Win32,59.88741167,,,,,,,,,,,right,2.5116,38,0,38,0,1,,,,,,,,,,,,,,,,,,,,,
,,,,,,,,,,,,,,,,,,,,,,,,,60c12fe6ca8c4aa6d0185190,2021-09-11_16h38.19.843,arrow_simon_vert,2021.1.2,Win32,59.88741167,,,,,,,,,,,up,2.5479,39,0,39,0,1,,,,,,,,,,,,,,,,,,,,,
,,,,,,,,,,,,,,,,,,,,,,,,,60c12fe6ca8c4aa6d0185190,2021-09-11_16h38.19.843,arrow_simon_vert,2021.1.2,Win32,59.88741167,,,,,,,,,,,right,2.5112,40,0,40,0,1,,,,,,,,,,,,,,,,,,,,,
,,,,,,,,,,,,,,,,,,,,,,,,,60c12fe6ca8c4aa6d0185190,2021-09-11_16h38.19.843,arrow_simon_vert,2021.1.2,Win32,59.88741167,,,,,,,,,,,up,2.556,41,0,41,0,1,,,,,,,,,,,,,,,,,,,,,
,,,,,,,,,,,,,,,,,,,,,,,,,60c12fe6ca8c4aa6d0185190,2021-09-11_16h38.19.843,arrow_simon_vert,2021.1.2,Win32,59.88741167,,,,,,,,,,,right,2.5485,42,0,42,0,1,,,,,,,,,,,,,,,,,,,,,
,,,,,,,,,,,,,,,,,,,,,,,,,60c12fe6ca8c4aa6d0185190,2021-09-11_16h38.19.843,arrow_simon_vert,2021.1.2,Win32,59.88741167,,,,,,,,,,,down,2.029,43,0,43,0,1,,,,,,,,,,,,,,,,,,,,,
,,,,,,,,,,,,,,,,,,,,,,,,,60c12fe6ca8c4aa6d0185190,2021-09-11_16h38.19.843,arrow_simon_vert,2021.1.2,Win32,59.88741167,,,,,,,,,,,left,2.5176,44,0,44,0,1,,,,,,,,,,,,,,,,,,,,,
,,,,,,,,,,,,,,,,,,,,,,,,,60c12fe6ca8c4aa6d0185190,2021-09-11_16h38.19.843,arrow_simon_vert,2021.1.2,Win32,59.88741167,,,,,,,,,,,up,2.5309,45,0,45,0,1,,,,,,,,,,,,,,,,,,,,,
,,,,,,,,,,,,,,,,,,,,,,,,,60c12fe6ca8c4aa6d0185190,2021-09-11_16h38.19.843,arrow_simon_vert,2021.1.2,Win32,59.88741167,,,,,,,,,,,left,2.5315,46,0,46,0,1,,,,,,,,,,,,,,,,,,,,,
,,,,,,,,,,,,,,,,,,,,,,,,,60c12fe6ca8c4aa6d0185190,2021-09-11_16h38.19.843,arrow_simon_vert,2021.1.2,Win32,59.88741167,,,,,,,,,,,down,2.5428,47,0,47,0,1,,,,,,,,,,,,,,,,,,,,,
,,,,,,,,,,,,,,,,,,,,,,,,,60c12fe6ca8c4aa6d0185190,2021-09-11_16h38.19.843,arrow_simon_vert,2021.1.2,Win32,59.88741167,,,,,,,,,,,right,2.5475,48,0,48,0,1,,,,,,,,,,,,,,,,,,,,,
,,,,,,,,,,,,,,,,,,,,,,,,,60c12fe6ca8c4aa6d0185190,2021-09-11_16h38.19.843,arrow_simon_vert,2021.1.2,Win32,59.88741167,,,,,,,,,,,up,2.5373,49,0,49,0,1,,,,,,,,,,,,,,,,,,,,,
,,,,,,,,,,,,,,,,,,,,,,,,,60c12fe6ca8c4aa6d0185190,2021-09-11_16h38.19.843,arrow_simon_vert,2021.1.2,Win32,59.88741167,,,,,,,,,,,left,2.5365,50,0,50,0,1,,,,,,,,,,,,,,,,,,,,,
,,,,,,,,,,,,,,,,,,,,,,,,,60c12fe6ca8c4aa6d0185190,2021-09-11_16h38.19.843,arrow_simon_vert,2021.1.2,Win32,59.88741167,,,,,,,,,,,down,2.5375,51,0,51,0,1,,,,,,,,,,,,,,,,,,,,,
,,,,,,,,,,,,,,,,,,,,,,,,,60c12fe6ca8c4aa6d0185190,2021-09-11_16h38.19.843,arrow_simon_vert,2021.1.2,Win32,59.88741167,,,,,,,,,,,right,2.5423,52,0,52,0,1,,,,,,,,,,,,,,,,,,,,,
,,,,,,,,,,,,,,,,,,,,,,,,,60c12fe6ca8c4aa6d0185190,2021-09-11_16h38.19.843,arrow_simon_vert,2021.1.2,Win32,59.88741167,,,,,,,,,,,up,2.5155,53,0,53,0,1,,,,,,,,,,,,,,,,,,,,,
,,,,,,,,,,,,,,,,,,,,,,,,,60c12fe6ca8c4aa6d0185190,2021-09-11_16h38.19.843,arrow_simon_vert,2021.1.2,Win32,59.88741167,,,,,,,,,,,left,2.5654,54,0,54,0,1,,,,,,,,,,,,,,,,,,,,,
,,,,,,,,,,,,,,,,,,,,,,,,,60c12fe6ca8c4aa6d0185190,2021-09-11_16h38.19.843,arrow_simon_vert,2021.1.2,Win32,59.88741167,,,,,,,,,,,down,2.5395,55,0,55,0,1,,,,,,,,,,,,,,,,,,,,,
,,,,,,,,,,,,,,,,,,,,,,,,,60c12fe6ca8c4aa6d0185190,2021-09-11_16h38.19.843,arrow_simon_vert,2021.1.2,Win32,59.88741167,,,,,,,,,,,right,2.5649,56,0,56,0,1,,,,,,,,,,,,,,,,,,,,,
,,,,,,,,,,,,,,,,,,,,,,,,,60c12fe6ca8c4aa6d0185190,2021-09-11_16h38.19.843,arrow_simon_vert,2021.1.2,Win32,59.88741167,,,,,,,,,,,up,2.549,57,0,57,0,1,,,,,,,,,,,,,,,,,,,,,
,,,,,,,,,,,,,,,,,,,,,,,,,60c12fe6ca8c4aa6d0185190,2021-09-11_16h38.19.843,arrow_simon_vert,2021.1.2,Win32,59.88741167,,,,,,,,,,,left,2.5683,58,0,58,0,1,,,,,,,,,,,,,,,,,,,,,
,,,,,,,,,,,,,,,,,,,,,,,,,60c12fe6ca8c4aa6d0185190,2021-09-11_16h38.19.843,arrow_simon_vert,2021.1.2,Win32,59.88741167,,,,,,,,,,,down,2.6004,59,0,59,0,1,,,,,,,,,,,,,,,,,,,,,
,,,,,,0,2.28573623,#a3d0fb,"[""0.25"",""0""]",right_blue.png,right,,,,,,,,right,right_blue.png,up_orange.png,up,right,up,60c12fe6ca8c4aa6d0185190,2021-09-11_16h38.19.843,arrow_simon_vert,2021.1.2,Win32,59.88741167,,,,,,,,,,,,,,,,,,space,0,107.9553,right,1,1.6828,1,TRUE,FALSE,0,0,0,1,1,,,,,,,
,,,,,,0,2.248986095,#f3af84,"[""0"",""0.25""]",up_orange.png,up,,,,,,,,right,right_blue.png,up_orange.png,up,right,up,60c12fe6ca8c4aa6d0185190,2021-09-11_16h38.19.843,arrow_simon_vert,2021.1.2,Win32,59.88741167,,,,,,,,,,,,,,,,,,,,,up,1,1.6319,2,TRUE,FALSE,0,1,1,1,1,,,,,,,
,,,,,,0,2.335386079,#a3d0fb,"[""-0.25"",""0""]",left_blue.png,left,,,,,,,,left,left_blue.png,down_orange.png,down,left,down,60c12fe6ca8c4aa6d0185190,2021-09-11_16h38.19.843,arrow_simon_vert,2021.1.2,Win32,59.88741167,,,,,,,,,,,,,,,,,,,,,left,1,1.7392,3,TRUE,FALSE,0,2,2,2,1,,,,,,,
,,,,,,0,1.551886301,#f3af84,"[""0"",""0.25""]",up_orange.png,up,,,,,,,,right,right_blue.png,up_orange.png,up,right,up,60c12fe6ca8c4aa6d0185190,2021-09-11_16h38.19.843,arrow_simon_vert,2021.1.2,Win32,59.88741167,,,,,,,,,,,,,,,,,,,,,up,1,1.0457,4,FALSE,TRUE,0,3,3,1,1,,,,,,,
,,,,,,1,2.293839143,#a3d0fb,"[""0.25"",""0""]",left_blue.png,left,,,,,,,,left,left_blue.png,down_orange.png,down,right,up,60c12fe6ca8c4aa6d0185190,2021-09-11_16h38.19.843,arrow_simon_vert,2021.1.2,Win32,59.88741167,,,,,,,,,,,,,,,,,,,,,right,0,1.5214,5,FALSE,FALSE,1,0,4,3,1,,,,,,,
,,,,,,1,1.558036715,#f3af84,"[""0"",""0.25""]",down_orange.png,down,,,,,,,,left,left_blue.png,down_orange.png,down,right,up,60c12fe6ca8c4aa6d0185190,2021-09-11_16h38.19.843,arrow_simon_vert,2021.1.2,Win32,59.88741167,,,,,,,,,,,,,,,,,,,,,down,1,1.0357,6,FALSE,TRUE,1,1,5,3,1,,,,,,,
,,,,,,1,1.7410947,#a3d0fb,"[""0.25"",""0""]",left_blue.png,left,,,,,,,,left,left_blue.png,down_orange.png,down,right,up,60c12fe6ca8c4aa6d0185190,2021-09-11_16h38.19.843,arrow_simon_vert,2021.1.2,Win32,59.88741167,,,,,,,,,,,,,,,,,,,,,left,1,1.2859,7,FALSE,TRUE,1,2,6,3,1,,,,,,,
,,,,,,1,2.286511547,#f3af84,"[""0"",""-0.25""]",up_orange.png,up,,,,,,,,right,right_blue.png,up_orange.png,up,left,down,60c12fe6ca8c4aa6d0185190,2021-09-11_16h38.19.843,arrow_simon_vert,2021.1.2,Win32,59.88741167,,,,,,,,,,,,,,,,,,,,,up,1,1.8056,8,TRUE,FALSE,1,3,7,0,1,,,,,,,
,,,,,,1,2.059195848,#a3d0fb,"[""-0.25"",""0""]",left_blue.png,left,,,,,,,,left,left_blue.png,down_orange.png,down,left,down,60c12fe6ca8c4aa6d0185190,2021-09-11_16h38.19.843,arrow_simon_vert,2021.1.2,Win32,59.88741167,,,,,,,,,,,,,,,,,,,,,left,1,1.6657,9,TRUE,FALSE,2,0,8,2,1,,,,,,,
,,,,,,0,1.796062595,#f3af84,"[""0"",""-0.25""]",up_orange.png,up,,,,,,,,right,right_blue.png,up_orange.png,up,left,down,60c12fe6ca8c4aa6d0185190,2021-09-11_16h38.19.843,arrow_simon_vert,2021.1.2,Win32,59.88741167,,,,,,,,,,,,,,,,,,,,,up,1,1.4826,10,FALSE,FALSE,2,1,9,0,1,,,,,,,
,,,,,,0,2.195526725,#a3d0fb,"[""0.25"",""0""]",right_blue.png,right,,,,,,,,right,right_blue.png,up_orange.png,up,right,up,60c12fe6ca8c4aa6d0185190,2021-09-11_16h38.19.843,arrow_simon_vert,2021.1.2,Win32,59.88741167,,,,,,,,,,,,,,,,,,,,,right,1,1.7811,11,TRUE,FALSE,2,2,10,1,1,,,,,,,
,,,,,,0,1.768663648,#f3af84,"[""0"",""0.25""]",down_orange.png,down,,,,,,,,left,left_blue.png,down_orange.png,down,right,up,60c12fe6ca8c4aa6d0185190,2021-09-11_16h38.19.843,arrow_simon_vert,2021.1.2,Win32,59.88741167,,,,,,,,,,,,,,,,,,,,,down,1,1.5492,12,FALSE,FALSE,2,3,11,3,1,,,,,,,
,,,,,,0,2.478372376,#a3d0fb,"[""0.25"",""0""]",right_blue.png,right,,,,,,,,right,right_blue.png,up_orange.png,up,right,up,60c12fe6ca8c4aa6d0185190,2021-09-11_16h38.19.843,arrow_simon_vert,2021.1.2,Win32,59.88741167,,,,,,,,,,,,,,,,,,,,,right,1,1.7656,13,TRUE,FALSE,3,0,12,1,1,,,,,,,
,,,,,,0,2.239865793,#f3af84,"[""0"",""-0.25""]",up_orange.png,up,,,,,,,,right,right_blue.png,up_orange.png,up,left,down,60c12fe6ca8c4aa6d0185190,2021-09-11_16h38.19.843,arrow_simon_vert,2021.1.2,Win32,59.88741167,,,,,,,,,,,,,,,,,,,,,up,1,1.6654,14,TRUE,FALSE,3,1,13,0,1,,,,,,,
,,,,,,0,2.146173706,#a3d0fb,"[""-0.25"",""0""]",right_blue.png,right,,,,,,,,right,right_blue.png,up_orange.png,up,left,down,60c12fe6ca8c4aa6d0185190,2021-09-11_16h38.19.843,arrow_simon_vert,2021.1.2,Win32,59.88741167,,,,,,,,,,,,,,,,,,,,,right,1,1.5776,15,FALSE,FALSE,3,2,14,0,1,,,,,,,
,,,,,,0,1.861709598,#f3af84,"[""0"",""0.25""]",down_orange.png,down,,,,,,,,left,left_blue.png,down_orange.png,down,right,up,60c12fe6ca8c4aa6d0185190,2021-09-11_16h38.19.843,arrow_simon_vert,2021.1.2,Win32,59.88741167,,,,,,,,,,,,,,,,,,,,,down,1,1.6188,16,TRUE,FALSE,3,3,15,3,1,,,,,,,
,,,,,,0,2.316233683,#a3d0fb,"[""0.25"",""0""]",left_blue.png,left,,,,,,,,left,left_blue.png,down_orange.png,down,right,up,60c12fe6ca8c4aa6d0185190,2021-09-11_16h38.19.843,arrow_simon_vert,2021.1.2,Win32,59.88741167,,,,,,,,,,,,,,,,,,,,,left,1,1.7797,17,TRUE,FALSE,4,0,16,3,1,,,,,,,
,,,,,,0,1.982547805,#f3af84,"[""0"",""0.25""]",down_orange.png,down,,,,,,,,left,left_blue.png,down_orange.png,down,right,up,60c12fe6ca8c4aa6d0185190,2021-09-11_16h38.19.843,arrow_simon_vert,2021.1.2,Win32,59.88741167,,,,,,,,,,,,,,,,,,,,,down,1,1.6933,18,TRUE,FALSE,4,1,17,3,1,,,,,,,
,,,,,,0,1.840146613,#a3d0fb,"[""0.25"",""0""]",left_blue.png,left,,,,,,,,left,left_blue.png,down_orange.png,down,right,up,60c12fe6ca8c4aa6d0185190,2021-09-11_16h38.19.843,arrow_simon_vert,2021.1.2,Win32,59.88741167,,,,,,,,,,,,,,,,,,,,,left,1,1.5106,19,FALSE,FALSE,4,2,18,3,1,,,,,,,
,,,,,,0,2.463621266,#f3af84,"[""0"",""-0.25""]",down_orange.png,down,,,,,,,,left,left_blue.png,down_orange.png,down,left,down,60c12fe6ca8c4aa6d0185190,2021-09-11_16h38.19.843,arrow_simon_vert,2021.1.2,Win32,59.88741167,,,,,,,,,,,,,,,,,,,,,down,1,1.982,20,TRUE,FALSE,4,3,19,2,1,,,,,,,
,,,,,,0,1.86863882,#a3d0fb,"[""-0.25"",""0""]",right_blue.png,right,,,,,,,,right,right_blue.png,up_orange.png,up,left,down,60c12fe6ca8c4aa6d0185190,2021-09-11_16h38.19.843,arrow_simon_vert,2021.1.2,Win32,59.88741167,,,,,,,,,,,,,,,,,,,,,right,1,1.4859,21,FALSE,FALSE,5,0,20,0,1,,,,,,,
,,,,,,0,2.335753073,#f3af84,"[""0"",""-0.25""]",up_orange.png,up,,,,,,,,right,right_blue.png,up_orange.png,up,left,down,60c12fe6ca8c4aa6d0185190,2021-09-11_16h38.19.843,arrow_simon_vert,2021.1.2,Win32,59.88741167,,,,,,,,,,,,,,,,,,,,,down,0,1.649,22,TRUE,FALSE,5,1,21,0,1,,,,,,,
,,,,,,0,1.86395444,#a3d0fb,"[""-0.25"",""0""]",left_blue.png,left,,,,,,,,left,left_blue.png,down_orange.png,down,left,down,60c12fe6ca8c4aa6d0185190,2021-09-11_16h38.19.843,arrow_simon_vert,2021.1.2,Win32,59.88741167,,,,,,,,,,,,,,,,,,,,,left,1,1.4567,23,FALSE,FALSE,5,2,22,2,1,,,,,,,
,,,,,,0,2.447838738,#f3af84,"[""0"",""-0.25""]",up_orange.png,up,,,,,,,,right,right_blue.png,up_orange.png,up,left,down,60c12fe6ca8c4aa6d0185190,2021-09-11_16h38.19.843,arrow_simon_vert,2021.1.2,Win32,59.88741167,,,,,,,,,,,,,,,,,,,,,up,1,1.8665,24,TRUE,FALSE,5,3,23,0,1,,,,,,,
,,,,,,0,1.725270225,#a3d0fb,"[""0.25"",""0""]",left_blue.png,left,,,,,,,,left,left_blue.png,down_orange.png,down,right,up,60c12fe6ca8c4aa6d0185190,2021-09-11_16h38.19.843,arrow_simon_vert,2021.1.2,Win32,59.88741167,,,,,,,,,,,,,,,,,,,,,left,1,1.487,25,FALSE,FALSE,6,0,24,3,1,,,,,,,
,,,,,,0,2.057429802,#f3af84,"[""0"",""-0.25""]",up_orange.png,up,,,,,,,,right,right_blue.png,up_orange.png,up,left,down,60c12fe6ca8c4aa6d0185190,2021-09-11_16h38.19.843,arrow_simon_vert,2021.1.2,Win32,59.88741167,,,,,,,,,,,,,,,,,,,,,up,1,1.6569,26,TRUE,FALSE,6,1,25,0,1,,,,,,,
,,,,,,0,2.120469302,#a3d0fb,"[""-0.25"",""0""]",right_blue.png,right,,,,,,,,right,right_blue.png,up_orange.png,up,left,down,60c12fe6ca8c4aa6d0185190,2021-09-11_16h38.19.843,arrow_simon_vert,2021.1.2,Win32,59.88741167,,,,,,,,,,,,,,,,,,,,,right,1,1.5112,27,FALSE,FALSE,6,2,26,0,1,,,,,,,
,,,,,,0,2.219208311,#f3af84,"[""0"",""0.25""]",down_orange.png,down,,,,,,,,left,left_blue.png,down_orange.png,down,right,up,60c12fe6ca8c4aa6d0185190,2021-09-11_16h38.19.843,arrow_simon_vert,2021.1.2,Win32,59.88741167,,,,,,,,,,,,,,,,,,,,,down,1,1.776,28,TRUE,FALSE,6,3,27,3,1,,,,,,,
,,,,,,0,1.858968426,#a3d0fb,"[""0.25"",""0""]",left_blue.png,left,,,,,,,,left,left_blue.png,down_orange.png,down,right,up,60c12fe6ca8c4aa6d0185190,2021-09-11_16h38.19.843,arrow_simon_vert,2021.1.2,Win32,59.88741167,,,,,,,,,,,,,,,,,,,,,left,1,1.5123,29,FALSE,FALSE,7,0,28,3,1,,,,,,,
,,,,,,0,1.739879349,#f3af84,"[""0"",""-0.25""]",up_orange.png,up,,,,,,,,right,right_blue.png,up_orange.png,up,left,down,60c12fe6ca8c4aa6d0185190,2021-09-11_16h38.19.843,arrow_simon_vert,2021.1.2,Win32,59.88741167,,,,,,,,,,,,,,,,,,,,,up,1,1.6821,30,TRUE,FALSE,7,1,29,0,1,,,,,,,
,,,,,,0,1.594524138,#a3d0fb,"[""-0.25"",""0""]",left_blue.png,left,,,,,,,,left,left_blue.png,down_orange.png,down,left,down,60c12fe6ca8c4aa6d0185190,2021-09-11_16h38.19.843,arrow_simon_vert,2021.1.2,Win32,59.88741167,,,,,,,,,,,,,,,,,,,,,left,1,1.4376,31,FALSE,FALSE,7,2,30,2,1,,,,,,,
,,,,,,0,2.478366498,#f3af84,"[""0"",""-0.25""]",down_orange.png,down,,,,,,,,left,left_blue.png,down_orange.png,down,left,down,60c12fe6ca8c4aa6d0185190,2021-09-11_16h38.19.843,arrow_simon_vert,2021.1.2,Win32,59.88741167,,,,,,,,,,,,,,,,,,,,,down,1,1.855,32,TRUE,FALSE,7,3,31,2,1,,,,,,,
,,,,,,0,2.244272345,#a3d0fb,"[""0.25"",""0""]",right_blue.png,right,,,,,,,,right,right_blue.png,up_orange.png,up,right,up,60c12fe6ca8c4aa6d0185190,2021-09-11_16h38.19.843,arrow_simon_vert,2021.1.2,Win32,59.88741167,,,,,,,,,,,,,,,,,,,,,right,1,1.6375,33,TRUE,FALSE,8,0,32,1,1,,,,,,,
,,,,,,0,1.726989009,#f3af84,"[""0"",""0.25""]",up_orange.png,up,,,,,,,,right,right_blue.png,up_orange.png,up,right,up,60c12fe6ca8c4aa6d0185190,2021-09-11_16h38.19.843,arrow_simon_vert,2021.1.2,Win32,59.88741167,,,,,,,,,,,,,,,,,,,,,up,1,1.468,34,FALSE,FALSE,8,1,33,1,1,,,,,,,
,,,,,,0,2.124113221,#a3d0fb,"[""0.25"",""0""]",left_blue.png,left,,,,,,,,left,left_blue.png,down_orange.png,down,right,up,60c12fe6ca8c4aa6d0185190,2021-09-11_16h38.19.843,arrow_simon_vert,2021.1.2,Win32,59.88741167,,,,,,,,,,,,,,,,,,,,,left,1,1.6002,35,TRUE,FALSE,8,2,34,3,1,,,,,,,
,,,,,,1,2.015027214,#f3af84,"[""0"",""0.25""]",down_orange.png,down,,,,,,,,left,left_blue.png,down_orange.png,down,right,up,60c12fe6ca8c4aa6d0185190,2021-09-11_16h38.19.843,arrow_simon_vert,2021.1.2,Win32,59.88741167,,,,,,,,,,,,,,,,,,,,,up,0,1.5488,36,FALSE,FALSE,8,3,35,3,1,,,,,,,
,,,,,,0,1.972148648,#a3d0fb,"[""0.25"",""0""]",right_blue.png,right,,,,,,,,right,right_blue.png,up_orange.png,up,right,up,60c12fe6ca8c4aa6d0185190,2021-09-11_16h38.19.843,arrow_simon_vert,2021.1.2,Win32,59.88741167,,,,,,,,,,,,,,,,,,,,,right,1,1.5696,37,FALSE,FALSE,9,0,36,1,1,,,,,,,
,,,,,,0,2.337065055,#f3af84,"[""0"",""-0.25""]",down_orange.png,down,,,,,,,,left,left_blue.png,down_orange.png,down,left,down,60c12fe6ca8c4aa6d0185190,2021-09-11_16h38.19.843,arrow_simon_vert,2021.1.2,Win32,59.88741167,,,,,,,,,,,,,,,,,,,,,down,1,1.7246,38,TRUE,FALSE,9,1,37,2,1,,,,,,,
,,,,,,0,2.003485528,#a3d0fb,"[""0.25"",""0""]",right_blue.png,right,,,,,,,,right,right_blue.png,up_orange.png,up,right,up,60c12fe6ca8c4aa6d0185190,2021-09-11_16h38.19.843,arrow_simon_vert,2021.1.2,Win32,59.88741167,,,,,,,,,,,,,,,,,,,,,right,1,1.4981,39,FALSE,FALSE,9,2,38,1,1,,,,,,,
,,,,,,0,2.312789829,#f3af84,"[""0"",""0.25""]",up_orange.png,up,,,,,,,,right,right_blue.png,up_orange.png,up,right,up,60c12fe6ca8c4aa6d0185190,2021-09-11_16h38.19.843,arrow_simon_vert,2021.1.2,Win32,59.88741167,,,,,,,,,,,,,,,,,,,,,up,1,1.7165,40,TRUE,FALSE,9,3,39,1,1,,,,,,,
,,,,,,0,1.899676619,#a3d0fb,"[""-0.25"",""0""]",left_blue.png,left,,,,,,,,left,left_blue.png,down_orange.png,down,left,down,60c12fe6ca8c4aa6d0185190,2021-09-11_16h38.19.843,arrow_simon_vert,2021.1.2,Win32,59.88741167,,,,,,,,,,,,,,,,,,,,,left,1,1.2887,41,FALSE,TRUE,10,0,40,2,1,,,,,,,
,,,,,,0,2.213027667,#f3af84,"[""0"",""-0.25""]",down_orange.png,down,,,,,,,,left,left_blue.png,down_orange.png,down,left,down,60c12fe6ca8c4aa6d0185190,2021-09-11_16h38.19.843,arrow_simon_vert,2021.1.2,Win32,59.88741167,,,,,,,,,,,,,,,,,,,,,down,1,1.4656,42,FALSE,FALSE,10,1,41,2,1,,,,,,,
,,,,,,0,2.38260928,#a3d0fb,"[""-0.25"",""0""]",left_blue.png,left,,,,,,,,left,left_blue.png,down_orange.png,down,left,down,60c12fe6ca8c4aa6d0185190,2021-09-11_16h38.19.843,arrow_simon_vert,2021.1.2,Win32,59.88741167,,,,,,,,,,,,,,,,,,,,,left,1,1.7445,43,TRUE,FALSE,10,2,42,2,1,,,,,,,
,,,,,,0,1.584726376,#f3af84,"[""0"",""0.25""]",up_orange.png,up,,,,,,,,right,right_blue.png,up_orange.png,up,right,up,60c12fe6ca8c4aa6d0185190,2021-09-11_16h38.19.843,arrow_simon_vert,2021.1.2,Win32,59.88741167,,,,,,,,,,,,,,,,,,,,,up,1,1.4867,44,FALSE,FALSE,10,3,43,1,1,,,,,,,
,,,,,,1,2.212693546,#a3d0fb,"[""-0.25"",""0""]",left_blue.png,left,,,,,,,,left,left_blue.png,down_orange.png,down,left,down,60c12fe6ca8c4aa6d0185190,2021-09-11_16h38.19.843,arrow_simon_vert,2021.1.2,Win32,59.88741167,,,,,,,,,,,,,,,,,,,,,right,0,1.516,45,FALSE,FALSE,11,0,44,2,1,,,,,,,
,,,,,,0,1.762432556,#f3af84,"[""0"",""0.25""]",up_orange.png,up,,,,,,,,right,right_blue.png,up_orange.png,up,right,up,60c12fe6ca8c4aa6d0185190,2021-09-11_16h38.19.843,arrow_simon_vert,2021.1.2,Win32,59.88741167,,,,,,,,,,,,,,,,,,,,,up,1,1.5078,46,FALSE,FALSE,11,1,45,1,1,,,,,,,
,,,,,,0,2.297823146,#a3d0fb,"[""-0.25"",""0""]",right_blue.png,right,,,,,,,,right,right_blue.png,up_orange.png,up,left,down,60c12fe6ca8c4aa6d0185190,2021-09-11_16h38.19.843,arrow_simon_vert,2021.1.2,Win32,59.88741167,,,,,,,,,,,,,,,,,,,,,right,1,1.732,47,TRUE,FALSE,11,2,46,0,1,,,,,,,
,,,,,,0,2.424577282,#f3af84,"[""0"",""0.25""]",up_orange.png,up,,,,,,,,right,right_blue.png,up_orange.png,up,right,up,60c12fe6ca8c4aa6d0185190,2021-09-11_16h38.19.843,arrow_simon_vert,2021.1.2,Win32,59.88741167,,,,,,,,,,,,,,,,,,,,,up,1,1.769,48,TRUE,FALSE,11,3,47,1,1,,,,,,,
,,,,,,0,2.26853549,#a3d0fb,"[""0.25"",""0""]",left_blue.png,left,,,,,,,,left,left_blue.png,down_orange.png,down,right,up,60c12fe6ca8c4aa6d0185190,2021-09-11_16h38.19.843,arrow_simon_vert,2021.1.2,Win32,59.88741167,,,,,,,,,,,,,,,,,,,,,right,0,1.7665,49,TRUE,FALSE,12,0,48,3,1,,,,,,,
,,,,,,0,2.017626264,#f3af84,"[""0"",""-0.25""]",down_orange.png,down,,,,,,,,left,left_blue.png,down_orange.png,down,left,down,60c12fe6ca8c4aa6d0185190,2021-09-11_16h38.19.843,arrow_simon_vert,2021.1.2,Win32,59.88741167,,,,,,,,,,,,,,,,,,,,,down,1,1.4657,50,FALSE,FALSE,12,1,49,2,1,,,,,,,
,,,,,,0,1.904617685,#a3d0fb,"[""0.25"",""0""]",right_blue.png,right,,,,,,,,right,right_blue.png,up_orange.png,up,right,up,60c12fe6ca8c4aa6d0185190,2021-09-11_16h38.19.843,arrow_simon_vert,2021.1.2,Win32,59.88741167,,,,,,,,,,,,,,,,,,,,,right,1,1.5318,51,FALSE,FALSE,12,2,50,1,1,,,,,,,
,,,,,,1,2.028212528,#f3af84,"[""0"",""-0.25""]",up_orange.png,up,,,,,,,,right,right_blue.png,up_orange.png,up,left,down,60c12fe6ca8c4aa6d0185190,2021-09-11_16h38.19.843,arrow_simon_vert,2021.1.2,Win32,59.88741167,,,,,,,,,,,,,,,,,,,,,down,0,1.5437,52,FALSE,FALSE,12,3,51,0,1,,,,,,,
,,,,,,0,2.139913987,#a3d0fb,"[""0.25"",""0""]",right_blue.png,right,,,,,,,,right,right_blue.png,up_orange.png,up,right,up,60c12fe6ca8c4aa6d0185190,2021-09-11_16h38.19.843,arrow_simon_vert,2021.1.2,Win32,59.88741167,,,,,,,,,,,,,,,,,,,,,right,1,1.579,53,FALSE,FALSE,13,0,52,1,1,,,,,,,
,,,,,,0,1.735136567,#f3af84,"[""0"",""-0.25""]",up_orange.png,up,,,,,,,,right,right_blue.png,up_orange.png,up,left,down,60c12fe6ca8c4aa6d0185190,2021-09-11_16h38.19.843,arrow_simon_vert,2021.1.2,Win32,59.88741167,,,,,,,,,,,,,,,,,,,,,up,1,1.5433,54,FALSE,FALSE,13,1,53,0,1,,,,,,,
,,,,,,0,1.838610179,#a3d0fb,"[""-0.25"",""0""]",left_blue.png,left,,,,,,,,left,left_blue.png,down_orange.png,down,left,down,60c12fe6ca8c4aa6d0185190,2021-09-11_16h38.19.843,arrow_simon_vert,2021.1.2,Win32,59.88741167,,,,,,,,,,,,,,,,,,,,,left,1,1.5704,55,FALSE,FALSE,13,2,54,2,1,,,,,,,
,,,,,,0,1.953258864,#f3af84,"[""0"",""-0.25""]",up_orange.png,up,,,,,,,,right,right_blue.png,up_orange.png,up,left,down,60c12fe6ca8c4aa6d0185190,2021-09-11_16h38.19.843,arrow_simon_vert,2021.1.2,Win32,59.88741167,,,,,,,,,,,,,,,,,,,,,up,1,1.5323,56,FALSE,FALSE,13,3,55,0,1,,,,,,,
,,,,,,0,2.151497098,#a3d0fb,"[""-0.25"",""0""]",left_blue.png,left,,,,,,,,left,left_blue.png,down_orange.png,down,left,down,60c12fe6ca8c4aa6d0185190,2021-09-11_16h38.19.843,arrow_simon_vert,2021.1.2,Win32,59.88741167,,,,,,,,,,,,,,,,,,,,,left,1,1.6376,57,TRUE,FALSE,14,0,56,2,1,,,,,,,
,,,,,,0,2.392091316,#f3af84,"[""0"",""-0.25""]",up_orange.png,up,,,,,,,,right,right_blue.png,up_orange.png,up,left,down,60c12fe6ca8c4aa6d0185190,2021-09-11_16h38.19.843,arrow_simon_vert,2021.1.2,Win32,59.88741167,,,,,,,,,,,,,,,,,,,,,up,1,1.7691,58,TRUE,FALSE,14,1,57,0,1,,,,,,,
,,,,,,0,2.404357647,#a3d0fb,"[""0.25"",""0""]",left_blue.png,left,,,,,,,,left,left_blue.png,down_orange.png,down,right,up,60c12fe6ca8c4aa6d0185190,2021-09-11_16h38.19.843,arrow_simon_vert,2021.1.2,Win32,59.88741167,,,,,,,,,,,,,,,,,,,,,right,0,1.6491,59,TRUE,FALSE,14,2,58,3,1,,,,,,,
,,,,,,0,1.908000694,#f3af84,"[""0"",""-0.25""]",down_orange.png,down,,,,,,,,left,left_blue.png,down_orange.png,down,left,down,60c12fe6ca8c4aa6d0185190,2021-09-11_16h38.19.843,arrow_simon_vert,2021.1.2,Win32,59.88741167,,,,,,,,,,,,,,,,,,,,,down,1,1.3164,60,FALSE,TRUE,14,3,59,2,1,,,,,,,
,,,,,,,,,,,,,,,,,,,,,,,,,60c12fe6ca8c4aa6d0185190,2021-09-11_16h38.19.843,arrow_simon_vert,2021.1.2,Win32,59.88741167,,,,,,,,,,,,,,,,,,,,,,,,,,,,,,,,space,5.5281,0,0,0,0,1
,,,,,,0,1.785197842,#a3d0fb,"[""-0.25"",""0""]",left_blue.png,left,,,,,,,,left,left_blue.png,down_orange.png,down,left,down,60c12fe6ca8c4aa6d0185190,2021-09-11_16h38.19.843,arrow_simon_vert,2021.1.2,Win32,59.88741167,,,,,,,,,,,,,,,,,,,,,left,1,1.4491,1,FALSE,FALSE,0,0,0,2,1,,,,,,,
,,,,,,0,1.685311402,#f3af84,"[""0"",""-0.25""]",up_orange.png,up,,,,,,,,right,right_blue.png,up_orange.png,up,left,down,60c12fe6ca8c4aa6d0185190,2021-09-11_16h38.19.843,arrow_simon_vert,2021.1.2,Win32,59.88741167,,,,,,,,,,,,,,,,,,,,,up,1,1.4788,2,FALSE,FALSE,0,1,1,0,1,,,,,,,
,,,,,,0,2.030314269,#a3d0fb,"[""-0.25"",""0""]",left_blue.png,left,,,,,,,,left,left_blue.png,down_orange.png,down,left,down,60c12fe6ca8c4aa6d0185190,2021-09-11_16h38.19.843,arrow_simon_vert,2021.1.2,Win32,59.88741167,,,,,,,,,,,,,,,,,,,,,left,1,1.5902,3,FALSE,FALSE,0,2,2,2,1,,,,,,,
,,,,,,0,1.735656326,#f3af84,"[""0"",""0.25""]",down_orange.png,down,,,,,,,,left,left_blue.png,down_orange.png,down,right,up,60c12fe6ca8c4aa6d0185190,2021-09-11_16h38.19.843,arrow_simon_vert,2021.1.2,Win32,59.88741167,,,,,,,,,,,,,,,,,,,,,down,1,1.4332,4,FALSE,FALSE,0,3,3,3,1,,,,,,,
,,,,,,0,2.239020781,#a3d0fb,"[""0.25"",""0""]",right_blue.png,right,,,,,,,,right,right_blue.png,up_orange.png,up,right,up,60c12fe6ca8c4aa6d0185190,2021-09-11_16h38.19.843,arrow_simon_vert,2021.1.2,Win32,59.88741167,,,,,,,,,,,,,,,,,,,,,right,1,1.6668,5,TRUE,FALSE,1,0,4,1,1,,,,,,,
,,,,,,0,1.555716649,#f3af84,"[""0"",""-0.25""]",down_orange.png,down,,,,,,,,left,left_blue.png,down_orange.png,down,left,down,60c12fe6ca8c4aa6d0185190,2021-09-11_16h38.19.843,arrow_simon_vert,2021.1.2,Win32,59.88741167,,,,,,,,,,,,,,,,,,,,,down,1,1.4401,6,FALSE,FALSE,1,1,5,2,1,,,,,,,
,,,,,,0,1.552028386,#a3d0fb,"[""-0.25"",""0""]",left_blue.png,left,,,,,,,,left,left_blue.png,down_orange.png,down,left,down,60c12fe6ca8c4aa6d0185190,2021-09-11_16h38.19.843,arrow_simon_vert,2021.1.2,Win32,59.88741167,,,,,,,,,,,,,,,,,,,,,left,1,1.4105,7,FALSE,FALSE,1,2,6,2,1,,,,,,,
,,,,,,0,1.88432523,#f3af84,"[""0"",""-0.25""]",up_orange.png,up,,,,,,,,right,right_blue.png,up_orange.png,up,left,down,60c12fe6ca8c4aa6d0185190,2021-09-11_16h38.19.843,arrow_simon_vert,2021.1.2,Win32,59.88741167,,,,,,,,,,,,,,,,,,,,,up,1,1.5664,8,FALSE,FALSE,1,3,7,0,1,,,,,,,
,,,,,,0,2.209763197,#a3d0fb,"[""-0.25"",""0""]",left_blue.png,left,,,,,,,,left,left_blue.png,down_orange.png,down,left,down,60c12fe6ca8c4aa6d0185190,2021-09-11_16h38.19.843,arrow_simon_vert,2021.1.2,Win32,59.88741167,,,,,,,,,,,,,,,,,,,,,left,1,1.5623,9,FALSE,FALSE,2,0,8,2,1,,,,,,,
,,,,,,0,1.798740842,#f3af84,"[""0"",""0.25""]",up_orange.png,up,,,,,,,,right,right_blue.png,up_orange.png,up,right,up,60c12fe6ca8c4aa6d0185190,2021-09-11_16h38.19.843,arrow_simon_vert,2021.1.2,Win32,59.88741167,,,,,,,,,,,,,,,,,,,,,up,1,1.4687,10,FALSE,FALSE,2,1,9,1,1,,,,,,,
,,,,,,0,1.60535813,#a3d0fb,"[""0.25"",""0""]",left_blue.png,left,,,,,,,,left,left_blue.png,down_orange.png,down,right,up,60c12fe6ca8c4aa6d0185190,2021-09-11_16h38.19.843,arrow_simon_vert,2021.1.2,Win32,59.88741167,,,,,,,,,,,,,,,,,,,,,left,1,1.4152,11,FALSE,FALSE,2,2,10,3,1,,,,,,,
,,,,,,0,2.201751421,#f3af84,"[""0"",""-0.25""]",up_orange.png,up,,,,,,,,right,right_blue.png,up_orange.png,up,left,down,60c12fe6ca8c4aa6d0185190,2021-09-11_16h38.19.843,arrow_simon_vert,2021.1.2,Win32,59.88741167,,,,,,,,,,,,,,,,,,,,,up,1,1.6103,12,TRUE,FALSE,2,3,11,0,1,,,,,,,
,,,,,,0,1.937751131,#a3d0fb,"[""0.25"",""0""]",right_blue.png,right,,,,,,,,right,right_blue.png,up_orange.png,up,right,up,60c12fe6ca8c4aa6d0185190,2021-09-11_16h38.19.843,arrow_simon_vert,2021.1.2,Win32,59.88741167,,,,,,,,,,,,,,,,,,,,,right,1,1.4779,13,FALSE,FALSE,3,0,12,1,1,,,,,,,
,,,,,,0,1.554013213,#f3af84,"[""0"",""-0.25""]",up_orange.png,up,,,,,,,,right,right_blue.png,up_orange.png,up,left,down,60c12fe6ca8c4aa6d0185190,2021-09-11_16h38.19.843,arrow_simon_vert,2021.1.2,Win32,59.88741167,,,,,,,,,,,,,,,,,,,,,up,1,1.3351,14,FALSE,TRUE,3,1,13,0,1,,,,,,,
,,,,,,0,1.92139265,#a3d0fb,"[""0.25"",""0""]",right_blue.png,right,,,,,,,,right,right_blue.png,up_orange.png,up,right,up,60c12fe6ca8c4aa6d0185190,2021-09-11_16h38.19.843,arrow_simon_vert,2021.1.2,Win32,59.88741167,,,,,,,,,,,,,,,,,,,,,right,1,1.5609,15,FALSE,FALSE,3,2,14,1,1,,,,,,,
,,,,,,0,2.457650328,#f3af84,"[""0"",""0.25""]",down_orange.png,down,,,,,,,,left,left_blue.png,down_orange.png,down,right,up,60c12fe6ca8c4aa6d0185190,2021-09-11_16h38.19.843,arrow_simon_vert,2021.1.2,Win32,59.88741167,,,,,,,,,,,,,,,,,,,,,down,1,1.8993,16,TRUE,FALSE,3,3,15,3,1,,,,,,,
,,,,,,0,1.502419362,#a3d0fb,"[""0.25"",""0""]",left_blue.png,left,,,,,,,,left,left_blue.png,down_orange.png,down,right,up,60c12fe6ca8c4aa6d0185190,2021-09-11_16h38.19.843,arrow_simon_vert,2021.1.2,Win32,59.88741167,,,,,,,,,,,,,,,,,,,,,left,1,1.4457,17,FALSE,FALSE,4,0,16,3,1,,,,,,,
,,,,,,0,2.419821618,#f3af84,"[""0"",""-0.25""]",up_orange.png,up,,,,,,,,right,right_blue.png,up_orange.png,up,left,down,60c12fe6ca8c4aa6d0185190,2021-09-11_16h38.19.843,arrow_simon_vert,2021.1.2,Win32,59.88741167,,,,,,,,,,,,,,,,,,,,,down,0,1.7516,18,TRUE,FALSE,4,1,17,0,1,,,,,,,
,,,,,,0,1.79512674,#a3d0fb,"[""0.25"",""0""]",right_blue.png,right,,,,,,,,right,right_blue.png,up_orange.png,up,right,up,60c12fe6ca8c4aa6d0185190,2021-09-11_16h38.19.843,arrow_simon_vert,2021.1.2,Win32,59.88741167,,,,,,,,,,,,,,,,,,,,,right,1,1.4851,19,FALSE,FALSE,4,2,18,1,1,,,,,,,
,,,,,,0,1.840068221,#f3af84,"[""0"",""0.25""]",down_orange.png,down,,,,,,,,left,left_blue.png,down_orange.png,down,right,up,60c12fe6ca8c4aa6d0185190,2021-09-11_16h38.19.843,arrow_simon_vert,2021.1.2,Win32,59.88741167,,,,,,,,,,,,,,,,,,,,,down,1,1.5575,20,FALSE,FALSE,4,3,19,3,1,,,,,,,
,,,,,,0,1.933342501,#a3d0fb,"[""0.25"",""0""]",right_blue.png,right,,,,,,,,right,right_blue.png,up_orange.png,up,right,up,60c12fe6ca8c4aa6d0185190,2021-09-11_16h38.19.843,arrow_simon_vert,2021.1.2,Win32,59.88741167,,,,,,,,,,,,,,,,,,,,,right,1,1.5683,21,FALSE,FALSE,5,0,20,1,1,,,,,,,
,,,,,,0,2.067307165,#f3af84,"[""0"",""0.25""]",up_orange.png,up,,,,,,,,right,right_blue.png,up_orange.png,up,right,up,60c12fe6ca8c4aa6d0185190,2021-09-11_16h38.19.843,arrow_simon_vert,2021.1.2,Win32,59.88741167,,,,,,,,,,,,,,,,,,,,,up,1,1.6161,22,TRUE,FALSE,5,1,21,1,1,,,,,,,
,,,,,,0,2.486948944,#a3d0fb,"[""0.25"",""0""]",right_blue.png,right,,,,,,,,right,right_blue.png,up_orange.png,up,right,up,60c12fe6ca8c4aa6d0185190,2021-09-11_16h38.19.843,arrow_simon_vert,2021.1.2,Win32,59.88741167,,,,,,,,,,,,,,,,,,,,,right,1,1.8028,23,TRUE,FALSE,5,2,22,1,1,,,,,,,
,,,,,,0,2.421222109,#f3af84,"[""0"",""-0.25""]",up_orange.png,up,,,,,,,,right,right_blue.png,up_orange.png,up,left,down,60c12fe6ca8c4aa6d0185190,2021-09-11_16h38.19.843,arrow_simon_vert,2021.1.2,Win32,59.88741167,,,,,,,,,,,,,,,,,,,,,up,1,1.7672,24,TRUE,FALSE,5,3,23,0,1,,,,,,,
,,,,,,0,2.310978274,#a3d0fb,"[""0.25"",""0""]",right_blue.png,right,,,,,,,,right,right_blue.png,up_orange.png,up,right,up,60c12fe6ca8c4aa6d0185190,2021-09-11_16h38.19.843,arrow_simon_vert,2021.1.2,Win32,59.88741167,,,,,,,,,,,,,,,,,,,,,right,1,1.7153,25,TRUE,FALSE,6,0,24,1,1,,,,,,,
,,,,,,0,2.134939728,#f3af84,"[""0"",""0.25""]",down_orange.png,down,,,,,,,,left,left_blue.png,down_orange.png,down,right,up,60c12fe6ca8c4aa6d0185190,2021-09-11_16h38.19.843,arrow_simon_vert,2021.1.2,Win32,59.88741167,,,,,,,,,,,,,,,,,,,,,down,1,1.6136,26,TRUE,FALSE,6,1,25,3,1,,,,,,,
,,,,,,0,2.042692869,#a3d0fb,"[""-0.25"",""0""]",right_blue.png,right,,,,,,,,right,right_blue.png,up_orange.png,up,left,down,60c12fe6ca8c4aa6d0185190,2021-09-11_16h38.19.843,arrow_simon_vert,2021.1.2,Win32,59.88741167,,,,,,,,,,,,,,,,,,,,,right,1,1.4822,27,FALSE,FALSE,6,2,26,0,1,,,,,,,
,,,,,,0,1.571330649,#f3af84,"[""0"",""0.25""]",down_orange.png,down,,,,,,,,left,left_blue.png,down_orange.png,down,right,up,60c12fe6ca8c4aa6d0185190,2021-09-11_16h38.19.843,arrow_simon_vert,2021.1.2,Win32,59.88741167,,,,,,,,,,,,,,,,,,,,,down,1,1.0789,28,FALSE,TRUE,6,3,27,3,1,,,,,,,
,,,,,,0,2.046323464,#a3d0fb,"[""-0.25"",""0""]",left_blue.png,left,,,,,,,,left,left_blue.png,down_orange.png,down,left,down,60c12fe6ca8c4aa6d0185190,2021-09-11_16h38.19.843,arrow_simon_vert,2021.1.2,Win32,59.88741167,,,,,,,,,,,,,,,,,,,,,left,1,1.568,29,FALSE,FALSE,7,0,28,2,1,,,,,,,
,,,,,,0,2.37473464,#f3af84,"[""0"",""-0.25""]",down_orange.png,down,,,,,,,,left,left_blue.png,down_orange.png,down,left,down,60c12fe6ca8c4aa6d0185190,2021-09-11_16h38.19.843,arrow_simon_vert,2021.1.2,Win32,59.88741167,,,,,,,,,,,,,,,,,,,,,down,1,1.7202,30,TRUE,FALSE,7,1,29,2,1,,,,,,,
,,,,,,0,2.144931887,#a3d0fb,"[""0.25"",""0""]",left_blue.png,left,,,,,,,,left,left_blue.png,down_orange.png,down,right,up,60c12fe6ca8c4aa6d0185190,2021-09-11_16h38.19.843,arrow_simon_vert,2021.1.2,Win32,59.88741167,,,,,,,,,,,,,,,,,,,,,left,1,1.5991,31,FALSE,FALSE,7,2,30,3,1,,,,,,,
,,,,,,0,1.886409527,#f3af84,"[""0"",""0.25""]",up_orange.png,up,,,,,,,,right,right_blue.png,up_orange.png,up,right,up,60c12fe6ca8c4aa6d0185190,2021-09-11_16h38.19.843,arrow_simon_vert,2021.1.2,Win32,59.88741167,,,,,,,,,,,,,,,,,,,,,up,1,1.4914,32,FALSE,FALSE,7,3,31,1,1,,,,,,,
,,,,,,0,1.534618792,#a3d0fb,"[""0.25"",""0""]",right_blue.png,right,,,,,,,,right,right_blue.png,up_orange.png,up,right,up,60c12fe6ca8c4aa6d0185190,2021-09-11_16h38.19.843,arrow_simon_vert,2021.1.2,Win32,59.88741167,,,,,,,,,,,,,,,,,,,,,right,1,1.4363,33,FALSE,FALSE,8,0,32,1,1,,,,,,,
,,,,,,0,1.872449384,#f3af84,"[""0"",""0.25""]",down_orange.png,down,,,,,,,,left,left_blue.png,down_orange.png,down,right,up,60c12fe6ca8c4aa6d0185190,2021-09-11_16h38.19.843,arrow_simon_vert,2021.1.2,Win32,59.88741167,,,,,,,,,,,,,,,,,,,,,down,1,1.5023,34,FALSE,FALSE,8,1,33,3,1,,,,,,,
,,,,,,0,2.476413823,#a3d0fb,"[""-0.25"",""0""]",left_blue.png,left,,,,,,,,left,left_blue.png,down_orange.png,down,left,down,60c12fe6ca8c4aa6d0185190,2021-09-11_16h38.19.843,arrow_simon_vert,2021.1.2,Win32,59.88741167,,,,,,,,,,,,,,,,,,,,,left,1,1.9117,35,TRUE,FALSE,8,2,34,2,1,,,,,,,
,,,,,,0,1.686786862,#f3af84,"[""0"",""0.25""]",down_orange.png,down,,,,,,,,left,left_blue.png,down_orange.png,down,right,up,60c12fe6ca8c4aa6d0185190,2021-09-11_16h38.19.843,arrow_simon_vert,2021.1.2,Win32,59.88741167,,,,,,,,,,,,,,,,,,,,,down,1,1.4672,36,FALSE,FALSE,8,3,35,3,1,,,,,,,
,,,,,,0,2.1983721,#a3d0fb,"[""0.25"",""0""]",right_blue.png,right,,,,,,,,right,right_blue.png,up_orange.png,up,right,up,60c12fe6ca8c4aa6d0185190,2021-09-11_16h38.19.843,arrow_simon_vert,2021.1.2,Win32,59.88741167,,,,,,,,,,,,,,,,,,,,,right,1,1.6729,37,TRUE,FALSE,9,0,36,1,1,,,,,,,
,,,,,,0,2.449101116,#f3af84,"[""0"",""-0.25""]",up_orange.png,up,,,,,,,,right,right_blue.png,up_orange.png,up,left,down,60c12fe6ca8c4aa6d0185190,2021-09-11_16h38.19.843,arrow_simon_vert,2021.1.2,Win32,59.88741167,,,,,,,,,,,,,,,,,,,,,down,0,1.6822,38,TRUE,FALSE,9,1,37,0,1,,,,,,,
,,,,,,0,1.837367769,#a3d0fb,"[""-0.25"",""0""]",left_blue.png,left,,,,,,,,left,left_blue.png,down_orange.png,down,left,down,60c12fe6ca8c4aa6d0185190,2021-09-11_16h38.19.843,arrow_simon_vert,2021.1.2,Win32,59.88741167,,,,,,,,,,,,,,,,,,,,,left,1,1.4743,39,FALSE,FALSE,9,2,38,2,1,,,,,,,
,,,,,,0,2.32848104,#f3af84,"[""0"",""-0.25""]",down_orange.png,down,,,,,,,,left,left_blue.png,down_orange.png,down,left,down,60c12fe6ca8c4aa6d0185190,2021-09-11_16h38.19.843,arrow_simon_vert,2021.1.2,Win32,59.88741167,,,,,,,,,,,,,,,,,,,,,down,1,1.8159,40,TRUE,FALSE,9,3,39,2,1,,,,,,,
,,,,,,0,1.733562924,#a3d0fb,"[""0.25"",""0""]",right_blue.png,right,,,,,,,,right,right_blue.png,up_orange.png,up,right,up,60c12fe6ca8c4aa6d0185190,2021-09-11_16h38.19.843,arrow_simon_vert,2021.1.2,Win32,59.88741167,,,,,,,,,,,,,,,,,,,,,right,1,1.35,41,FALSE,TRUE,10,0,40,1,1,,,,,,,
,,,,,,0,1.743038045,#f3af84,"[""0"",""-0.25""]",up_orange.png,up,,,,,,,,right,right_blue.png,up_orange.png,up,left,down,60c12fe6ca8c4aa6d0185190,2021-09-11_16h38.19.843,arrow_simon_vert,2021.1.2,Win32,59.88741167,,,,,,,,,,,,,,,,,,,,,up,1,1.4852,42,FALSE,FALSE,10,1,41,0,1,,,,,,,
,,,,,,0,1.62972735,#a3d0fb,"[""0.25"",""0""]",left_blue.png,left,,,,,,,,left,left_blue.png,down_orange.png,down,right,up,60c12fe6ca8c4aa6d0185190,2021-09-11_16h38.19.843,arrow_simon_vert,2021.1.2,Win32,59.88741167,,,,,,,,,,,,,,,,,,,,,left,1,1.4648,43,FALSE,FALSE,10,2,42,3,1,,,,,,,
,,,,,,0,1.604058547,#f3af84,"[""0"",""-0.25""]",down_orange.png,down,,,,,,,,left,left_blue.png,down_orange.png,down,left,down,60c12fe6ca8c4aa6d0185190,2021-09-11_16h38.19.843,arrow_simon_vert,2021.1.2,Win32,59.88741167,,,,,,,,,,,,,,,,,,,,,down,1,1.4506,44,FALSE,FALSE,10,3,43,2,1,,,,,,,
,,,,,,0,2.029587716,#a3d0fb,"[""0.25"",""0""]",right_blue.png,right,,,,,,,,right,right_blue.png,up_orange.png,up,right,up,60c12fe6ca8c4aa6d0185190,2021-09-11_16h38.19.843,arrow_simon_vert,2021.1.2,Win32,59.88741167,,,,,,,,,,,,,,,,,,,,,right,1,1.599,45,FALSE,FALSE,11,0,44,1,1,,,,,,,
,,,,,,0,2.21767256,#f3af84,"[""0"",""0.25""]",up_orange.png,up,,,,,,,,right,right_blue.png,up_orange.png,up,right,up,60c12fe6ca8c4aa6d0185190,2021-09-11_16h38.19.843,arrow_simon_vert,2021.1.2,Win32,59.88741167,,,,,,,,,,,,,,,,,,,,,up,1,1.778,46,TRUE,FALSE,11,1,45,1,1,,,,,,,
,,,,,,0,2.123073261,#a3d0fb,"[""0.25"",""0""]",left_blue.png,left,,,,,,,,left,left_blue.png,down_orange.png,down,right,up,60c12fe6ca8c4aa6d0185190,2021-09-11_16h38.19.843,arrow_simon_vert,2021.1.2,Win32,59.88741167,,,,,,,,,,,,,,,,,,,,,left,1,1.5321,47,FALSE,FALSE,11,2,46,3,1,,,,,,,
,,,,,,0,2.351436473,#f3af84,"[""0"",""0.25""]",down_orange.png,down,,,,,,,,left,left_blue.png,down_orange.png,down,right,up,60c12fe6ca8c4aa6d0185190,2021-09-11_16h38.19.843,arrow_simon_vert,2021.1.2,Win32,59.88741167,,,,,,,,,,,,,,,,,,,,,down,1,1.7158,48,TRUE,FALSE,11,3,47,3,1,,,,,,,
,,,,,,0,2.073751234,#a3d0fb,"[""-0.25"",""0""]",left_blue.png,left,,,,,,,,left,left_blue.png,down_orange.png,down,left,down,60c12fe6ca8c4aa6d0185190,2021-09-11_16h38.19.843,arrow_simon_vert,2021.1.2,Win32,59.88741167,,,,,,,,,,,,,,,,,,,,,left,1,1.4623,49,FALSE,FALSE,12,0,48,2,1,,,,,,,
,,,,,,0,2.098027046,#f3af84,"[""0"",""-0.25""]",up_orange.png,up,,,,,,,,right,right_blue.png,up_orange.png,up,left,down,60c12fe6ca8c4aa6d0185190,2021-09-11_16h38.19.843,arrow_simon_vert,2021.1.2,Win32,59.88741167,,,,,,,,,,,,,,,,,,,,,up,1,1.5887,50,FALSE,FALSE,12,1,49,0,1,,,,,,,
,,,,,,1,2.047402491,#a3d0fb,"[""-0.25"",""0""]",right_blue.png,right,,,,,,,,right,right_blue.png,up_orange.png,up,left,down,60c12fe6ca8c4aa6d0185190,2021-09-11_16h38.19.843,arrow_simon_vert,2021.1.2,Win32,59.88741167,,,,,,,,,,,,,,,,,,,,,left,0,1.4359,51,FALSE,FALSE,12,2,50,0,1,,,,,,,
,,,,,,1,2.474962383,#f3af84,"[""0"",""0.25""]",down_orange.png,down,,,,,,,,left,left_blue.png,down_orange.png,down,right,up,60c12fe6ca8c4aa6d0185190,2021-09-11_16h38.19.843,arrow_simon_vert,2021.1.2,Win32,59.88741167,,,,,,,,,,,,,,,,,,,,,down,1,1.9247,52,TRUE,FALSE,12,3,51,3,1,,,,,,,
,,,,,,1,1.768255595,#a3d0fb,"[""-0.25"",""0""]",left_blue.png,left,,,,,,,,left,left_blue.png,down_orange.png,down,left,down,60c12fe6ca8c4aa6d0185190,2021-09-11_16h38.19.843,arrow_simon_vert,2021.1.2,Win32,59.88741167,,,,,,,,,,,,,,,,,,,,,left,1,1.3328,53,FALSE,TRUE,13,0,52,2,1,,,,,,,
,,,,,,0,1.657751609,#f3af84,"[""0"",""-0.25""]",up_orange.png,up,,,,,,,,right,right_blue.png,up_orange.png,up,left,down,60c12fe6ca8c4aa6d0185190,2021-09-11_16h38.19.843,arrow_simon_vert,2021.1.2,Win32,59.88741167,,,,,,,,,,,,,,,,,,,,,up,1,1.4598,54,FALSE,FALSE,13,1,53,0,1,,,,,,,
,,,,,,0,2.024369421,#a3d0fb,"[""-0.25"",""0""]",right_blue.png,right,,,,,,,,right,right_blue.png,up_orange.png,up,left,down,60c12fe6ca8c4aa6d0185190,2021-09-11_16h38.19.843,arrow_simon_vert,2021.1.2,Win32,59.88741167,,,,,,,,,,,,,,,,,,,,,right,1,1.5689,55,FALSE,FALSE,13,2,54,0,1,,,,,,,
,,,,,,0,2.092688406,#f3af84,"[""0"",""-0.25""]",down_orange.png,down,,,,,,,,left,left_blue.png,down_orange.png,down,left,down,60c12fe6ca8c4aa6d0185190,2021-09-11_16h38.19.843,arrow_simon_vert,2021.1.2,Win32,59.88741167,,,,,,,,,,,,,,,,,,,,,down,1,1.5852,56,FALSE,FALSE,13,3,55,2,1,,,,,,,
,,,,,,0,1.809817552,#a3d0fb,"[""-0.25"",""0""]",right_blue.png,right,,,,,,,,right,right_blue.png,up_orange.png,up,left,down,60c12fe6ca8c4aa6d0185190,2021-09-11_16h38.19.843,arrow_simon_vert,2021.1.2,Win32,59.88741167,,,,,,,,,,,,,,,,,,,,,right,1,1.458,57,FALSE,FALSE,14,0,56,0,1,,,,,,,
,,,,,,0,1.62949453,#f3af84,"[""0"",""0.25""]",down_orange.png,down,,,,,,,,left,left_blue.png,down_orange.png,down,right,up,60c12fe6ca8c4aa6d0185190,2021-09-11_16h38.19.843,arrow_simon_vert,2021.1.2,Win32,59.88741167,,,,,,,,,,,,,,,,,,,,,down,1,1.4045,58,FALSE,FALSE,14,1,57,3,1,,,,,,,
,,,,,,0,1.738839562,#a3d0fb,"[""-0.25"",""0""]",right_blue.png,right,,,,,,,,right,right_blue.png,up_orange.png,up,left,down,60c12fe6ca8c4aa6d0185190,2021-09-11_16h38.19.843,arrow_simon_vert,2021.1.2,Win32,59.88741167,,,,,,,,,,,,,,,,,,,,,right,1,1.4267,59,FALSE,FALSE,14,2,58,0,1,,,,,,,
,,,,,,0,1.769246696,#f3af84,"[""0"",""-0.25""]",down_orange.png,down,,,,,,,,left,left_blue.png,down_orange.png,down,left,down,60c12fe6ca8c4aa6d0185190,2021-09-11_16h38.19.843,arrow_simon_vert,2021.1.2,Win32,59.88741167,,,,,,,,,,,,,,,,,,,,,down,1,1.4093,60,FALSE,FALSE,14,3,59,2,1,,,,,,,
,,,,,,,,,,,,,,,,,,,,,,,,,60c12fe6ca8c4aa6d0185190,2021-09-11_16h38.19.843,arrow_simon_vert,2021.1.2,Win32,59.88741167,,,,,,,,,,,,,,,,,,,,,,,,,,,,,,,,space,2.0102,1,0,1,0,1
,,,,,,0,1.710253268,#a3d0fb,"[""-0.25"",""0""]",left_blue.png,left,,,,,,,,left,left_blue.png,down_orange.png,down,left,down,60c12fe6ca8c4aa6d0185190,2021-09-11_16h38.19.843,arrow_simon_vert,2021.1.2,Win32,59.88741167,,,,,,,,,,,,,,,,,,,,,left,1,1.4824,1,FALSE,FALSE,0,0,0,2,1,,,,,,,
,,,,,,0,2.009520523,#f3af84,"[""0"",""-0.25""]",up_orange.png,up,,,,,,,,right,right_blue.png,up_orange.png,up,left,down,60c12fe6ca8c4aa6d0185190,2021-09-11_16h38.19.843,arrow_simon_vert,2021.1.2,Win32,59.88741167,,,,,,,,,,,,,,,,,,,,,up,1,1.5964,2,FALSE,FALSE,0,1,1,0,1,,,,,,,
,,,,,,0,1.973702601,#a3d0fb,"[""0.25"",""0""]",left_blue.png,left,,,,,,,,left,left_blue.png,down_orange.png,down,right,up,60c12fe6ca8c4aa6d0185190,2021-09-11_16h38.19.843,arrow_simon_vert,2021.1.2,Win32,59.88741167,,,,,,,,,,,,,,,,,,,,,left,1,1.6076,3,TRUE,FALSE,0,2,2,3,1,,,,,,,
,,,,,,0,2.067226177,#f3af84,"[""0"",""0.25""]",down_orange.png,down,,,,,,,,left,left_blue.png,down_orange.png,down,right,up,60c12fe6ca8c4aa6d0185190,2021-09-11_16h38.19.843,arrow_simon_vert,2021.1.2,Win32,59.88741167,,,,,,,,,,,,,,,,,,,,,down,1,1.5992,4,FALSE,FALSE,0,3,3,3,1,,,,,,,
,,,,,,0,1.980689386,#a3d0fb,"[""-0.25"",""0""]",right_blue.png,right,,,,,,,,right,right_blue.png,up_orange.png,up,left,down,60c12fe6ca8c4aa6d0185190,2021-09-11_16h38.19.843,arrow_simon_vert,2021.1.2,Win32,59.88741167,,,,,,,,,,,,,,,,,,,,,right,1,1.5393,5,FALSE,FALSE,1,0,4,0,1,,,,,,,
,,,,,,0,1.581867296,#f3af84,"[""0"",""0.25""]",down_orange.png,down,,,,,,,,left,left_blue.png,down_orange.png,down,right,up,60c12fe6ca8c4aa6d0185190,2021-09-11_16h38.19.843,arrow_simon_vert,2021.1.2,Win32,59.88741167,,,,,,,,,,,,,,,,,,,,,down,1,1.4517,6,FALSE,FALSE,1,1,5,3,1,,,,,,,
,,,,,,0,1.880951492,#a3d0fb,"[""-0.25"",""0""]",right_blue.png,right,,,,,,,,right,right_blue.png,up_orange.png,up,left,down,60c12fe6ca8c4aa6d0185190,2021-09-11_16h38.19.843,arrow_simon_vert,2021.1.2,Win32,59.88741167,,,,,,,,,,,,,,,,,,,,,right,1,1.5022,7,FALSE,FALSE,1,2,6,0,1,,,,,,,
,,,,,,0,2.295307908,#f3af84,"[""0"",""-0.25""]",up_orange.png,up,,,,,,,,right,right_blue.png,up_orange.png,up,left,down,60c12fe6ca8c4aa6d0185190,2021-09-11_16h38.19.843,arrow_simon_vert,2021.1.2,Win32,59.88741167,,,,,,,,,,,,,,,,,,,,,down,0,1.6709,8,TRUE,FALSE,1,3,7,0,1,,,,,,,
,,,,,,0,1.545579684,#a3d0fb,"[""0.25"",""0""]",right_blue.png,right,,,,,,,,right,right_blue.png,up_orange.png,up,right,up,60c12fe6ca8c4aa6d0185190,2021-09-11_16h38.19.843,arrow_simon_vert,2021.1.2,Win32,59.88741167,,,,,,,,,,,,,,,,,,,,,right,1,1.4373,9,FALSE,FALSE,2,0,8,1,1,,,,,,,
,,,,,,0,1.780112454,#f3af84,"[""0"",""-0.25""]",down_orange.png,down,,,,,,,,left,left_blue.png,down_orange.png,down,left,down,60c12fe6ca8c4aa6d0185190,2021-09-11_16h38.19.843,arrow_simon_vert,2021.1.2,Win32,59.88741167,,,,,,,,,,,,,,,,,,,,,down,1,1.4528,10,FALSE,FALSE,2,1,9,2,1,,,,,,,
,,,,,,0,1.897450874,#a3d0fb,"[""-0.25"",""0""]",right_blue.png,right,,,,,,,,right,right_blue.png,up_orange.png,up,left,down,60c12fe6ca8c4aa6d0185190,2021-09-11_16h38.19.843,arrow_simon_vert,2021.1.2,Win32,59.88741167,,,,,,,,,,,,,,,,,,,,,right,1,1.5271,11,FALSE,FALSE,2,2,10,0,1,,,,,,,
,,,,,,0,1.959675044,#f3af84,"[""0"",""-0.25""]",down_orange.png,down,,,,,,,,left,left_blue.png,down_orange.png,down,left,down,60c12fe6ca8c4aa6d0185190,2021-09-11_16h38.19.843,arrow_simon_vert,2021.1.2,Win32,59.88741167,,,,,,,,,,,,,,,,,,,,,down,1,1.5656,12,FALSE,FALSE,2,3,11,2,1,,,,,,,
,,,,,,0,1.951222762,#a3d0fb,"[""0.25"",""0""]",right_blue.png,right,,,,,,,,right,right_blue.png,up_orange.png,up,right,up,60c12fe6ca8c4aa6d0185190,2021-09-11_16h38.19.843,arrow_simon_vert,2021.1.2,Win32,59.88741167,,,,,,,,,,,,,,,,,,,,,right,1,1.4754,13,FALSE,FALSE,3,0,12,1,1,,,,,,,
,,,,,,0,2.184565085,#f3af84,"[""0"",""-0.25""]",down_orange.png,down,,,,,,,,left,left_blue.png,down_orange.png,down,left,down,60c12fe6ca8c4aa6d0185190,2021-09-11_16h38.19.843,arrow_simon_vert,2021.1.2,Win32,59.88741167,,,,,,,,,,,,,,,,,,,,,down,1,1.5757,14,FALSE,FALSE,3,1,13,2,1,,,,,,,
,,,,,,0,2.282316409,#a3d0fb,"[""0.25"",""0""]",right_blue.png,right,,,,,,,,right,right_blue.png,up_orange.png,up,right,up,60c12fe6ca8c4aa6d0185190,2021-09-11_16h38.19.843,arrow_simon_vert,2021.1.2,Win32,59.88741167,,,,,,,,,,,,,,,,,,,,,right,1,1.6497,15,TRUE,FALSE,3,2,14,1,1,,,,,,,
,,,,,,0,2.037408689,#f3af84,"[""0"",""-0.25""]",down_orange.png,down,,,,,,,,left,left_blue.png,down_orange.png,down,left,down,60c12fe6ca8c4aa6d0185190,2021-09-11_16h38.19.843,arrow_simon_vert,2021.1.2,Win32,59.88741167,,,,,,,,,,,,,,,,,,,,,down,1,1.5089,16,FALSE,FALSE,3,3,15,2,1,,,,,,,
,,,,,,0,1.639018562,#a3d0fb,"[""0.25"",""0""]",left_blue.png,left,,,,,,,,left,left_blue.png,down_orange.png,down,right,up,60c12fe6ca8c4aa6d0185190,2021-09-11_16h38.19.843,arrow_simon_vert,2021.1.2,Win32,59.88741167,,,,,,,,,,,,,,,,,,,,,left,1,1.4448,17,FALSE,FALSE,4,0,16,3,1,,,,,,,
,,,,,,0,2.371765863,#f3af84,"[""0"",""0.25""]",up_orange.png,up,,,,,,,,right,right_blue.png,up_orange.png,up,right,up,60c12fe6ca8c4aa6d0185190,2021-09-11_16h38.19.843,arrow_simon_vert,2021.1.2,Win32,59.88741167,,,,,,,,,,,,,,,,,,,,,up,1,1.8488,18,TRUE,FALSE,4,1,17,1,1,,,,,,,
,,,,,,0,1.886629331,#a3d0fb,"[""-0.25"",""0""]",right_blue.png,right,,,,,,,,right,right_blue.png,up_orange.png,up,left,down,60c12fe6ca8c4aa6d0185190,2021-09-11_16h38.19.843,arrow_simon_vert,2021.1.2,Win32,59.88741167,,,,,,,,,,,,,,,,,,,,,right,1,1.5011,19,FALSE,FALSE,4,2,18,0,1,,,,,,,
,,,,,,0,2.397928094,#f3af84,"[""0"",""-0.25""]",up_orange.png,up,,,,,,,,right,right_blue.png,up_orange.png,up,left,down,60c12fe6ca8c4aa6d0185190,2021-09-11_16h38.19.843,arrow_simon_vert,2021.1.2,Win32,59.88741167,,,,,,,,,,,,,,,,,,,,,up,1,1.7985,20,TRUE,FALSE,4,3,19,0,1,,,,,,,
,,,,,,0,2.481400116,#a3d0fb,"[""0.25"",""0""]",left_blue.png,left,,,,,,,,left,left_blue.png,down_orange.png,down,right,up,60c12fe6ca8c4aa6d0185190,2021-09-11_16h38.19.843,arrow_simon_vert,2021.1.2,Win32,59.88741167,,,,,,,,,,,,,,,,,,,,,left,1,1.9004,21,TRUE,FALSE,5,0,20,3,1,,,,,,,
,,,,,,0,1.751228157,#f3af84,"[""0"",""0.25""]",down_orange.png,down,,,,,,,,left,left_blue.png,down_orange.png,down,right,up,60c12fe6ca8c4aa6d0185190,2021-09-11_16h38.19.843,arrow_simon_vert,2021.1.2,Win32,59.88741167,,,,,,,,,,,,,,,,,,,,,down,1,1.3079,22,FALSE,TRUE,5,1,21,3,1,,,,,,,
,,,,,,0,2.290760605,#a3d0fb,"[""-0.25"",""0""]",left_blue.png,left,,,,,,,,left,left_blue.png,down_orange.png,down,left,down,60c12fe6ca8c4aa6d0185190,2021-09-11_16h38.19.843,arrow_simon_vert,2021.1.2,Win32,59.88741167,,,,,,,,,,,,,,,,,,,,,left,1,1.593,23,FALSE,FALSE,5,2,22,2,1,,,,,,,
,,,,,,0,2.167665971,#f3af84,"[""0"",""-0.25""]",up_orange.png,up,,,,,,,,right,right_blue.png,up_orange.png,up,left,down,60c12fe6ca8c4aa6d0185190,2021-09-11_16h38.19.843,arrow_simon_vert,2021.1.2,Win32,59.88741167,,,,,,,,,,,,,,,,,,,,,up,1,1.6983,24,TRUE,FALSE,5,3,23,0,1,,,,,,,
,,,,,,0,2.335901973,#a3d0fb,"[""-0.25"",""0""]",left_blue.png,left,,,,,,,,left,left_blue.png,down_orange.png,down,left,down,60c12fe6ca8c4aa6d0185190,2021-09-11_16h38.19.843,arrow_simon_vert,2021.1.2,Win32,59.88741167,,,,,,,,,,,,,,,,,,,,,left,1,1.7543,25,TRUE,FALSE,6,0,24,2,1,,,,,,,
,,,,,,0,2.126247043,#f3af84,"[""0"",""-0.25""]",down_orange.png,down,,,,,,,,left,left_blue.png,down_orange.png,down,left,down,60c12fe6ca8c4aa6d0185190,2021-09-11_16h38.19.843,arrow_simon_vert,2021.1.2,Win32,59.88741167,,,,,,,,,,,,,,,,,,,,,down,1,1.5444,26,FALSE,FALSE,6,1,25,2,1,,,,,,,
,,,,,,0,1.755649514,#a3d0fb,"[""0.25"",""0""]",right_blue.png,right,,,,,,,,right,right_blue.png,up_orange.png,up,right,up,60c12fe6ca8c4aa6d0185190,2021-09-11_16h38.19.843,arrow_simon_vert,2021.1.2,Win32,59.88741167,,,,,,,,,,,,,,,,,,,,,right,1,1.275,27,FALSE,TRUE,6,2,26,1,1,,,,,,,
,,,,,,0,2.014051601,#f3af84,"[""0"",""-0.25""]",up_orange.png,up,,,,,,,,right,right_blue.png,up_orange.png,up,left,down,60c12fe6ca8c4aa6d0185190,2021-09-11_16h38.19.843,arrow_simon_vert,2021.1.2,Win32,59.88741167,,,,,,,,,,,,,,,,,,,,,up,1,1.5989,28,FALSE,FALSE,6,3,27,0,1,,,,,,,
,,,,,,0,1.609602891,#a3d0fb,"[""0.25"",""0""]",right_blue.png,right,,,,,,,,right,right_blue.png,up_orange.png,up,right,up,60c12fe6ca8c4aa6d0185190,2021-09-11_16h38.19.843,arrow_simon_vert,2021.1.2,Win32,59.88741167,,,,,,,,,,,,,,,,,,,,,right,1,1.5552,29,FALSE,FALSE,7,0,28,1,1,,,,,,,
,,,,,,0,1.651956345,#f3af84,"[""0"",""0.25""]",down_orange.png,down,,,,,,,,left,left_blue.png,down_orange.png,down,right,up,60c12fe6ca8c4aa6d0185190,2021-09-11_16h38.19.843,arrow_simon_vert,2021.1.2,Win32,59.88741167,,,,,,,,,,,,,,,,,,,,,down,1,1.4319,30,FALSE,FALSE,7,1,29,3,1,,,,,,,
,,,,,,0,1.82206453,#a3d0fb,"[""0.25"",""0""]",right_blue.png,right,,,,,,,,right,right_blue.png,up_orange.png,up,right,up,60c12fe6ca8c4aa6d0185190,2021-09-11_16h38.19.843,arrow_simon_vert,2021.1.2,Win32,59.88741167,,,,,,,,,,,,,,,,,,,,,right,1,1.5321,31,FALSE,FALSE,7,2,30,1,1,,,,,,,
,,,,,,0,2.233058938,#f3af84,"[""0"",""0.25""]",up_orange.png,up,,,,,,,,right,right_blue.png,up_orange.png,up,right,up,60c12fe6ca8c4aa6d0185190,2021-09-11_16h38.19.843,arrow_simon_vert,2021.1.2,Win32,59.88741167,,,,,,,,,,,,,,,,,,,,,up,1,1.6338,32,TRUE,FALSE,7,3,31,1,1,,,,,,,
,,,,,,0,1.918573996,#a3d0fb,"[""0.25"",""0""]",right_blue.png,right,,,,,,,,right,right_blue.png,up_orange.png,up,right,up,60c12fe6ca8c4aa6d0185190,2021-09-11_16h38.19.843,arrow_simon_vert,2021.1.2,Win32,59.88741167,,,,,,,,,,,,,,,,,,,,,right,1,1.5089,33,FALSE,FALSE,8,0,32,1,1,,,,,,,
,,,,,,0,1.797773353,#f3af84,"[""0"",""0.25""]",down_orange.png,down,,,,,,,,left,left_blue.png,down_orange.png,down,right,up,60c12fe6ca8c4aa6d0185190,2021-09-11_16h38.19.843,arrow_simon_vert,2021.1.2,Win32,59.88741167,,,,,,,,,,,,,,,,,,,,,down,1,1.3987,34,FALSE,TRUE,8,1,33,3,1,,,,,,,
,,,,,,0,2.405221295,#a3d0fb,"[""-0.25"",""0""]",left_blue.png,left,,,,,,,,left,left_blue.png,down_orange.png,down,left,down,60c12fe6ca8c4aa6d0185190,2021-09-11_16h38.19.843,arrow_simon_vert,2021.1.2,Win32,59.88741167,,,,,,,,,,,,,,,,,,,,,left,1,1.6615,35,TRUE,FALSE,8,2,34,2,1,,,,,,,
,,,,,,0,1.67987912,#f3af84,"[""0"",""0.25""]",up_orange.png,up,,,,,,,,right,right_blue.png,up_orange.png,up,right,up,60c12fe6ca8c4aa6d0185190,2021-09-11_16h38.19.843,arrow_simon_vert,2021.1.2,Win32,59.88741167,,,,,,,,,,,,,,,,,,,,,up,1,1.4604,36,FALSE,FALSE,8,3,35,1,1,,,,,,,
,,,,,,0,2.062039738,#a3d0fb,"[""-0.25"",""0""]",right_blue.png,right,,,,,,,,right,right_blue.png,up_orange.png,up,left,down,60c12fe6ca8c4aa6d0185190,2021-09-11_16h38.19.843,arrow_simon_vert,2021.1.2,Win32,59.88741167,,,,,,,,,,,,,,,,,,,,,right,1,1.6131,37,TRUE,FALSE,9,0,36,0,1,,,,,,,
,,,,,,0,1.708841591,#f3af84,"[""0"",""-0.25""]",down_orange.png,down,,,,,,,,left,left_blue.png,down_orange.png,down,left,down,60c12fe6ca8c4aa6d0185190,2021-09-11_16h38.19.843,arrow_simon_vert,2021.1.2,Win32,59.88741167,,,,,,,,,,,,,,,,,,,,,down,1,1.4994,38,FALSE,FALSE,9,1,37,2,1,,,,,,,
,,,,,,0,2.095487494,#a3d0fb,"[""0.25"",""0""]",right_blue.png,right,,,,,,,,right,right_blue.png,up_orange.png,up,right,up,60c12fe6ca8c4aa6d0185190,2021-09-11_16h38.19.843,arrow_simon_vert,2021.1.2,Win32,59.88741167,,,,,,,,,,,,,,,,,,,,,right,1,1.7177,39,TRUE,FALSE,9,2,38,1,1,,,,,,,
,,,,,,0,1.848458051,#f3af84,"[""0"",""-0.25""]",down_orange.png,down,,,,,,,,left,left_blue.png,down_orange.png,down,left,down,60c12fe6ca8c4aa6d0185190,2021-09-11_16h38.19.843,arrow_simon_vert,2021.1.2,Win32,59.88741167,,,,,,,,,,,,,,,,,,,,,down,1,1.6199,40,TRUE,FALSE,9,3,39,2,1,,,,,,,
,,,,,,0,1.594976542,#a3d0fb,"[""0.25"",""0""]",right_blue.png,right,,,,,,,,right,right_blue.png,up_orange.png,up,right,up,60c12fe6ca8c4aa6d0185190,2021-09-11_16h38.19.843,arrow_simon_vert,2021.1.2,Win32,59.88741167,,,,,,,,,,,,,,,,,,,,,right,1,1.433,41,FALSE,FALSE,10,0,40,1,1,,,,,,,
,,,,,,0,1.967849934,#f3af84,"[""0"",""0.25""]",down_orange.png,down,,,,,,,,left,left_blue.png,down_orange.png,down,right,up,60c12fe6ca8c4aa6d0185190,2021-09-11_16h38.19.843,arrow_simon_vert,2021.1.2,Win32,59.88741167,,,,,,,,,,,,,,,,,,,,,down,1,1.582,42,FALSE,FALSE,10,1,41,3,1,,,,,,,
,,,,,,0,2.328130386,#a3d0fb,"[""-0.25"",""0""]",right_blue.png,right,,,,,,,,right,right_blue.png,up_orange.png,up,left,down,60c12fe6ca8c4aa6d0185190,2021-09-11_16h38.19.843,arrow_simon_vert,2021.1.2,Win32,59.88741167,,,,,,,,,,,,,,,,,,,,,left,0,1.7509,43,TRUE,FALSE,10,2,42,0,1,,,,,,,
,,,,,,0,1.601843046,#f3af84,"[""0"",""0.25""]",up_orange.png,up,,,,,,,,right,right_blue.png,up_orange.png,up,right,up,60c12fe6ca8c4aa6d0185190,2021-09-11_16h38.19.843,arrow_simon_vert,2021.1.2,Win32,59.88741167,,,,,,,,,,,,,,,,,,,,,up,1,1.471,44,FALSE,FALSE,10,3,43,1,1,,,,,,,
,,,,,,0,1.611328258,#a3d0fb,"[""-0.25"",""0""]",right_blue.png,right,,,,,,,,right,right_blue.png,up_orange.png,up,left,down,60c12fe6ca8c4aa6d0185190,2021-09-11_16h38.19.843,arrow_simon_vert,2021.1.2,Win32,59.88741167,,,,,,,,,,,,,,,,,,,,,right,1,1.4826,45,FALSE,FALSE,11,0,44,0,1,,,,,,,
,,,,,,0,2.338399964,#f3af84,"[""0"",""0.25""]",down_orange.png,down,,,,,,,,left,left_blue.png,down_orange.png,down,right,up,60c12fe6ca8c4aa6d0185190,2021-09-11_16h38.19.843,arrow_simon_vert,2021.1.2,Win32,59.88741167,,,,,,,,,,,,,,,,,,,,,up,0,1.6652,46,TRUE,FALSE,11,1,45,3,1,,,,,,,
,,,,,,0,1.646190823,#a3d0fb,"[""0.25"",""0""]",left_blue.png,left,,,,,,,,left,left_blue.png,down_orange.png,down,right,up,60c12fe6ca8c4aa6d0185190,2021-09-11_16h38.19.843,arrow_simon_vert,2021.1.2,Win32,59.88741167,,,,,,,,,,,,,,,,,,,,,left,1,1.4382,47,FALSE,FALSE,11,2,46,3,1,,,,,,,
,,,,,,0,1.825740102,#f3af84,"[""0"",""-0.25""]",up_orange.png,up,,,,,,,,right,right_blue.png,up_orange.png,up,left,down,60c12fe6ca8c4aa6d0185190,2021-09-11_16h38.19.843,arrow_simon_vert,2021.1.2,Win32,59.88741167,,,,,,,,,,,,,,,,,,,,,up,1,1.5493,48,FALSE,FALSE,11,3,47,0,1,,,,,,,
,,,,,,0,2.238158966,#a3d0fb,"[""0.25"",""0""]",left_blue.png,left,,,,,,,,left,left_blue.png,down_orange.png,down,right,up,60c12fe6ca8c4aa6d0185190,2021-09-11_16h38.19.843,arrow_simon_vert,2021.1.2,Win32,59.88741167,,,,,,,,,,,,,,,,,,,,,left,1,1.7546,49,TRUE,FALSE,12,0,48,3,1,,,,,,,
,,,,,,0,1.815797099,#f3af84,"[""0"",""0.25""]",down_orange.png,down,,,,,,,,left,left_blue.png,down_orange.png,down,right,up,60c12fe6ca8c4aa6d0185190,2021-09-11_16h38.19.843,arrow_simon_vert,2021.1.2,Win32,59.88741167,,,,,,,,,,,,,,,,,,,,,down,1,1.5276,50,FALSE,FALSE,12,1,49,3,1,,,,,,,
,,,,,,0,1.676991254,#a3d0fb,"[""-0.25"",""0""]",left_blue.png,left,,,,,,,,left,left_blue.png,down_orange.png,down,left,down,60c12fe6ca8c4aa6d0185190,2021-09-11_16h38.19.843,arrow_simon_vert,2021.1.2,Win32,59.88741167,,,,,,,,,,,,,,,,,,,,,left,1,1.5154,51,FALSE,FALSE,12,2,50,2,1,,,,,,,
,,,,,,0,1.994807911,#f3af84,"[""0"",""-0.25""]",down_orange.png,down,,,,,,,,left,left_blue.png,down_orange.png,down,left,down,60c12fe6ca8c4aa6d0185190,2021-09-11_16h38.19.843,arrow_simon_vert,2021.1.2,Win32,59.88741167,,,,,,,,,,,,,,,,,,,,,down,1,1.6334,52,TRUE,FALSE,12,3,51,2,1,,,,,,,
,,,,,,0,2.24707504,#a3d0fb,"[""-0.25"",""0""]",right_blue.png,right,,,,,,,,right,right_blue.png,up_orange.png,up,left,down,60c12fe6ca8c4aa6d0185190,2021-09-11_16h38.19.843,arrow_simon_vert,2021.1.2,Win32,59.88741167,,,,,,,,,,,,,,,,,,,,,right,1,1.6381,53,TRUE,FALSE,13,0,52,0,1,,,,,,,
,,,,,,0,2.324956009,#f3af84,"[""0"",""0.25""]",down_orange.png,down,,,,,,,,left,left_blue.png,down_orange.png,down,right,up,60c12fe6ca8c4aa6d0185190,2021-09-11_16h38.19.843,arrow_simon_vert,2021.1.2,Win32,59.88741167,,,,,,,,,,,,,,,,,,,,,down,1,1.7192,54,TRUE,FALSE,13,1,53,3,1,,,,,,,
,,,,,,0,2.067103605,#a3d0fb,"[""0.25"",""0""]",right_blue.png,right,,,,,,,,right,right_blue.png,up_orange.png,up,right,up,60c12fe6ca8c4aa6d0185190,2021-09-11_16h38.19.843,arrow_simon_vert,2021.1.2,Win32,59.88741167,,,,,,,,,,,,,,,,,,,,,right,1,1.6265,55,TRUE,FALSE,13,2,54,1,1,,,,,,,
,,,,,,0,2.44559856,#f3af84,"[""0"",""0.25""]",up_orange.png,up,,,,,,,,right,right_blue.png,up_orange.png,up,right,up,60c12fe6ca8c4aa6d0185190,2021-09-11_16h38.19.843,arrow_simon_vert,2021.1.2,Win32,59.88741167,,,,,,,,,,,,,,,,,,,,,up,1,1.7343,56,TRUE,FALSE,13,3,55,1,1,,,,,,,
,,,,,,0,1.585962766,#a3d0fb,"[""-0.25"",""0""]",right_blue.png,right,,,,,,,,right,right_blue.png,up_orange.png,up,left,down,60c12fe6ca8c4aa6d0185190,2021-09-11_16h38.19.843,arrow_simon_vert,2021.1.2,Win32,59.88741167,,,,,,,,,,,,,,,,,,,,,right,1,1.454,57,FALSE,FALSE,14,0,56,0,1,,,,,,,
,,,,,,0,1.864292857,#f3af84,"[""0"",""-0.25""]",down_orange.png,down,,,,,,,,left,left_blue.png,down_orange.png,down,left,down,60c12fe6ca8c4aa6d0185190,2021-09-11_16h38.19.843,arrow_simon_vert,2021.1.2,Win32,59.88741167,,,,,,,,,,,,,,,,,,,,,down,1,1.5313,58,FALSE,FALSE,14,1,57,2,1,,,,,,,
,,,,,,0,1.668756621,#a3d0fb,"[""0.25"",""0""]",left_blue.png,left,,,,,,,,left,left_blue.png,down_orange.png,down,right,up,60c12fe6ca8c4aa6d0185190,2021-09-11_16h38.19.843,arrow_simon_vert,2021.1.2,Win32,59.88741167,,,,,,,,,,,,,,,,,,,,,left,1,1.4877,59,FALSE,FALSE,14,2,58,3,1,,,,,,,
,,,,,,0,2.353772341,#f3af84,"[""0"",""-0.25""]",down_orange.png,down,,,,,,,,left,left_blue.png,down_orange.png,down,left,down,60c12fe6ca8c4aa6d0185190,2021-09-11_16h38.19.843,arrow_simon_vert,2021.1.2,Win32,59.88741167,,,,,,,,,,,,,,,,,,,,,down,1,1.6426,60,TRUE,FALSE,14,3,59,2,1,,,,,,,
,,,,,,,,,,,,,,,,,,,,,,,,,60c12fe6ca8c4aa6d0185190,2021-09-11_16h38.19.843,arrow_simon_vert,2021.1.2,Win32,59.88741167,,,,,,,,,,,,,,,,,,,,,,,,,,,,,,,,space,3.1473,2,0,2,0,1
,,,,,,0,2.202308259,#a3d0fb,"[""-0.25"",""0""]",left_blue.png,left,,,,,,,,left,left_blue.png,down_orange.png,down,left,down,60c12fe6ca8c4aa6d0185190,2021-09-11_16h38.19.843,arrow_simon_vert,2021.1.2,Win32,59.88741167,,,,,,,,,,,,,,,,,,,,,left,1,1.5926,1,FALSE,FALSE,0,0,0,2,1,,,,,,,
,,,,,,0,2.164970617,#f3af84,"[""0"",""-0.25""]",up_orange.png,up,,,,,,,,right,right_blue.png,up_orange.png,up,left,down,60c12fe6ca8c4aa6d0185190,2021-09-11_16h38.19.843,arrow_simon_vert,2021.1.2,Win32,59.88741167,,,,,,,,,,,,,,,,,,,,,up,1,1.6996,2,TRUE,FALSE,0,1,1,0,1,,,,,,,
,,,,,,0,1.518547158,#a3d0fb,"[""-0.25"",""0""]",left_blue.png,left,,,,,,,,left,left_blue.png,down_orange.png,down,left,down,60c12fe6ca8c4aa6d0185190,2021-09-11_16h38.19.843,arrow_simon_vert,2021.1.2,Win32,59.88741167,,,,,,,,,,,,,,,,,,,,,left,1,1.4742,3,FALSE,FALSE,0,2,2,2,1,,,,,,,
,,,,,,0,1.532602088,#f3af84,"[""0"",""0.25""]",down_orange.png,down,,,,,,,,left,left_blue.png,down_orange.png,down,right,up,60c12fe6ca8c4aa6d0185190,2021-09-11_16h38.19.843,arrow_simon_vert,2021.1.2,Win32,59.88741167,,,,,,,,,,,,,,,,,,,,,down,1,1.4001,4,FALSE,FALSE,0,3,3,3,1,,,,,,,
,,,,,,0,2.36655453,#a3d0fb,"[""-0.25"",""0""]",left_blue.png,left,,,,,,,,left,left_blue.png,down_orange.png,down,left,down,60c12fe6ca8c4aa6d0185190,2021-09-11_16h38.19.843,arrow_simon_vert,2021.1.2,Win32,59.88741167,,,,,,,,,,,,,,,,,,,,,left,1,1.7045,5,TRUE,FALSE,1,0,4,2,1,,,,,,,
,,,,,,0,1.754704114,#f3af84,"[""0"",""-0.25""]",up_orange.png,up,,,,,,,,right,right_blue.png,up_orange.png,up,left,down,60c12fe6ca8c4aa6d0185190,2021-09-11_16h38.19.843,arrow_simon_vert,2021.1.2,Win32,59.88741167,,,,,,,,,,,,,,,,,,,,,up,1,1.4861,6,FALSE,FALSE,1,1,5,0,1,,,,,,,
,,,,,,0,2.498202488,#a3d0fb,"[""-0.25"",""0""]",left_blue.png,left,,,,,,,,left,left_blue.png,down_orange.png,down,left,down,60c12fe6ca8c4aa6d0185190,2021-09-11_16h38.19.843,arrow_simon_vert,2021.1.2,Win32,59.88741167,,,,,,,,,,,,,,,,,,,,,down,0,1.7655,7,TRUE,FALSE,1,2,6,2,1,,,,,,,
,,,,,,0,1.928666687,#f3af84,"[""0"",""-0.25""]",up_orange.png,up,,,,,,,,right,right_blue.png,up_orange.png,up,left,down,60c12fe6ca8c4aa6d0185190,2021-09-11_16h38.19.843,arrow_simon_vert,2021.1.2,Win32,59.88741167,,,,,,,,,,,,,,,,,,,,,up,1,1.5665,8,FALSE,FALSE,1,3,7,0,1,,,,,,,
,,,,,,0,1.650670163,#a3d0fb,"[""0.25"",""0""]",left_blue.png,left,,,,,,,,left,left_blue.png,down_orange.png,down,right,up,60c12fe6ca8c4aa6d0185190,2021-09-11_16h38.19.843,arrow_simon_vert,2021.1.2,Win32,59.88741167,,,,,,,,,,,,,,,,,,,,,left,1,1.5251,9,FALSE,FALSE,2,0,8,3,1,,,,,,,
,,,,,,0,2.324640544,#f3af84,"[""0"",""0.25""]",up_orange.png,up,,,,,,,,right,right_blue.png,up_orange.png,up,right,up,60c12fe6ca8c4aa6d0185190,2021-09-11_16h38.19.843,arrow_simon_vert,2021.1.2,Win32,59.88741167,,,,,,,,,,,,,,,,,,,,,up,1,1.7077,10,TRUE,FALSE,2,1,9,1,1,,,,,,,
,,,,,,0,2.412232742,#a3d0fb,"[""-0.25"",""0""]",left_blue.png,left,,,,,,,,left,left_blue.png,down_orange.png,down,left,down,60c12fe6ca8c4aa6d0185190,2021-09-11_16h38.19.843,arrow_simon_vert,2021.1.2,Win32,59.88741167,,,,,,,,,,,,,,,,,,,,,left,1,1.9152,11,TRUE,FALSE,2,2,10,2,1,,,,,,,
,,,,,,0,1.60346471,#f3af84,"[""0"",""0.25""]",down_orange.png,down,,,,,,,,left,left_blue.png,down_orange.png,down,right,up,60c12fe6ca8c4aa6d0185190,2021-09-11_16h38.19.843,arrow_simon_vert,2021.1.2,Win32,59.88741167,,,,,,,,,,,,,,,,,,,,,down,1,1.476,12,FALSE,FALSE,2,3,11,3,1,,,,,,,
,,,,,,0,2.481875739,#a3d0fb,"[""-0.25"",""0""]",right_blue.png,right,,,,,,,,right,right_blue.png,up_orange.png,up,left,down,60c12fe6ca8c4aa6d0185190,2021-09-11_16h38.19.843,arrow_simon_vert,2021.1.2,Win32,59.88741167,,,,,,,,,,,,,,,,,,,,,left,0,1.7182,13,TRUE,FALSE,3,0,12,0,1,,,,,,,
,,,,,,0,1.728008277,#f3af84,"[""0"",""0.25""]",down_orange.png,down,,,,,,,,left,left_blue.png,down_orange.png,down,right,up,60c12fe6ca8c4aa6d0185190,2021-09-11_16h38.19.843,arrow_simon_vert,2021.1.2,Win32,59.88741167,,,,,,,,,,,,,,,,,,,,,down,1,1.4406,14,FALSE,FALSE,3,1,13,3,1,,,,,,,
,,,,,,0,1.972820909,#a3d0fb,"[""0.25"",""0""]",left_blue.png,left,,,,,,,,left,left_blue.png,down_orange.png,down,right,up,60c12fe6ca8c4aa6d0185190,2021-09-11_16h38.19.843,arrow_simon_vert,2021.1.2,Win32,59.88741167,,,,,,,,,,,,,,,,,,,,,left,1,1.6487,15,TRUE,FALSE,3,2,14,3,1,,,,,,,
