instruct_resp_simon.keys,instruct_resp_simon.corr,instruct_resp_simon.rt,trial_resp_simon.keys,trial_resp_simon.corr,trial_resp_simon.rt,kerr,target_onset,target_color,target_pos,target_file,target_resp,trials_train_simon.thisRepN,trials_train_simon.thisTrialN,trials_train_simon.thisN,trials_train_simon.thisIndex,trials_train_simon.ran,odd_target_pos,even_target_pos,odd_target_resp,odd_target_file,even_target_file,even_target_resp,odd_target_side,even_target_side,participant,date,expName,psychopyVersion,OS,frameRate,train_block_note_resp.keys,train_block_note_resp.rt,blocks_train.thisRepN,blocks_train.thisTrialN,blocks_train.thisN,blocks_train.thisIndex,blocks_train.ran,instruct_resp_timing.keys,instruct_resp_timing.corr,instruct_resp_timing.rt,trial_resp_timing.keys,trial_resp_timing.rt,trials_train_timing.thisRepN,trials_train_timing.thisTrialN,trials_train_timing.thisN,trials_train_timing.thisIndex,trials_train_timing.ran,instruct_resp.keys,instruct_resp.corr,instruct_resp.rt,trial_resp.keys,trial_resp.corr,trial_resp.rt,trial_num,too_slow,too_soon,trials.thisRepN,trials.thisTrialN,trials.thisN,trials.thisIndex,trials.ran,block_note_resp.keys,block_note_resp.rt,blocks.thisRepN,blocks.thisTrialN,blocks.thisN,blocks.thisIndex,blocks.ran
space,0,72.7232,right,1,2.3316,0,0.110188917,#a3d0fb,"[""-0.25"",""0""]",right_blue.png,right,0,0,0,0,1,,,right,right_blue.png,up_orange.png,up,left,down,60fcad8b8bac0383c5b9272b,2021-09-11_16h38.29.932,arrow_simon_vert,2021.1.2,Win32,59.81934558,,,,,,,,,,,,,,,,,,,,,,,,,,,,,,,,,,,,,,
,,,up,1,3.1645,0,0.774169253,#f3af84,"[""0"",""0.25""]",up_orange.png,up,0,1,1,1,1,,,right,right_blue.png,up_orange.png,up,right,up,60fcad8b8bac0383c5b9272b,2021-09-11_16h38.29.932,arrow_simon_vert,2021.1.2,Win32,59.81934558,,,,,,,,,,,,,,,,,,,,,,,,,,,,,,,,,,,,,,
,,,right,1,1.3232,0,0.482156429,#a3d0fb,"[""0.25"",""0""]",right_blue.png,right,0,2,2,1,1,,,right,right_blue.png,up_orange.png,up,right,up,60fcad8b8bac0383c5b9272b,2021-09-11_16h38.29.932,arrow_simon_vert,2021.1.2,Win32,59.81934558,,,,,,,,,,,,,,,,,,,,,,,,,,,,,,,,,,,,,,
,,,down,1,1.1357,0,0.387935486,#f3af84,"[""0"",""0.25""]",down_orange.png,down,0,3,3,3,1,,,left,left_blue.png,down_orange.png,down,right,up,60fcad8b8bac0383c5b9272b,2021-09-11_16h38.29.932,arrow_simon_vert,2021.1.2,Win32,59.81934558,,,,,,,,,,,,,,,,,,,,,,,,,,,,,,,,,,,,,,
,,,right,1,1.0001,0,0.355791159,#a3d0fb,"[""0.25"",""0""]",right_blue.png,right,1,0,4,1,1,,,right,right_blue.png,up_orange.png,up,right,up,60fcad8b8bac0383c5b9272b,2021-09-11_16h38.29.932,arrow_simon_vert,2021.1.2,Win32,59.81934558,,,,,,,,,,,,,,,,,,,,,,,,,,,,,,,,,,,,,,
,,,down,1,1.6167,0,0.963189058,#f3af84,"[""0"",""-0.25""]",down_orange.png,down,1,1,5,2,1,,,left,left_blue.png,down_orange.png,down,left,down,60fcad8b8bac0383c5b9272b,2021-09-11_16h38.29.932,arrow_simon_vert,2021.1.2,Win32,59.81934558,,,,,,,,,,,,,,,,,,,,,,,,,,,,,,,,,,,,,,
,,,left,1,1.3493,0,0.863560322,#a3d0fb,"[""-0.25"",""0""]",left_blue.png,left,1,2,6,2,1,,,left,left_blue.png,down_orange.png,down,left,down,60fcad8b8bac0383c5b9272b,2021-09-11_16h38.29.932,arrow_simon_vert,2021.1.2,Win32,59.81934558,,,,,,,,,,,,,,,,,,,,,,,,,,,,,,,,,,,,,,
,,,up,1,1.0445,0,0.145035359,#f3af84,"[""0"",""-0.25""]",up_orange.png,up,1,3,7,0,1,,,right,right_blue.png,up_orange.png,up,left,down,60fcad8b8bac0383c5b9272b,2021-09-11_16h38.29.932,arrow_simon_vert,2021.1.2,Win32,59.81934558,,,,,,,,,,,,,,,,,,,,,,,,,,,,,,,,,,,,,,
,,,right,1,1.5599,0,0.572909768,#a3d0fb,"[""-0.25"",""0""]",right_blue.png,right,2,0,8,0,1,,,right,right_blue.png,up_orange.png,up,left,down,60fcad8b8bac0383c5b9272b,2021-09-11_16h38.29.932,arrow_simon_vert,2021.1.2,Win32,59.81934558,,,,,,,,,,,,,,,,,,,,,,,,,,,,,,,,,,,,,,
,,,down,1,1.738,0,0.913149816,#f3af84,"[""0"",""-0.25""]",down_orange.png,down,2,1,9,2,1,,,left,left_blue.png,down_orange.png,down,left,down,60fcad8b8bac0383c5b9272b,2021-09-11_16h38.29.932,arrow_simon_vert,2021.1.2,Win32,59.81934558,,,,,,,,,,,,,,,,,,,,,,,,,,,,,,,,,,,,,,
,,,left,1,1.5927,0,0.949501788,#a3d0fb,"[""-0.25"",""0""]",left_blue.png,left,2,2,10,2,1,,,left,left_blue.png,down_orange.png,down,left,down,60fcad8b8bac0383c5b9272b,2021-09-11_16h38.29.932,arrow_simon_vert,2021.1.2,Win32,59.81934558,,,,,,,,,,,,,,,,,,,,,,,,,,,,,,,,,,,,,,
,,,down,1,1.2003,0,0.38341686,#f3af84,"[""0"",""0.25""]",down_orange.png,down,2,3,11,3,1,,,left,left_blue.png,down_orange.png,down,right,up,60fcad8b8bac0383c5b9272b,2021-09-11_16h38.29.932,arrow_simon_vert,2021.1.2,Win32,59.81934558,,,,,,,,,,,,,,,,,,,,,,,,,,,,,,,,,,,,,,
,,,left,1,1.1541,0,0.528520917,#a3d0fb,"[""-0.25"",""0""]",left_blue.png,left,3,0,12,2,1,,,left,left_blue.png,down_orange.png,down,left,down,60fcad8b8bac0383c5b9272b,2021-09-11_16h38.29.932,arrow_simon_vert,2021.1.2,Win32,59.81934558,,,,,,,,,,,,,,,,,,,,,,,,,,,,,,,,,,,,,,
,,,up,1,1.5325,0,0.814626824,#f3af84,"[""0"",""-0.25""]",up_orange.png,up,3,1,13,0,1,,,right,right_blue.png,up_orange.png,up,left,down,60fcad8b8bac0383c5b9272b,2021-09-11_16h38.29.932,arrow_simon_vert,2021.1.2,Win32,59.81934558,,,,,,,,,,,,,,,,,,,,,,,,,,,,,,,,,,,,,,
,,,left,1,1.1716,0,0.638662352,#a3d0fb,"[""-0.25"",""0""]",left_blue.png,left,3,2,14,2,1,,,left,left_blue.png,down_orange.png,down,left,down,60fcad8b8bac0383c5b9272b,2021-09-11_16h38.29.932,arrow_simon_vert,2021.1.2,Win32,59.81934558,,,,,,,,,,,,,,,,,,,,,,,,,,,,,,,,,,,,,,
,,,down,1,1.2331,0,0.53168086,#f3af84,"[""0"",""-0.25""]",down_orange.png,down,3,3,15,2,1,,,left,left_blue.png,down_orange.png,down,left,down,60fcad8b8bac0383c5b9272b,2021-09-11_16h38.29.932,arrow_simon_vert,2021.1.2,Win32,59.81934558,,,,,,,,,,,,,,,,,,,,,,,,,,,,,,,,,,,,,,
,,,right,1,1.3042,0,0.507632067,#a3d0fb,"[""-0.25"",""0""]",right_blue.png,right,4,0,16,0,1,,,right,right_blue.png,up_orange.png,up,left,down,60fcad8b8bac0383c5b9272b,2021-09-11_16h38.29.932,arrow_simon_vert,2021.1.2,Win32,59.81934558,,,,,,,,,,,,,,,,,,,,,,,,,,,,,,,,,,,,,,
,,,down,1,1.0431,0,0.297706378,#f3af84,"[""0"",""0.25""]",down_orange.png,down,4,1,17,3,1,,,left,left_blue.png,down_orange.png,down,right,up,60fcad8b8bac0383c5b9272b,2021-09-11_16h38.29.932,arrow_simon_vert,2021.1.2,Win32,59.81934558,,,,,,,,,,,,,,,,,,,,,,,,,,,,,,,,,,,,,,
,,,right,1,1.475,0,0.857511784,#a3d0fb,"[""0.25"",""0""]",right_blue.png,right,4,2,18,1,1,,,right,right_blue.png,up_orange.png,up,right,up,60fcad8b8bac0383c5b9272b,2021-09-11_16h38.29.932,arrow_simon_vert,2021.1.2,Win32,59.81934558,,,,,,,,,,,,,,,,,,,,,,,,,,,,,,,,,,,,,,
,,,down,1,1.5337,0,0.839302028,#f3af84,"[""0"",""-0.25""]",down_orange.png,down,4,3,19,2,1,,,left,left_blue.png,down_orange.png,down,left,down,60fcad8b8bac0383c5b9272b,2021-09-11_16h38.29.932,arrow_simon_vert,2021.1.2,Win32,59.81934558,,,,,,,,,,,,,,,,,,,,,,,,,,,,,,,,,,,,,,
,,,left,1,1.1398,0,0.594341518,#a3d0fb,"[""0.25"",""0""]",left_blue.png,left,5,0,20,3,1,,,left,left_blue.png,down_orange.png,down,right,up,60fcad8b8bac0383c5b9272b,2021-09-11_16h38.29.932,arrow_simon_vert,2021.1.2,Win32,59.81934558,,,,,,,,,,,,,,,,,,,,,,,,,,,,,,,,,,,,,,
,,,up,1,0.7382,0,0.080015955,#f3af84,"[""0"",""0.25""]",up_orange.png,up,5,1,21,1,1,,,right,right_blue.png,up_orange.png,up,right,up,60fcad8b8bac0383c5b9272b,2021-09-11_16h38.29.932,arrow_simon_vert,2021.1.2,Win32,59.81934558,,,,,,,,,,,,,,,,,,,,,,,,,,,,,,,,,,,,,,
,,,right,1,1.6899,0,0.810032259,#a3d0fb,"[""-0.25"",""0""]",right_blue.png,right,5,2,22,0,1,,,right,right_blue.png,up_orange.png,up,left,down,60fcad8b8bac0383c5b9272b,2021-09-11_16h38.29.932,arrow_simon_vert,2021.1.2,Win32,59.81934558,,,,,,,,,,,,,,,,,,,,,,,,,,,,,,,,,,,,,,
,,,up,1,1.4326,0,0.81815807,#f3af84,"[""0"",""0.25""]",up_orange.png,up,5,3,23,1,1,,,right,right_blue.png,up_orange.png,up,right,up,60fcad8b8bac0383c5b9272b,2021-09-11_16h38.29.932,arrow_simon_vert,2021.1.2,Win32,59.81934558,,,,,,,,,,,,,,,,,,,,,,,,,,,,,,,,,,,,,,
,,,left,1,0.6996,0,0.136848643,#a3d0fb,"[""0.25"",""0""]",left_blue.png,left,6,0,24,3,1,,,left,left_blue.png,down_orange.png,down,right,up,60fcad8b8bac0383c5b9272b,2021-09-11_16h38.29.932,arrow_simon_vert,2021.1.2,Win32,59.81934558,,,,,,,,,,,,,,,,,,,,,,,,,,,,,,,,,,,,,,
,,,up,1,1.3175,0,0.806119766,#f3af84,"[""0"",""0.25""]",up_orange.png,up,6,1,25,1,1,,,right,right_blue.png,up_orange.png,up,right,up,60fcad8b8bac0383c5b9272b,2021-09-11_16h38.29.932,arrow_simon_vert,2021.1.2,Win32,59.81934558,,,,,,,,,,,,,,,,,,,,,,,,,,,,,,,,,,,,,,
,,,right,1,1.5236,0,0.883714337,#a3d0fb,"[""-0.25"",""0""]",right_blue.png,right,6,2,26,0,1,,,right,right_blue.png,up_orange.png,up,left,down,60fcad8b8bac0383c5b9272b,2021-09-11_16h38.29.932,arrow_simon_vert,2021.1.2,Win32,59.81934558,,,,,,,,,,,,,,,,,,,,,,,,,,,,,,,,,,,,,,
,,,up,1,1.3997,0,0.673791932,#f3af84,"[""0"",""-0.25""]",up_orange.png,up,6,3,27,0,1,,,right,right_blue.png,up_orange.png,up,left,down,60fcad8b8bac0383c5b9272b,2021-09-11_16h38.29.932,arrow_simon_vert,2021.1.2,Win32,59.81934558,,,,,,,,,,,,,,,,,,,,,,,,,,,,,,,,,,,,,,
,,,right,1,1.1616,0,0.522514982,#a3d0fb,"[""0.25"",""0""]",right_blue.png,right,7,0,28,1,1,,,right,right_blue.png,up_orange.png,up,right,up,60fcad8b8bac0383c5b9272b,2021-09-11_16h38.29.932,arrow_simon_vert,2021.1.2,Win32,59.81934558,,,,,,,,,,,,,,,,,,,,,,,,,,,,,,,,,,,,,,
,,,up,1,0.7436,0,0.058544691,#f3af84,"[""0"",""-0.25""]",up_orange.png,up,7,1,29,0,1,,,right,right_blue.png,up_orange.png,up,left,down,60fcad8b8bac0383c5b9272b,2021-09-11_16h38.29.932,arrow_simon_vert,2021.1.2,Win32,59.81934558,,,,,,,,,,,,,,,,,,,,,,,,,,,,,,,,,,,,,,
,,,right,1,0.6754,0,0.122811872,#a3d0fb,"[""0.25"",""0""]",right_blue.png,right,7,2,30,1,1,,,right,right_blue.png,up_orange.png,up,right,up,60fcad8b8bac0383c5b9272b,2021-09-11_16h38.29.932,arrow_simon_vert,2021.1.2,Win32,59.81934558,,,,,,,,,,,,,,,,,,,,,,,,,,,,,,,,,,,,,,
,,,up,1,1.3829,0,0.834997151,#f3af84,"[""0"",""0.25""]",up_orange.png,up,7,3,31,1,1,,,right,right_blue.png,up_orange.png,up,right,up,60fcad8b8bac0383c5b9272b,2021-09-11_16h38.29.932,arrow_simon_vert,2021.1.2,Win32,59.81934558,,,,,,,,,,,,,,,,,,,,,,,,,,,,,,,,,,,,,,
,,,left,1,1.4039,0,0.90696673,#a3d0fb,"[""0.25"",""0""]",left_blue.png,left,8,0,32,3,1,,,left,left_blue.png,down_orange.png,down,right,up,60fcad8b8bac0383c5b9272b,2021-09-11_16h38.29.932,arrow_simon_vert,2021.1.2,Win32,59.81934558,,,,,,,,,,,,,,,,,,,,,,,,,,,,,,,,,,,,,,
,,,down,1,1.3207,0,0.629049557,#f3af84,"[""0"",""-0.25""]",down_orange.png,down,8,1,33,2,1,,,left,left_blue.png,down_orange.png,down,left,down,60fcad8b8bac0383c5b9272b,2021-09-11_16h38.29.932,arrow_simon_vert,2021.1.2,Win32,59.81934558,,,,,,,,,,,,,,,,,,,,,,,,,,,,,,,,,,,,,,
,,,left,1,1.6052,0,0.887151812,#a3d0fb,"[""0.25"",""0""]",left_blue.png,left,8,2,34,3,1,,,left,left_blue.png,down_orange.png,down,right,up,60fcad8b8bac0383c5b9272b,2021-09-11_16h38.29.932,arrow_simon_vert,2021.1.2,Win32,59.81934558,,,,,,,,,,,,,,,,,,,,,,,,,,,,,,,,,,,,,,
,,,up,1,0.7709,0,0.221613668,#f3af84,"[""0"",""-0.25""]",up_orange.png,up,8,3,35,0,1,,,right,right_blue.png,up_orange.png,up,left,down,60fcad8b8bac0383c5b9272b,2021-09-11_16h38.29.932,arrow_simon_vert,2021.1.2,Win32,59.81934558,,,,,,,,,,,,,,,,,,,,,,,,,,,,,,,,,,,,,,
,,,right,1,1.4247,0,0.689073165,#a3d0fb,"[""0.25"",""0""]",right_blue.png,right,9,0,36,1,1,,,right,right_blue.png,up_orange.png,up,right,up,60fcad8b8bac0383c5b9272b,2021-09-11_16h38.29.932,arrow_simon_vert,2021.1.2,Win32,59.81934558,,,,,,,,,,,,,,,,,,,,,,,,,,,,,,,,,,,,,,
,,,down,1,1.1403,0,0.338705439,#f3af84,"[""0"",""-0.25""]",down_orange.png,down,9,1,37,2,1,,,left,left_blue.png,down_orange.png,down,left,down,60fcad8b8bac0383c5b9272b,2021-09-11_16h38.29.932,arrow_simon_vert,2021.1.2,Win32,59.81934558,,,,,,,,,,,,,,,,,,,,,,,,,,,,,,,,,,,,,,
,,,right,1,1.1185,0,0.387309375,#a3d0fb,"[""-0.25"",""0""]",right_blue.png,right,9,2,38,0,1,,,right,right_blue.png,up_orange.png,up,left,down,60fcad8b8bac0383c5b9272b,2021-09-11_16h38.29.932,arrow_simon_vert,2021.1.2,Win32,59.81934558,,,,,,,,,,,,,,,,,,,,,,,,,,,,,,,,,,,,,,
,,,up,1,0.7959,0,0.188175066,#f3af84,"[""0"",""0.25""]",up_orange.png,up,9,3,39,1,1,,,right,right_blue.png,up_orange.png,up,right,up,60fcad8b8bac0383c5b9272b,2021-09-11_16h38.29.932,arrow_simon_vert,2021.1.2,Win32,59.81934558,,,,,,,,,,,,,,,,,,,,,,,,,,,,,,,,,,,,,,
,,,left,1,1.0829,0,0.394173788,#a3d0fb,"[""-0.25"",""0""]",left_blue.png,left,10,0,40,2,1,,,left,left_blue.png,down_orange.png,down,left,down,60fcad8b8bac0383c5b9272b,2021-09-11_16h38.29.932,arrow_simon_vert,2021.1.2,Win32,59.81934558,,,,,,,,,,,,,,,,,,,,,,,,,,,,,,,,,,,,,,
,,,up,1,1.1888,0,0.564831476,#f3af84,"[""0"",""-0.25""]",up_orange.png,up,10,1,41,0,1,,,right,right_blue.png,up_orange.png,up,left,down,60fcad8b8bac0383c5b9272b,2021-09-11_16h38.29.932,arrow_simon_vert,2021.1.2,Win32,59.81934558,,,,,,,,,,,,,,,,,,,,,,,,,,,,,,,,,,,,,,
,,,left,1,1.6087,0,0.999243191,#a3d0fb,"[""0.25"",""0""]",left_blue.png,left,10,2,42,3,1,,,left,left_blue.png,down_orange.png,down,right,up,60fcad8b8bac0383c5b9272b,2021-09-11_16h38.29.932,arrow_simon_vert,2021.1.2,Win32,59.81934558,,,,,,,,,,,,,,,,,,,,,,,,,,,,,,,,,,,,,,
,,,down,1,1.566,0,0.862224067,#f3af84,"[""0"",""0.25""]",down_orange.png,down,10,3,43,3,1,,,left,left_blue.png,down_orange.png,down,right,up,60fcad8b8bac0383c5b9272b,2021-09-11_16h38.29.932,arrow_simon_vert,2021.1.2,Win32,59.81934558,,,,,,,,,,,,,,,,,,,,,,,,,,,,,,,,,,,,,,
,,,left,1,1.4081,0,0.905615709,#a3d0fb,"[""-0.25"",""0""]",left_blue.png,left,11,0,44,2,1,,,left,left_blue.png,down_orange.png,down,left,down,60fcad8b8bac0383c5b9272b,2021-09-11_16h38.29.932,arrow_simon_vert,2021.1.2,Win32,59.81934558,,,,,,,,,,,,,,,,,,,,,,,,,,,,,,,,,,,,,,
,,,down,1,1.106,0,0.383399327,#f3af84,"[""0"",""0.25""]",down_orange.png,down,11,1,45,3,1,,,left,left_blue.png,down_orange.png,down,right,up,60fcad8b8bac0383c5b9272b,2021-09-11_16h38.29.932,arrow_simon_vert,2021.1.2,Win32,59.81934558,,,,,,,,,,,,,,,,,,,,,,,,,,,,,,,,,,,,,,
,,,left,1,1.3665,0,0.804255626,#a3d0fb,"[""0.25"",""0""]",left_blue.png,left,11,2,46,3,1,,,left,left_blue.png,down_orange.png,down,right,up,60fcad8b8bac0383c5b9272b,2021-09-11_16h38.29.932,arrow_simon_vert,2021.1.2,Win32,59.81934558,,,,,,,,,,,,,,,,,,,,,,,,,,,,,,,,,,,,,,
,,,down,1,1.1175,0,0.35954563,#f3af84,"[""0"",""0.25""]",down_orange.png,down,11,3,47,3,1,,,left,left_blue.png,down_orange.png,down,right,up,60fcad8b8bac0383c5b9272b,2021-09-11_16h38.29.932,arrow_simon_vert,2021.1.2,Win32,59.81934558,,,,,,,,,,,,,,,,,,,,,,,,,,,,,,,,,,,,,,
,,,right,1,0.9681,0,0.368030089,#a3d0fb,"[""0.25"",""0""]",right_blue.png,right,12,0,48,1,1,,,right,right_blue.png,up_orange.png,up,right,up,60fcad8b8bac0383c5b9272b,2021-09-11_16h38.29.932,arrow_simon_vert,2021.1.2,Win32,59.81934558,,,,,,,,,,,,,,,,,,,,,,,,,,,,,,,,,,,,,,
,,,up,1,1.2079,0,0.717364125,#f3af84,"[""0"",""0.25""]",up_orange.png,up,12,1,49,1,1,,,right,right_blue.png,up_orange.png,up,right,up,60fcad8b8bac0383c5b9272b,2021-09-11_16h38.29.932,arrow_simon_vert,2021.1.2,Win32,59.81934558,,,,,,,,,,,,,,,,,,,,,,,,,,,,,,,,,,,,,,
,,,left,1,1.0254,0,0.431523558,#a3d0fb,"[""-0.25"",""0""]",left_blue.png,left,12,2,50,2,1,,,left,left_blue.png,down_orange.png,down,left,down,60fcad8b8bac0383c5b9272b,2021-09-11_16h38.29.932,arrow_simon_vert,2021.1.2,Win32,59.81934558,,,,,,,,,,,,,,,,,,,,,,,,,,,,,,,,,,,,,,
,,,up,1,0.8663,0,0.258425548,#f3af84,"[""0"",""-0.25""]",up_orange.png,up,12,3,51,0,1,,,right,right_blue.png,up_orange.png,up,left,down,60fcad8b8bac0383c5b9272b,2021-09-11_16h38.29.932,arrow_simon_vert,2021.1.2,Win32,59.81934558,,,,,,,,,,,,,,,,,,,,,,,,,,,,,,,,,,,,,,
,,,right,1,1.3782,0,0.799387928,#a3d0fb,"[""-0.25"",""0""]",right_blue.png,right,13,0,52,0,1,,,right,right_blue.png,up_orange.png,up,left,down,60fcad8b8bac0383c5b9272b,2021-09-11_16h38.29.932,arrow_simon_vert,2021.1.2,Win32,59.81934558,,,,,,,,,,,,,,,,,,,,,,,,,,,,,,,,,,,,,,
,,,down,1,1.4996,0,0.832151683,#f3af84,"[""0"",""0.25""]",down_orange.png,down,13,1,53,3,1,,,left,left_blue.png,down_orange.png,down,right,up,60fcad8b8bac0383c5b9272b,2021-09-11_16h38.29.932,arrow_simon_vert,2021.1.2,Win32,59.81934558,,,,,,,,,,,,,,,,,,,,,,,,,,,,,,,,,,,,,,
,,,left,1,1.0494,0,0.461213445,#a3d0fb,"[""0.25"",""0""]",left_blue.png,left,13,2,54,3,1,,,left,left_blue.png,down_orange.png,down,right,up,60fcad8b8bac0383c5b9272b,2021-09-11_16h38.29.932,arrow_simon_vert,2021.1.2,Win32,59.81934558,,,,,,,,,,,,,,,,,,,,,,,,,,,,,,,,,,,,,,
,,,down,1,0.8171,0,0.096539893,#f3af84,"[""0"",""-0.25""]",down_orange.png,down,13,3,55,2,1,,,left,left_blue.png,down_orange.png,down,left,down,60fcad8b8bac0383c5b9272b,2021-09-11_16h38.29.932,arrow_simon_vert,2021.1.2,Win32,59.81934558,,,,,,,,,,,,,,,,,,,,,,,,,,,,,,,,,,,,,,
,,,left,1,0.8174,0,0.338886291,#a3d0fb,"[""0.25"",""0""]",left_blue.png,left,14,0,56,3,1,,,left,left_blue.png,down_orange.png,down,right,up,60fcad8b8bac0383c5b9272b,2021-09-11_16h38.29.932,arrow_simon_vert,2021.1.2,Win32,59.81934558,,,,,,,,,,,,,,,,,,,,,,,,,,,,,,,,,,,,,,
,,,down,1,0.7183,0,0.099656927,#f3af84,"[""0"",""-0.25""]",down_orange.png,down,14,1,57,2,1,,,left,left_blue.png,down_orange.png,down,left,down,60fcad8b8bac0383c5b9272b,2021-09-11_16h38.29.932,arrow_simon_vert,2021.1.2,Win32,59.81934558,,,,,,,,,,,,,,,,,,,,,,,,,,,,,,,,,,,,,,
,,,right,1,1.0124,0,0.483406462,#a3d0fb,"[""0.25"",""0""]",right_blue.png,right,14,2,58,1,1,,,right,right_blue.png,up_orange.png,up,right,up,60fcad8b8bac0383c5b9272b,2021-09-11_16h38.29.932,arrow_simon_vert,2021.1.2,Win32,59.81934558,,,,,,,,,,,,,,,,,,,,,,,,,,,,,,,,,,,,,,
,,,up,1,1.5165,0,0.965181401,#f3af84,"[""0"",""-0.25""]",up_orange.png,up,14,3,59,0,1,,,right,right_blue.png,up_orange.png,up,left,down,60fcad8b8bac0383c5b9272b,2021-09-11_16h38.29.932,arrow_simon_vert,2021.1.2,Win32,59.81934558,,,,,,,,,,,,,,,,,,,,,,,,,,,,,,,,,,,,,,
,,,,,,,,,,,,,,,,,,,,,,,,,60fcad8b8bac0383c5b9272b,2021-09-11_16h38.29.932,arrow_simon_vert,2021.1.2,Win32,59.81934558,space,22.4146,0,0,0,0,1,,,,,,,,,,,,,,,,,,,,,,,,,,,,,,,
,,,left,1,1.2827,0,0.70963355,#a3d0fb,"[""0.25"",""0""]",left_blue.png,left,0,0,0,3,1,,,left,left_blue.png,down_orange.png,down,right,up,60fcad8b8bac0383c5b9272b,2021-09-11_16h38.29.932,arrow_simon_vert,2021.1.2,Win32,59.81934558,,,,,,,,,,,,,,,,,,,,,,,,,,,,,,,,,,,,,,
,,,down,1,1.2733,0,0.367125097,#f3af84,"[""0"",""0.25""]",down_orange.png,down,0,1,1,3,1,,,left,left_blue.png,down_orange.png,down,right,up,60fcad8b8bac0383c5b9272b,2021-09-11_16h38.29.932,arrow_simon_vert,2021.1.2,Win32,59.81934558,,,,,,,,,,,,,,,,,,,,,,,,,,,,,,,,,,,,,,
,,,right,1,0.971,0,0.295845876,#a3d0fb,"[""0.25"",""0""]",right_blue.png,right,0,2,2,1,1,,,right,right_blue.png,up_orange.png,up,right,up,60fcad8b8bac0383c5b9272b,2021-09-11_16h38.29.932,arrow_simon_vert,2021.1.2,Win32,59.81934558,,,,,,,,,,,,,,,,,,,,,,,,,,,,,,,,,,,,,,
,,,up,1,0.9499,0,0.379759247,#f3af84,"[""0"",""0.25""]",up_orange.png,up,0,3,3,1,1,,,right,right_blue.png,up_orange.png,up,right,up,60fcad8b8bac0383c5b9272b,2021-09-11_16h38.29.932,arrow_simon_vert,2021.1.2,Win32,59.81934558,,,,,,,,,,,,,,,,,,,,,,,,,,,,,,,,,,,,,,
,,,right,1,0.6378,0,0.110678825,#a3d0fb,"[""0.25"",""0""]",right_blue.png,right,1,0,4,1,1,,,right,right_blue.png,up_orange.png,up,right,up,60fcad8b8bac0383c5b9272b,2021-09-11_16h38.29.932,arrow_simon_vert,2021.1.2,Win32,59.81934558,,,,,,,,,,,,,,,,,,,,,,,,,,,,,,,,,,,,,,
,,,up,1,1.0898,0,0.400410646,#f3af84,"[""0"",""-0.25""]",up_orange.png,up,1,1,5,0,1,,,right,right_blue.png,up_orange.png,up,left,down,60fcad8b8bac0383c5b9272b,2021-09-11_16h38.29.932,arrow_simon_vert,2021.1.2,Win32,59.81934558,,,,,,,,,,,,,,,,,,,,,,,,,,,,,,,,,,,,,,
,,,left,1,0.8042,0,0.27193991,#a3d0fb,"[""0.25"",""0""]",left_blue.png,left,1,2,6,3,1,,,left,left_blue.png,down_orange.png,down,right,up,60fcad8b8bac0383c5b9272b,2021-09-11_16h38.29.932,arrow_simon_vert,2021.1.2,Win32,59.81934558,,,,,,,,,,,,,,,,,,,,,,,,,,,,,,,,,,,,,,
,,,down,1,1.5248,0,0.917512811,#f3af84,"[""0"",""-0.25""]",down_orange.png,down,1,3,7,2,1,,,left,left_blue.png,down_orange.png,down,left,down,60fcad8b8bac0383c5b9272b,2021-09-11_16h38.29.932,arrow_simon_vert,2021.1.2,Win32,59.81934558,,,,,,,,,,,,,,,,,,,,,,,,,,,,,,,,,,,,,,
,,,left,1,0.8911,0,0.423273917,#a3d0fb,"[""-0.25"",""0""]",left_blue.png,left,2,0,8,2,1,,,left,left_blue.png,down_orange.png,down,left,down,60fcad8b8bac0383c5b9272b,2021-09-11_16h38.29.932,arrow_simon_vert,2021.1.2,Win32,59.81934558,,,,,,,,,,,,,,,,,,,,,,,,,,,,,,,,,,,,,,
,,,down,1,1.4188,0,0.756218221,#f3af84,"[""0"",""0.25""]",down_orange.png,down,2,1,9,3,1,,,left,left_blue.png,down_orange.png,down,right,up,60fcad8b8bac0383c5b9272b,2021-09-11_16h38.29.932,arrow_simon_vert,2021.1.2,Win32,59.81934558,,,,,,,,,,,,,,,,,,,,,,,,,,,,,,,,,,,,,,
,,,right,1,1.2365,0,0.60009184,#a3d0fb,"[""-0.25"",""0""]",right_blue.png,right,2,2,10,0,1,,,right,right_blue.png,up_orange.png,up,left,down,60fcad8b8bac0383c5b9272b,2021-09-11_16h38.29.932,arrow_simon_vert,2021.1.2,Win32,59.81934558,,,,,,,,,,,,,,,,,,,,,,,,,,,,,,,,,,,,,,
,,,down,1,1.3336,0,0.746164257,#f3af84,"[""0"",""-0.25""]",down_orange.png,down,2,3,11,2,1,,,left,left_blue.png,down_orange.png,down,left,down,60fcad8b8bac0383c5b9272b,2021-09-11_16h38.29.932,arrow_simon_vert,2021.1.2,Win32,59.81934558,,,,,,,,,,,,,,,,,,,,,,,,,,,,,,,,,,,,,,
,,,right,1,1.4329,0,0.926844088,#a3d0fb,"[""0.25"",""0""]",right_blue.png,right,3,0,12,1,1,,,right,right_blue.png,up_orange.png,up,right,up,60fcad8b8bac0383c5b9272b,2021-09-11_16h38.29.932,arrow_simon_vert,2021.1.2,Win32,59.81934558,,,,,,,,,,,,,,,,,,,,,,,,,,,,,,,,,,,,,,
,,,up,1,0.6878,0,0.033614792,#f3af84,"[""0"",""0.25""]",up_orange.png,up,3,1,13,1,1,,,right,right_blue.png,up_orange.png,up,right,up,60fcad8b8bac0383c5b9272b,2021-09-11_16h38.29.932,arrow_simon_vert,2021.1.2,Win32,59.81934558,,,,,,,,,,,,,,,,,,,,,,,,,,,,,,,,,,,,,,
,,,left,1,1.3585,0,0.836300661,#a3d0fb,"[""0.25"",""0""]",left_blue.png,left,3,2,14,3,1,,,left,left_blue.png,down_orange.png,down,right,up,60fcad8b8bac0383c5b9272b,2021-09-11_16h38.29.932,arrow_simon_vert,2021.1.2,Win32,59.81934558,,,,,,,,,,,,,,,,,,,,,,,,,,,,,,,,,,,,,,
,,,down,1,1.1402,0,0.470715953,#f3af84,"[""0"",""0.25""]",down_orange.png,down,3,3,15,3,1,,,left,left_blue.png,down_orange.png,down,right,up,60fcad8b8bac0383c5b9272b,2021-09-11_16h38.29.932,arrow_simon_vert,2021.1.2,Win32,59.81934558,,,,,,,,,,,,,,,,,,,,,,,,,,,,,,,,,,,,,,
,,,left,1,1.2923,0,0.733764862,#a3d0fb,"[""0.25"",""0""]",left_blue.png,left,4,0,16,3,1,,,left,left_blue.png,down_orange.png,down,right,up,60fcad8b8bac0383c5b9272b,2021-09-11_16h38.29.932,arrow_simon_vert,2021.1.2,Win32,59.81934558,,,,,,,,,,,,,,,,,,,,,,,,,,,,,,,,,,,,,,
,,,down,1,1.4584,0,0.959847684,#f3af84,"[""0"",""-0.25""]",down_orange.png,down,4,1,17,2,1,,,left,left_blue.png,down_orange.png,down,left,down,60fcad8b8bac0383c5b9272b,2021-09-11_16h38.29.932,arrow_simon_vert,2021.1.2,Win32,59.81934558,,,,,,,,,,,,,,,,,,,,,,,,,,,,,,,,,,,,,,
,,,right,1,0.8064,0,0.267299284,#a3d0fb,"[""0.25"",""0""]",right_blue.png,right,4,2,18,1,1,,,right,right_blue.png,up_orange.png,up,right,up,60fcad8b8bac0383c5b9272b,2021-09-11_16h38.29.932,arrow_simon_vert,2021.1.2,Win32,59.81934558,,,,,,,,,,,,,,,,,,,,,,,,,,,,,,,,,,,,,,
,,,up,1,1.1312,0,0.558102073,#f3af84,"[""0"",""-0.25""]",up_orange.png,up,4,3,19,0,1,,,right,right_blue.png,up_orange.png,up,left,down,60fcad8b8bac0383c5b9272b,2021-09-11_16h38.29.932,arrow_simon_vert,2021.1.2,Win32,59.81934558,,,,,,,,,,,,,,,,,,,,,,,,,,,,,,,,,,,,,,
,,,right,1,1.0928,0,0.607205942,#a3d0fb,"[""0.25"",""0""]",right_blue.png,right,5,0,20,1,1,,,right,right_blue.png,up_orange.png,up,right,up,60fcad8b8bac0383c5b9272b,2021-09-11_16h38.29.932,arrow_simon_vert,2021.1.2,Win32,59.81934558,,,,,,,,,,,,,,,,,,,,,,,,,,,,,,,,,,,,,,
,,,up,1,0.7342,0,0.121116589,#f3af84,"[""0"",""-0.25""]",up_orange.png,up,5,1,21,0,1,,,right,right_blue.png,up_orange.png,up,left,down,60fcad8b8bac0383c5b9272b,2021-09-11_16h38.29.932,arrow_simon_vert,2021.1.2,Win32,59.81934558,,,,,,,,,,,,,,,,,,,,,,,,,,,,,,,,,,,,,,
,,,right,1,0.7509,0,0.121962889,#a3d0fb,"[""-0.25"",""0""]",right_blue.png,right,5,2,22,0,1,,,right,right_blue.png,up_orange.png,up,left,down,60fcad8b8bac0383c5b9272b,2021-09-11_16h38.29.932,arrow_simon_vert,2021.1.2,Win32,59.81934558,,,,,,,,,,,,,,,,,,,,,,,,,,,,,,,,,,,,,,
,,,down,1,0.7658,0,0.143185126,#f3af84,"[""0"",""0.25""]",down_orange.png,down,5,3,23,3,1,,,left,left_blue.png,down_orange.png,down,right,up,60fcad8b8bac0383c5b9272b,2021-09-11_16h38.29.932,arrow_simon_vert,2021.1.2,Win32,59.81934558,,,,,,,,,,,,,,,,,,,,,,,,,,,,,,,,,,,,,,
,,,left,1,1.3828,0,0.955345484,#a3d0fb,"[""-0.25"",""0""]",left_blue.png,left,6,0,24,2,1,,,left,left_blue.png,down_orange.png,down,left,down,60fcad8b8bac0383c5b9272b,2021-09-11_16h38.29.932,arrow_simon_vert,2021.1.2,Win32,59.81934558,,,,,,,,,,,,,,,,,,,,,,,,,,,,,,,,,,,,,,
,,,down,1,0.8926,0,0.423513321,#f3af84,"[""0"",""-0.25""]",down_orange.png,down,6,1,25,2,1,,,left,left_blue.png,down_orange.png,down,left,down,60fcad8b8bac0383c5b9272b,2021-09-11_16h38.29.932,arrow_simon_vert,2021.1.2,Win32,59.81934558,,,,,,,,,,,,,,,,,,,,,,,,,,,,,,,,,,,,,,
,,,right,1,0.5728,0,0.091364793,#a3d0fb,"[""0.25"",""0""]",right_blue.png,right,6,2,26,1,1,,,right,right_blue.png,up_orange.png,up,right,up,60fcad8b8bac0383c5b9272b,2021-09-11_16h38.29.932,arrow_simon_vert,2021.1.2,Win32,59.81934558,,,,,,,,,,,,,,,,,,,,,,,,,,,,,,,,,,,,,,
,,,down,1,0.95,0,0.32905722,#f3af84,"[""0"",""0.25""]",down_orange.png,down,6,3,27,3,1,,,left,left_blue.png,down_orange.png,down,right,up,60fcad8b8bac0383c5b9272b,2021-09-11_16h38.29.932,arrow_simon_vert,2021.1.2,Win32,59.81934558,,,,,,,,,,,,,,,,,,,,,,,,,,,,,,,,,,,,,,
,,,left,1,0.8669,0,0.337535141,#a3d0fb,"[""-0.25"",""0""]",left_blue.png,left,7,0,28,2,1,,,left,left_blue.png,down_orange.png,down,left,down,60fcad8b8bac0383c5b9272b,2021-09-11_16h38.29.932,arrow_simon_vert,2021.1.2,Win32,59.81934558,,,,,,,,,,,,,,,,,,,,,,,,,,,,,,,,,,,,,,
,,,down,1,1.433,0,0.802899358,#f3af84,"[""0"",""0.25""]",down_orange.png,down,7,1,29,3,1,,,left,left_blue.png,down_orange.png,down,right,up,60fcad8b8bac0383c5b9272b,2021-09-11_16h38.29.932,arrow_simon_vert,2021.1.2,Win32,59.81934558,,,,,,,,,,,,,,,,,,,,,,,,,,,,,,,,,,,,,,
,,,left,1,0.7931,0,0.168515804,#a3d0fb,"[""-0.25"",""0""]",left_blue.png,left,7,2,30,2,1,,,left,left_blue.png,down_orange.png,down,left,down,60fcad8b8bac0383c5b9272b,2021-09-11_16h38.29.932,arrow_simon_vert,2021.1.2,Win32,59.81934558,,,,,,,,,,,,,,,,,,,,,,,,,,,,,,,,,,,,,,
,,,down,1,1.3103,0,0.674136991,#f3af84,"[""0"",""0.25""]",down_orange.png,down,7,3,31,3,1,,,left,left_blue.png,down_orange.png,down,right,up,60fcad8b8bac0383c5b9272b,2021-09-11_16h38.29.932,arrow_simon_vert,2021.1.2,Win32,59.81934558,,,,,,,,,,,,,,,,,,,,,,,,,,,,,,,,,,,,,,
,,,right,1,0.6188,0,0.0746663,#a3d0fb,"[""-0.25"",""0""]",right_blue.png,right,8,0,32,0,1,,,right,right_blue.png,up_orange.png,up,left,down,60fcad8b8bac0383c5b9272b,2021-09-11_16h38.29.932,arrow_simon_vert,2021.1.2,Win32,59.81934558,,,,,,,,,,,,,,,,,,,,,,,,,,,,,,,,,,,,,,
,,,up,1,1.2189,0,0.740962925,#f3af84,"[""0"",""-0.25""]",up_orange.png,up,8,1,33,0,1,,,right,right_blue.png,up_orange.png,up,left,down,60fcad8b8bac0383c5b9272b,2021-09-11_16h38.29.932,arrow_simon_vert,2021.1.2,Win32,59.81934558,,,,,,,,,,,,,,,,,,,,,,,,,,,,,,,,,,,,,,
,,,left,1,1.2665,0,0.660777727,#a3d0fb,"[""-0.25"",""0""]",left_blue.png,left,8,2,34,2,1,,,left,left_blue.png,down_orange.png,down,left,down,60fcad8b8bac0383c5b9272b,2021-09-11_16h38.29.932,arrow_simon_vert,2021.1.2,Win32,59.81934558,,,,,,,,,,,,,,,,,,,,,,,,,,,,,,,,,,,,,,
,,,up,1,1.4756,0,0.992559741,#f3af84,"[""0"",""0.25""]",up_orange.png,up,8,3,35,1,1,,,right,right_blue.png,up_orange.png,up,right,up,60fcad8b8bac0383c5b9272b,2021-09-11_16h38.29.932,arrow_simon_vert,2021.1.2,Win32,59.81934558,,,,,,,,,,,,,,,,,,,,,,,,,,,,,,,,,,,,,,
,,,right,1,0.7217,0,0.227005293,#a3d0fb,"[""0.25"",""0""]",right_blue.png,right,9,0,36,1,1,,,right,right_blue.png,up_orange.png,up,right,up,60fcad8b8bac0383c5b9272b,2021-09-11_16h38.29.932,arrow_simon_vert,2021.1.2,Win32,59.81934558,,,,,,,,,,,,,,,,,,,,,,,,,,,,,,,,,,,,,,
,,,up,1,1.4547,0,0.900160464,#f3af84,"[""0"",""-0.25""]",up_orange.png,up,9,1,37,0,1,,,right,right_blue.png,up_orange.png,up,left,down,60fcad8b8bac0383c5b9272b,2021-09-11_16h38.29.932,arrow_simon_vert,2021.1.2,Win32,59.81934558,,,,,,,,,,,,,,,,,,,,,,,,,,,,,,,,,,,,,,
,,,right,1,0.788,0,0.182680882,#a3d0fb,"[""0.25"",""0""]",right_blue.png,right,9,2,38,1,1,,,right,right_blue.png,up_orange.png,up,right,up,60fcad8b8bac0383c5b9272b,2021-09-11_16h38.29.932,arrow_simon_vert,2021.1.2,Win32,59.81934558,,,,,,,,,,,,,,,,,,,,,,,,,,,,,,,,,,,,,,
,,,down,1,1.051,0,0.474986876,#f3af84,"[""0"",""0.25""]",down_orange.png,down,9,3,39,3,1,,,left,left_blue.png,down_orange.png,down,right,up,60fcad8b8bac0383c5b9272b,2021-09-11_16h38.29.932,arrow_simon_vert,2021.1.2,Win32,59.81934558,,,,,,,,,,,,,,,,,,,,,,,,,,,,,,,,,,,,,,
,,,right,1,1.0011,0,0.449405506,#a3d0fb,"[""-0.25"",""0""]",right_blue.png,right,10,0,40,0,1,,,right,right_blue.png,up_orange.png,up,left,down,60fcad8b8bac0383c5b9272b,2021-09-11_16h38.29.932,arrow_simon_vert,2021.1.2,Win32,59.81934558,,,,,,,,,,,,,,,,,,,,,,,,,,,,,,,,,,,,,,
,,,down,1,1.4454,0,0.873494961,#f3af84,"[""0"",""-0.25""]",down_orange.png,down,10,1,41,2,1,,,left,left_blue.png,down_orange.png,down,left,down,60fcad8b8bac0383c5b9272b,2021-09-11_16h38.29.932,arrow_simon_vert,2021.1.2,Win32,59.81934558,,,,,,,,,,,,,,,,,,,,,,,,,,,,,,,,,,,,,,
,,,right,1,1.1346,0,0.678484489,#a3d0fb,"[""0.25"",""0""]",right_blue.png,right,10,2,42,1,1,,,right,right_blue.png,up_orange.png,up,right,up,60fcad8b8bac0383c5b9272b,2021-09-11_16h38.29.932,arrow_simon_vert,2021.1.2,Win32,59.81934558,,,,,,,,,,,,,,,,,,,,,,,,,,,,,,,,,,,,,,
,,,up,1,0.9093,0,0.479705063,#f3af84,"[""0"",""0.25""]",up_orange.png,up,10,3,43,1,1,,,right,right_blue.png,up_orange.png,up,right,up,60fcad8b8bac0383c5b9272b,2021-09-11_16h38.29.932,arrow_simon_vert,2021.1.2,Win32,59.81934558,,,,,,,,,,,,,,,,,,,,,,,,,,,,,,,,,,,,,,
,,,left,1,1.4732,0,0.985789623,#a3d0fb,"[""0.25"",""0""]",left_blue.png,left,11,0,44,3,1,,,left,left_blue.png,down_orange.png,down,right,up,60fcad8b8bac0383c5b9272b,2021-09-11_16h38.29.932,arrow_simon_vert,2021.1.2,Win32,59.81934558,,,,,,,,,,,,,,,,,,,,,,,,,,,,,,,,,,,,,,
,,,up,1,1.2174,0,0.687197805,#f3af84,"[""0"",""-0.25""]",up_orange.png,up,11,1,45,0,1,,,right,right_blue.png,up_orange.png,up,left,down,60fcad8b8bac0383c5b9272b,2021-09-11_16h38.29.932,arrow_simon_vert,2021.1.2,Win32,59.81934558,,,,,,,,,,,,,,,,,,,,,,,,,,,,,,,,,,,,,,
,,,left,1,0.874,0,0.376044821,#a3d0fb,"[""-0.25"",""0""]",left_blue.png,left,11,2,46,2,1,,,left,left_blue.png,down_orange.png,down,left,down,60fcad8b8bac0383c5b9272b,2021-09-11_16h38.29.932,arrow_simon_vert,2021.1.2,Win32,59.81934558,,,,,,,,,,,,,,,,,,,,,,,,,,,,,,,,,,,,,,
,,,up,1,1.4665,0,0.938762367,#f3af84,"[""0"",""-0.25""]",up_orange.png,up,11,3,47,0,1,,,right,right_blue.png,up_orange.png,up,left,down,60fcad8b8bac0383c5b9272b,2021-09-11_16h38.29.932,arrow_simon_vert,2021.1.2,Win32,59.81934558,,,,,,,,,,,,,,,,,,,,,,,,,,,,,,,,,,,,,,
,,,right,1,1.4079,0,0.929417508,#a3d0fb,"[""-0.25"",""0""]",right_blue.png,right,12,0,48,0,1,,,right,right_blue.png,up_orange.png,up,left,down,60fcad8b8bac0383c5b9272b,2021-09-11_16h38.29.932,arrow_simon_vert,2021.1.2,Win32,59.81934558,,,,,,,,,,,,,,,,,,,,,,,,,,,,,,,,,,,,,,
,,,up,1,0.8048,0,0.370024495,#f3af84,"[""0"",""0.25""]",up_orange.png,up,12,1,49,1,1,,,right,right_blue.png,up_orange.png,up,right,up,60fcad8b8bac0383c5b9272b,2021-09-11_16h38.29.932,arrow_simon_vert,2021.1.2,Win32,59.81934558,,,,,,,,,,,,,,,,,,,,,,,,,,,,,,,,,,,,,,
,,,right,1,1.1499,0,0.62762511,#a3d0fb,"[""-0.25"",""0""]",right_blue.png,right,12,2,50,0,1,,,right,right_blue.png,up_orange.png,up,left,down,60fcad8b8bac0383c5b9272b,2021-09-11_16h38.29.932,arrow_simon_vert,2021.1.2,Win32,59.81934558,,,,,,,,,,,,,,,,,,,,,,,,,,,,,,,,,,,,,,
,,,down,1,1.3538,0,0.894387595,#f3af84,"[""0"",""-0.25""]",down_orange.png,down,12,3,51,2,1,,,left,left_blue.png,down_orange.png,down,left,down,60fcad8b8bac0383c5b9272b,2021-09-11_16h38.29.932,arrow_simon_vert,2021.1.2,Win32,59.81934558,,,,,,,,,,,,,,,,,,,,,,,,,,,,,,,,,,,,,,
,,,right,1,0.9928,0,0.461812836,#a3d0fb,"[""-0.25"",""0""]",right_blue.png,right,13,0,52,0,1,,,right,right_blue.png,up_orange.png,up,left,down,60fcad8b8bac0383c5b9272b,2021-09-11_16h38.29.932,arrow_simon_vert,2021.1.2,Win32,59.81934558,,,,,,,,,,,,,,,,,,,,,,,,,,,,,,,,,,,,,,
,,,down,1,0.8355,0,0.320058598,#f3af84,"[""0"",""-0.25""]",down_orange.png,down,13,1,53,2,1,,,left,left_blue.png,down_orange.png,down,left,down,60fcad8b8bac0383c5b9272b,2021-09-11_16h38.29.932,arrow_simon_vert,2021.1.2,Win32,59.81934558,,,,,,,,,,,,,,,,,,,,,,,,,,,,,,,,,,,,,,
,,,right,1,0.5684,0,0.126529645,#a3d0fb,"[""0.25"",""0""]",right_blue.png,right,13,2,54,1,1,,,right,right_blue.png,up_orange.png,up,right,up,60fcad8b8bac0383c5b9272b,2021-09-11_16h38.29.932,arrow_simon_vert,2021.1.2,Win32,59.81934558,,,,,,,,,,,,,,,,,,,,,,,,,,,,,,,,,,,,,,
,,,down,1,1.0591,0,0.507982337,#f3af84,"[""0"",""0.25""]",down_orange.png,down,13,3,55,3,1,,,left,left_blue.png,down_orange.png,down,right,up,60fcad8b8bac0383c5b9272b,2021-09-11_16h38.29.932,arrow_simon_vert,2021.1.2,Win32,59.81934558,,,,,,,,,,,,,,,,,,,,,,,,,,,,,,,,,,,,,,
,,,left,1,0.6065,0,0.179512212,#a3d0fb,"[""0.25"",""0""]",left_blue.png,left,14,0,56,3,1,,,left,left_blue.png,down_orange.png,down,right,up,60fcad8b8bac0383c5b9272b,2021-09-11_16h38.29.932,arrow_simon_vert,2021.1.2,Win32,59.81934558,,,,,,,,,,,,,,,,,,,,,,,,,,,,,,,,,,,,,,
,,,left,0,1.4356,1,0.947840221,#f3af84,"[""0"",""-0.25""]",down_orange.png,down,14,1,57,2,1,,,left,left_blue.png,down_orange.png,down,left,down,60fcad8b8bac0383c5b9272b,2021-09-11_16h38.29.932,arrow_simon_vert,2021.1.2,Win32,59.81934558,,,,,,,,,,,,,,,,,,,,,,,,,,,,,,,,,,,,,,
,,,right,1,1.1492,0,0.56824999,#a3d0fb,"[""-0.25"",""0""]",right_blue.png,right,14,2,58,0,1,,,right,right_blue.png,up_orange.png,up,left,down,60fcad8b8bac0383c5b9272b,2021-09-11_16h38.29.932,arrow_simon_vert,2021.1.2,Win32,59.81934558,,,,,,,,,,,,,,,,,,,,,,,,,,,,,,,,,,,,,,
,,,down,1,0.8996,0,0.441100655,#f3af84,"[""0"",""-0.25""]",down_orange.png,down,14,3,59,2,1,,,left,left_blue.png,down_orange.png,down,left,down,60fcad8b8bac0383c5b9272b,2021-09-11_16h38.29.932,arrow_simon_vert,2021.1.2,Win32,59.81934558,,,,,,,,,,,,,,,,,,,,,,,,,,,,,,,,,,,,,,
,,,,,,,,,,,,,,,,,,,,,,,,,60fcad8b8bac0383c5b9272b,2021-09-11_16h38.29.932,arrow_simon_vert,2021.1.2,Win32,59.81934558,space,4.5743,1,0,1,0,1,,,,,,,,,,,,,,,,,,,,,,,,,,,,,,,
,,,,,,,,,,,,,,,,,,,,,,,,,60fcad8b8bac0383c5b9272b,2021-09-11_16h38.29.932,arrow_simon_vert,2021.1.2,Win32,59.81934558,,,,,,,,space,0,104.484,down,3.215,0,0,0,0,1,,,,,,,,,,,,,,,,,,,,,
,,,,,,,,,,,,,,,,,,,,,,,,,60fcad8b8bac0383c5b9272b,2021-09-11_16h38.29.932,arrow_simon_vert,2021.1.2,Win32,59.81934558,,,,,,,,,,,up,3.369,1,0,1,0,1,,,,,,,,,,,,,,,,,,,,,
,,,,,,,,,,,,,,,,,,,,,,,,,60fcad8b8bac0383c5b9272b,2021-09-11_16h38.29.932,arrow_simon_vert,2021.1.2,Win32,59.81934558,,,,,,,,,,,right,2.9067,2,0,2,0,1,,,,,,,,,,,,,,,,,,,,,
,,,,,,,,,,,,,,,,,,,,,,,,,60fcad8b8bac0383c5b9272b,2021-09-11_16h38.29.932,arrow_simon_vert,2021.1.2,Win32,59.81934558,,,,,,,,,,,up,2.8221,3,0,3,0,1,,,,,,,,,,,,,,,,,,,,,
,,,,,,,,,,,,,,,,,,,,,,,,,60fcad8b8bac0383c5b9272b,2021-09-11_16h38.29.932,arrow_simon_vert,2021.1.2,Win32,59.81934558,,,,,,,,,,,left,2.7688,4,0,4,0,1,,,,,,,,,,,,,,,,,,,,,
,,,,,,,,,,,,,,,,,,,,,,,,,60fcad8b8bac0383c5b9272b,2021-09-11_16h38.29.932,arrow_simon_vert,2021.1.2,Win32,59.81934558,,,,,,,,,,,down,2.8039,5,0,5,0,1,,,,,,,,,,,,,,,,,,,,,
,,,,,,,,,,,,,,,,,,,,,,,,,60fcad8b8bac0383c5b9272b,2021-09-11_16h38.29.932,arrow_simon_vert,2021.1.2,Win32,59.81934558,,,,,,,,,,,right,2.6493,6,0,6,0,1,,,,,,,,,,,,,,,,,,,,,
,,,,,,,,,,,,,,,,,,,,,,,,,60fcad8b8bac0383c5b9272b,2021-09-11_16h38.29.932,arrow_simon_vert,2021.1.2,Win32,59.81934558,,,,,,,,,,,down,2.7402,7,0,7,0,1,,,,,,,,,,,,,,,,,,,,,
,,,,,,,,,,,,,,,,,,,,,,,,,60fcad8b8bac0383c5b9272b,2021-09-11_16h38.29.932,arrow_simon_vert,2021.1.2,Win32,59.81934558,,,,,,,,,,,down,2.2957,8,0,8,0,1,,,,,,,,,,,,,,,,,,,,,
,,,,,,,,,,,,,,,,,,,,,,,,,60fcad8b8bac0383c5b9272b,2021-09-11_16h38.29.932,arrow_simon_vert,2021.1.2,Win32,59.81934558,,,,,,,,,,,down,2.8195,9,0,9,0,1,,,,,,,,,,,,,,,,,,,,,
,,,,,,,,,,,,,,,,,,,,,,,,,60fcad8b8bac0383c5b9272b,2021-09-11_16h38.29.932,arrow_simon_vert,2021.1.2,Win32,59.81934558,,,,,,,,,,,right,2.7371,10,0,10,0,1,,,,,,,,,,,,,,,,,,,,,
,,,,,,,,,,,,,,,,,,,,,,,,,60fcad8b8bac0383c5b9272b,2021-09-11_16h38.29.932,arrow_simon_vert,2021.1.2,Win32,59.81934558,,,,,,,,,,,right,2.8507,11,0,11,0,1,,,,,,,,,,,,,,,,,,,,,
,,,,,,,,,,,,,,,,,,,,,,,,,60fcad8b8bac0383c5b9272b,2021-09-11_16h38.29.932,arrow_simon_vert,2021.1.2,Win32,59.81934558,,,,,,,,,,,down,3.0323,12,0,12,0,1,,,,,,,,,,,,,,,,,,,,,
,,,,,,,,,,,,,,,,,,,,,,,,,60fcad8b8bac0383c5b9272b,2021-09-11_16h38.29.932,arrow_simon_vert,2021.1.2,Win32,59.81934558,,,,,,,,,,,down,2.8445,13,0,13,0,1,,,,,,,,,,,,,,,,,,,,,
,,,,,,,,,,,,,,,,,,,,,,,,,60fcad8b8bac0383c5b9272b,2021-09-11_16h38.29.932,arrow_simon_vert,2021.1.2,Win32,59.81934558,,,,,,,,,,,right,2.4656,14,0,14,0,1,,,,,,,,,,,,,,,,,,,,,
,,,,,,,,,,,,,,,,,,,,,,,,,60fcad8b8bac0383c5b9272b,2021-09-11_16h38.29.932,arrow_simon_vert,2021.1.2,Win32,59.81934558,,,,,,,,,,,down,2.6326,15,0,15,0,1,,,,,,,,,,,,,,,,,,,,,
,,,,,,,,,,,,,,,,,,,,,,,,,60fcad8b8bac0383c5b9272b,2021-09-11_16h38.29.932,arrow_simon_vert,2021.1.2,Win32,59.81934558,,,,,,,,,,,right,2.451,16,0,16,0,1,,,,,,,,,,,,,,,,,,,,,
,,,,,,,,,,,,,,,,,,,,,,,,,60fcad8b8bac0383c5b9272b,2021-09-11_16h38.29.932,arrow_simon_vert,2021.1.2,Win32,59.81934558,,,,,,,,,,,down,2.1744,17,0,17,0,1,,,,,,,,,,,,,,,,,,,,,
,,,,,,,,,,,,,,,,,,,,,,,,,60fcad8b8bac0383c5b9272b,2021-09-11_16h38.29.932,arrow_simon_vert,2021.1.2,Win32,59.81934558,,,,,,,,,,,right,2.174,18,0,18,0,1,,,,,,,,,,,,,,,,,,,,,
,,,,,,,,,,,,,,,,,,,,,,,,,60fcad8b8bac0383c5b9272b,2021-09-11_16h38.29.932,arrow_simon_vert,2021.1.2,Win32,59.81934558,,,,,,,,,,,down,2.4822,19,0,19,0,1,,,,,,,,,,,,,,,,,,,,,
,,,,,,,,,,,,,,,,,,,,,,,,,60fcad8b8bac0383c5b9272b,2021-09-11_16h38.29.932,arrow_simon_vert,2021.1.2,Win32,59.81934558,,,,,,,,,,,right,2.5171,20,0,20,0,1,,,,,,,,,,,,,,,,,,,,,
,,,,,,,,,,,,,,,,,,,,,,,,,60fcad8b8bac0383c5b9272b,2021-09-11_16h38.29.932,arrow_simon_vert,2021.1.2,Win32,59.81934558,,,,,,,,,,,down,2.4654,21,0,21,0,1,,,,,,,,,,,,,,,,,,,,,
,,,,,,,,,,,,,,,,,,,,,,,,,60fcad8b8bac0383c5b9272b,2021-09-11_16h38.29.932,arrow_simon_vert,2021.1.2,Win32,59.81934558,,,,,,,,,,,right,2.5911,22,0,22,0,1,,,,,,,,,,,,,,,,,,,,,
,,,,,,,,,,,,,,,,,,,,,,,,,60fcad8b8bac0383c5b9272b,2021-09-11_16h38.29.932,arrow_simon_vert,2021.1.2,Win32,59.81934558,,,,,,,,,,,down,2.5213,23,0,23,0,1,,,,,,,,,,,,,,,,,,,,,
,,,,,,,,,,,,,,,,,,,,,,,,,60fcad8b8bac0383c5b9272b,2021-09-11_16h38.29.932,arrow_simon_vert,2021.1.2,Win32,59.81934558,,,,,,,,,,,right,2.4198,24,0,24,0,1,,,,,,,,,,,,,,,,,,,,,
,,,,,,,,,,,,,,,,,,,,,,,,,60fcad8b8bac0383c5b9272b,2021-09-11_16h38.29.932,arrow_simon_vert,2021.1.2,Win32,59.81934558,,,,,,,,,,,down,2.5257,25,0,25,0,1,,,,,,,,,,,,,,,,,,,,,
,,,,,,,,,,,,,,,,,,,,,,,,,60fcad8b8bac0383c5b9272b,2021-09-11_16h38.29.932,arrow_simon_vert,2021.1.2,Win32,59.81934558,,,,,,,,,,,right,2.4407,26,0,26,0,1,,,,,,,,,,,,,,,,,,,,,
,,,,,,,,,,,,,,,,,,,,,,,,,60fcad8b8bac0383c5b9272b,2021-09-11_16h38.29.932,arrow_simon_vert,2021.1.2,Win32,59.81934558,,,,,,,,,,,down,2.532,27,0,27,0,1,,,,,,,,,,,,,,,,,,,,,
,,,,,,,,,,,,,,,,,,,,,,,,,60fcad8b8bac0383c5b9272b,2021-09-11_16h38.29.932,arrow_simon_vert,2021.1.2,Win32,59.81934558,,,,,,,,,,,right,2.5105,28,0,28,0,1,,,,,,,,,,,,,,,,,,,,,
,,,,,,,,,,,,,,,,,,,,,,,,,60fcad8b8bac0383c5b9272b,2021-09-11_16h38.29.932,arrow_simon_vert,2021.1.2,Win32,59.81934558,,,,,,,,,,,down,2.6211,29,0,29,0,1,,,,,,,,,,,,,,,,,,,,,
,,,,,,,,,,,,,,,,,,,,,,,,,60fcad8b8bac0383c5b9272b,2021-09-11_16h38.29.932,arrow_simon_vert,2021.1.2,Win32,59.81934558,,,,,,,,,,,right,2.3933,30,0,30,0,1,,,,,,,,,,,,,,,,,,,,,
,,,,,,,,,,,,,,,,,,,,,,,,,60fcad8b8bac0383c5b9272b,2021-09-11_16h38.29.932,arrow_simon_vert,2021.1.2,Win32,59.81934558,,,,,,,,,,,down,2.5688,31,0,31,0,1,,,,,,,,,,,,,,,,,,,,,
,,,,,,,,,,,,,,,,,,,,,,,,,60fcad8b8bac0383c5b9272b,2021-09-11_16h38.29.932,arrow_simon_vert,2021.1.2,Win32,59.81934558,,,,,,,,,,,right,2.5262,32,0,32,0,1,,,,,,,,,,,,,,,,,,,,,
,,,,,,,,,,,,,,,,,,,,,,,,,60fcad8b8bac0383c5b9272b,2021-09-11_16h38.29.932,arrow_simon_vert,2021.1.2,Win32,59.81934558,,,,,,,,,,,down,2.628,33,0,33,0,1,,,,,,,,,,,,,,,,,,,,,
,,,,,,,,,,,,,,,,,,,,,,,,,60fcad8b8bac0383c5b9272b,2021-09-11_16h38.29.932,arrow_simon_vert,2021.1.2,Win32,59.81934558,,,,,,,,,,,right,2.5679,34,0,34,0,1,,,,,,,,,,,,,,,,,,,,,
,,,,,,,,,,,,,,,,,,,,,,,,,60fcad8b8bac0383c5b9272b,2021-09-11_16h38.29.932,arrow_simon_vert,2021.1.2,Win32,59.81934558,,,,,,,,,,,down,2.4367,35,0,35,0,1,,,,,,,,,,,,,,,,,,,,,
,,,,,,,,,,,,,,,,,,,,,,,,,60fcad8b8bac0383c5b9272b,2021-09-11_16h38.29.932,arrow_simon_vert,2021.1.2,Win32,59.81934558,,,,,,,,,,,right,2.4073,36,0,36,0,1,,,,,,,,,,,,,,,,,,,,,
,,,,,,,,,,,,,,,,,,,,,,,,,60fcad8b8bac0383c5b9272b,2021-09-11_16h38.29.932,arrow_simon_vert,2021.1.2,Win32,59.81934558,,,,,,,,,,,down,2.4521,37,0,37,0,1,,,,,,,,,,,,,,,,,,,,,
,,,,,,,,,,,,,,,,,,,,,,,,,60fcad8b8bac0383c5b9272b,2021-09-11_16h38.29.932,arrow_simon_vert,2021.1.2,Win32,59.81934558,,,,,,,,,,,right,2.5914,38,0,38,0,1,,,,,,,,,,,,,,,,,,,,,
,,,,,,,,,,,,,,,,,,,,,,,,,60fcad8b8bac0383c5b9272b,2021-09-11_16h38.29.932,arrow_simon_vert,2021.1.2,Win32,59.81934558,,,,,,,,,,,down,2.5328,39,0,39,0,1,,,,,,,,,,,,,,,,,,,,,
,,,,,,,,,,,,,,,,,,,,,,,,,60fcad8b8bac0383c5b9272b,2021-09-11_16h38.29.932,arrow_simon_vert,2021.1.2,Win32,59.81934558,,,,,,,,,,,right,2.6496,40,0,40,0,1,,,,,,,,,,,,,,,,,,,,,
,,,,,,,,,,,,,,,,,,,,,,,,,60fcad8b8bac0383c5b9272b,2021-09-11_16h38.29.932,arrow_simon_vert,2021.1.2,Win32,59.81934558,,,,,,,,,,,down,2.5358,41,0,41,0,1,,,,,,,,,,,,,,,,,,,,,
,,,,,,,,,,,,,,,,,,,,,,,,,60fcad8b8bac0383c5b9272b,2021-09-11_16h38.29.932,arrow_simon_vert,2021.1.2,Win32,59.81934558,,,,,,,,,,,right,2.5093,42,0,42,0,1,,,,,,,,,,,,,,,,,,,,,
,,,,,,,,,,,,,,,,,,,,,,,,,60fcad8b8bac0383c5b9272b,2021-09-11_16h38.29.932,arrow_simon_vert,2021.1.2,Win32,59.81934558,,,,,,,,,,,down,2.5383,43,0,43,0,1,,,,,,,,,,,,,,,,,,,,,
,,,,,,,,,,,,,,,,,,,,,,,,,60fcad8b8bac0383c5b9272b,2021-09-11_16h38.29.932,arrow_simon_vert,2021.1.2,Win32,59.81934558,,,,,,,,,,,right,2.5669,44,0,44,0,1,,,,,,,,,,,,,,,,,,,,,
,,,,,,,,,,,,,,,,,,,,,,,,,60fcad8b8bac0383c5b9272b,2021-09-11_16h38.29.932,arrow_simon_vert,2021.1.2,Win32,59.81934558,,,,,,,,,,,down,2.5228,45,0,45,0,1,,,,,,,,,,,,,,,,,,,,,
,,,,,,,,,,,,,,,,,,,,,,,,,60fcad8b8bac0383c5b9272b,2021-09-11_16h38.29.932,arrow_simon_vert,2021.1.2,Win32,59.81934558,,,,,,,,,,,right,2.3483,46,0,46,0,1,,,,,,,,,,,,,,,,,,,,,
,,,,,,,,,,,,,,,,,,,,,,,,,60fcad8b8bac0383c5b9272b,2021-09-11_16h38.29.932,arrow_simon_vert,2021.1.2,Win32,59.81934558,,,,,,,,,,,down,2.2987,47,0,47,0,1,,,,,,,,,,,,,,,,,,,,,
,,,,,,,,,,,,,,,,,,,,,,,,,60fcad8b8bac0383c5b9272b,2021-09-11_16h38.29.932,arrow_simon_vert,2021.1.2,Win32,59.81934558,,,,,,,,,,,right,2.5514,48,0,48,0,1,,,,,,,,,,,,,,,,,,,,,
,,,,,,,,,,,,,,,,,,,,,,,,,60fcad8b8bac0383c5b9272b,2021-09-11_16h38.29.932,arrow_simon_vert,2021.1.2,Win32,59.81934558,,,,,,,,,,,down,2.5986,49,0,49,0,1,,,,,,,,,,,,,,,,,,,,,
,,,,,,,,,,,,,,,,,,,,,,,,,60fcad8b8bac0383c5b9272b,2021-09-11_16h38.29.932,arrow_simon_vert,2021.1.2,Win32,59.81934558,,,,,,,,,,,right,2.4719,50,0,50,0,1,,,,,,,,,,,,,,,,,,,,,
,,,,,,,,,,,,,,,,,,,,,,,,,60fcad8b8bac0383c5b9272b,2021-09-11_16h38.29.932,arrow_simon_vert,2021.1.2,Win32,59.81934558,,,,,,,,,,,down,2.5532,51,0,51,0,1,,,,,,,,,,,,,,,,,,,,,
,,,,,,,,,,,,,,,,,,,,,,,,,60fcad8b8bac0383c5b9272b,2021-09-11_16h38.29.932,arrow_simon_vert,2021.1.2,Win32,59.81934558,,,,,,,,,,,right,2.5024,52,0,52,0,1,,,,,,,,,,,,,,,,,,,,,
,,,,,,,,,,,,,,,,,,,,,,,,,60fcad8b8bac0383c5b9272b,2021-09-11_16h38.29.932,arrow_simon_vert,2021.1.2,Win32,59.81934558,,,,,,,,,,,down,2.5157,53,0,53,0,1,,,,,,,,,,,,,,,,,,,,,
,,,,,,,,,,,,,,,,,,,,,,,,,60fcad8b8bac0383c5b9272b,2021-09-11_16h38.29.932,arrow_simon_vert,2021.1.2,Win32,59.81934558,,,,,,,,,,,right,2.5365,54,0,54,0,1,,,,,,,,,,,,,,,,,,,,,
,,,,,,,,,,,,,,,,,,,,,,,,,60fcad8b8bac0383c5b9272b,2021-09-11_16h38.29.932,arrow_simon_vert,2021.1.2,Win32,59.81934558,,,,,,,,,,,down,2.4554,55,0,55,0,1,,,,,,,,,,,,,,,,,,,,,
,,,,,,,,,,,,,,,,,,,,,,,,,60fcad8b8bac0383c5b9272b,2021-09-11_16h38.29.932,arrow_simon_vert,2021.1.2,Win32,59.81934558,,,,,,,,,,,right,2.5212,56,0,56,0,1,,,,,,,,,,,,,,,,,,,,,
,,,,,,,,,,,,,,,,,,,,,,,,,60fcad8b8bac0383c5b9272b,2021-09-11_16h38.29.932,arrow_simon_vert,2021.1.2,Win32,59.81934558,,,,,,,,,,,down,2.5369,57,0,57,0,1,,,,,,,,,,,,,,,,,,,,,
,,,,,,,,,,,,,,,,,,,,,,,,,60fcad8b8bac0383c5b9272b,2021-09-11_16h38.29.932,arrow_simon_vert,2021.1.2,Win32,59.81934558,,,,,,,,,,,right,2.5161,58,0,58,0,1,,,,,,,,,,,,,,,,,,,,,
,,,,,,,,,,,,,,,,,,,,,,,,,60fcad8b8bac0383c5b9272b,2021-09-11_16h38.29.932,arrow_simon_vert,2021.1.2,Win32,59.81934558,,,,,,,,,,,down,2.623,59,0,59,0,1,,,,,,,,,,,,,,,,,,,,,
,,,,,,0,2.253727077,#a3d0fb,"[""-0.25"",""0""]",left_blue.png,left,,,,,,,,left,left_blue.png,down_orange.png,down,left,down,60fcad8b8bac0383c5b9272b,2021-09-11_16h38.29.932,arrow_simon_vert,2021.1.2,Win32,59.81934558,,,,,,,,,,,,,,,,,,space,0,71.4063,left,1,1.6855,1,TRUE,FALSE,0,0,0,2,1,,,,,,,
,,,,,,0,1.516278933,#f3af84,"[""0"",""-0.25""]",down_orange.png,down,,,,,,,,left,left_blue.png,down_orange.png,down,left,down,60fcad8b8bac0383c5b9272b,2021-09-11_16h38.29.932,arrow_simon_vert,2021.1.2,Win32,59.81934558,,,,,,,,,,,,,,,,,,,,,left,0,1.1384,2,FALSE,TRUE,0,1,1,2,1,,,,,,,
,,,,,,0,2.259484178,#a3d0fb,"[""0.25"",""0""]",left_blue.png,left,,,,,,,,left,left_blue.png,down_orange.png,down,right,up,60fcad8b8bac0383c5b9272b,2021-09-11_16h38.29.932,arrow_simon_vert,2021.1.2,Win32,59.81934558,,,,,,,,,,,,,,,,,,,,,left,1,1.7992,3,TRUE,FALSE,0,2,2,3,1,,,,,,,
,,,,,,0,2.030627017,#f3af84,"[""0"",""-0.25""]",down_orange.png,down,,,,,,,,left,left_blue.png,down_orange.png,down,left,down,60fcad8b8bac0383c5b9272b,2021-09-11_16h38.29.932,arrow_simon_vert,2021.1.2,Win32,59.81934558,,,,,,,,,,,,,,,,,,,,,down,1,1.4534,4,FALSE,FALSE,0,3,3,2,1,,,,,,,
,,,,,,0,1.913480126,#a3d0fb,"[""-0.25"",""0""]",left_blue.png,left,,,,,,,,left,left_blue.png,down_orange.png,down,left,down,60fcad8b8bac0383c5b9272b,2021-09-11_16h38.29.932,arrow_simon_vert,2021.1.2,Win32,59.81934558,,,,,,,,,,,,,,,,,,,,,left,1,1.6021,5,TRUE,FALSE,1,0,4,2,1,,,,,,,
,,,,,,0,2.178630064,#f3af84,"[""0"",""0.25""]",up_orange.png,up,,,,,,,,right,right_blue.png,up_orange.png,up,right,up,60fcad8b8bac0383c5b9272b,2021-09-11_16h38.29.932,arrow_simon_vert,2021.1.2,Win32,59.81934558,,,,,,,,,,,,,,,,,,,,,up,1,1.5571,6,FALSE,FALSE,1,1,5,1,1,,,,,,,
,,,,,,1,2.202894491,#a3d0fb,"[""-0.25"",""0""]",right_blue.png,right,,,,,,,,right,right_blue.png,up_orange.png,up,left,down,60fcad8b8bac0383c5b9272b,2021-09-11_16h38.29.932,arrow_simon_vert,2021.1.2,Win32,59.81934558,,,,,,,,,,,,,,,,,,,,,left,0,1.5234,7,FALSE,FALSE,1,2,6,0,1,,,,,,,
,,,,,,1,1.755256921,#f3af84,"[""0"",""0.25""]",up_orange.png,up,,,,,,,,right,right_blue.png,up_orange.png,up,right,up,60fcad8b8bac0383c5b9272b,2021-09-11_16h38.29.932,arrow_simon_vert,2021.1.2,Win32,59.81934558,,,,,,,,,,,,,,,,,,,,,up,1,1.2398,8,FALSE,TRUE,1,3,7,1,1,,,,,,,
,,,,,,1,2.213454607,#a3d0fb,"[""0.25"",""0""]",left_blue.png,left,,,,,,,,left,left_blue.png,down_orange.png,down,right,up,60fcad8b8bac0383c5b9272b,2021-09-11_16h38.29.932,arrow_simon_vert,2021.1.2,Win32,59.81934558,,,,,,,,,,,,,,,,,,,,,left,1,1.6457,9,TRUE,FALSE,2,0,8,3,1,,,,,,,
,,,,,,1,2.448653293,#f3af84,"[""0"",""0.25""]",up_orange.png,up,,,,,,,,right,right_blue.png,up_orange.png,up,right,up,60fcad8b8bac0383c5b9272b,2021-09-11_16h38.29.932,arrow_simon_vert,2021.1.2,Win32,59.81934558,,,,,,,,,,,,,,,,,,,,,up,1,1.8329,10,TRUE,FALSE,2,1,9,1,1,,,,,,,
,,,,,,1,1.85082055,#a3d0fb,"[""0.25"",""0""]",left_blue.png,left,,,,,,,,left,left_blue.png,down_orange.png,down,right,up,60fcad8b8bac0383c5b9272b,2021-09-11_16h38.29.932,arrow_simon_vert,2021.1.2,Win32,59.81934558,,,,,,,,,,,,,,,,,,,,,left,1,1.8655,11,TRUE,FALSE,2,2,10,3,1,,,,,,,
,,,,,,1,1.641321895,#f3af84,"[""0"",""0.25""]",down_orange.png,down,,,,,,,,left,left_blue.png,down_orange.png,down,right,up,60fcad8b8bac0383c5b9272b,2021-09-11_16h38.29.932,arrow_simon_vert,2021.1.2,Win32,59.81934558,,,,,,,,,,,,,,,,,,,,,down,1,1.8368,12,TRUE,FALSE,2,3,11,3,1,,,,,,,
,,,,,,1,2.200025114,#a3d0fb,"[""0.25"",""0""]",left_blue.png,left,,,,,,,,left,left_blue.png,down_orange.png,down,right,up,60fcad8b8bac0383c5b9272b,2021-09-11_16h38.29.932,arrow_simon_vert,2021.1.2,Win32,59.81934558,,,,,,,,,,,,,,,,,,,,,left,1,1.7604,13,TRUE,FALSE,3,0,12,3,1,,,,,,,
,,,,,,1,2.029271659,#f3af84,"[""0"",""0.25""]",up_orange.png,up,,,,,,,,right,right_blue.png,up_orange.png,up,right,up,60fcad8b8bac0383c5b9272b,2021-09-11_16h38.29.932,arrow_simon_vert,2021.1.2,Win32,59.81934558,,,,,,,,,,,,,,,,,,,,,up,1,1.62,14,TRUE,FALSE,3,1,13,1,1,,,,,,,
,,,,,,1,1.667388222,#a3d0fb,"[""-0.25"",""0""]",left_blue.png,left,,,,,,,,left,left_blue.png,down_orange.png,down,left,down,60fcad8b8bac0383c5b9272b,2021-09-11_16h38.29.932,arrow_simon_vert,2021.1.2,Win32,59.81934558,,,,,,,,,,,,,,,,,,,,,left,1,1.3931,15,FALSE,TRUE,3,2,14,2,1,,,,,,,
,,,,,,1,2.200568921,#f3af84,"[""0"",""0.25""]",up_orange.png,up,,,,,,,,right,right_blue.png,up_orange.png,up,right,up,60fcad8b8bac0383c5b9272b,2021-09-11_16h38.29.932,arrow_simon_vert,2021.1.2,Win32,59.81934558,,,,,,,,,,,,,,,,,,,,,up,1,1.6493,16,TRUE,FALSE,3,3,15,1,1,,,,,,,
,,,,,,0,1.509289339,#a3d0fb,"[""-0.25"",""0""]",right_blue.png,right,,,,,,,,right,right_blue.png,up_orange.png,up,left,down,60fcad8b8bac0383c5b9272b,2021-09-11_16h38.29.932,arrow_simon_vert,2021.1.2,Win32,59.81934558,,,,,,,,,,,,,,,,,,,,,right,1,1.459,17,FALSE,FALSE,4,0,16,0,1,,,,,,,
,,,,,,0,1.924876452,#f3af84,"[""0"",""-0.25""]",down_orange.png,down,,,,,,,,left,left_blue.png,down_orange.png,down,left,down,60fcad8b8bac0383c5b9272b,2021-09-11_16h38.29.932,arrow_simon_vert,2021.1.2,Win32,59.81934558,,,,,,,,,,,,,,,,,,,,,up,0,1.7048,18,TRUE,FALSE,4,1,17,2,1,,,,,,,
,,,,,,0,1.633772222,#a3d0fb,"[""0.25"",""0""]",left_blue.png,left,,,,,,,,left,left_blue.png,down_orange.png,down,right,up,60fcad8b8bac0383c5b9272b,2021-09-11_16h38.29.932,arrow_simon_vert,2021.1.2,Win32,59.81934558,,,,,,,,,,,,,,,,,,,,,left,1,1.7163,19,TRUE,FALSE,4,2,18,3,1,,,,,,,
,,,,,,0,2.192287746,#f3af84,"[""0"",""-0.25""]",up_orange.png,up,,,,,,,,right,right_blue.png,up_orange.png,up,left,down,60fcad8b8bac0383c5b9272b,2021-09-11_16h38.29.932,arrow_simon_vert,2021.1.2,Win32,59.81934558,,,,,,,,,,,,,,,,,,,,,up,1,1.9272,20,TRUE,FALSE,4,3,19,0,1,,,,,,,
,,,,,,0,2.146050028,#a3d0fb,"[""-0.25"",""0""]",left_blue.png,left,,,,,,,,left,left_blue.png,down_orange.png,down,left,down,60fcad8b8bac0383c5b9272b,2021-09-11_16h38.29.932,arrow_simon_vert,2021.1.2,Win32,59.81934558,,,,,,,,,,,,,,,,,,,,,left,1,1.5913,21,FALSE,FALSE,5,0,20,2,1,,,,,,,
,,,,,,0,1.773827871,#f3af84,"[""0"",""0.25""]",down_orange.png,down,,,,,,,,left,left_blue.png,down_orange.png,down,right,up,60fcad8b8bac0383c5b9272b,2021-09-11_16h38.29.932,arrow_simon_vert,2021.1.2,Win32,59.81934558,,,,,,,,,,,,,,,,,,,,,down,1,1.5552,22,FALSE,FALSE,5,1,21,3,1,,,,,,,
,,,,,,0,2.030583243,#a3d0fb,"[""0.25"",""0""]",left_blue.png,left,,,,,,,,left,left_blue.png,down_orange.png,down,right,up,60fcad8b8bac0383c5b9272b,2021-09-11_16h38.29.932,arrow_simon_vert,2021.1.2,Win32,59.81934558,,,,,,,,,,,,,,,,,,,,,left,1,1.6327,23,TRUE,FALSE,5,2,22,3,1,,,,,,,
,,,,,,0,1.582524864,#f3af84,"[""0"",""-0.25""]",up_orange.png,up,,,,,,,,right,right_blue.png,up_orange.png,up,left,down,60fcad8b8bac0383c5b9272b,2021-09-11_16h38.29.932,arrow_simon_vert,2021.1.2,Win32,59.81934558,,,,,,,,,,,,,,,,,,,,,up,1,1.7383,24,TRUE,FALSE,5,3,23,0,1,,,,,,,
,,,,,,1,2.188293301,#a3d0fb,"[""-0.25"",""0""]",left_blue.png,left,,,,,,,,left,left_blue.png,down_orange.png,down,left,down,60fcad8b8bac0383c5b9272b,2021-09-11_16h38.29.932,arrow_simon_vert,2021.1.2,Win32,59.81934558,,,,,,,,,,,,,,,,,,,,,up,0,1.4885,25,FALSE,FALSE,6,0,24,2,1,,,,,,,
,,,,,,1,1.662639398,#f3af84,"[""0"",""0.25""]",up_orange.png,up,,,,,,,,right,right_blue.png,up_orange.png,up,right,up,60fcad8b8bac0383c5b9272b,2021-09-11_16h38.29.932,arrow_simon_vert,2021.1.2,Win32,59.81934558,,,,,,,,,,,,,,,,,,,,,up,1,1.2574,26,FALSE,TRUE,6,1,25,1,1,,,,,,,
,,,,,,0,1.968994927,#a3d0fb,"[""0.25"",""0""]",right_blue.png,right,,,,,,,,right,right_blue.png,up_orange.png,up,right,up,60fcad8b8bac0383c5b9272b,2021-09-11_16h38.29.932,arrow_simon_vert,2021.1.2,Win32,59.81934558,,,,,,,,,,,,,,,,,,,,,right,1,1.5716,27,FALSE,FALSE,6,2,26,1,1,,,,,,,
,,,,,,0,2.257142305,#f3af84,"[""0"",""-0.25""]",down_orange.png,down,,,,,,,,left,left_blue.png,down_orange.png,down,left,down,60fcad8b8bac0383c5b9272b,2021-09-11_16h38.29.932,arrow_simon_vert,2021.1.2,Win32,59.81934558,,,,,,,,,,,,,,,,,,,,,up,0,1.8562,28,TRUE,FALSE,6,3,27,2,1,,,,,,,
,,,,,,0,2.426730195,#a3d0fb,"[""0.25"",""0""]",right_blue.png,right,,,,,,,,right,right_blue.png,up_orange.png,up,right,up,60fcad8b8bac0383c5b9272b,2021-09-11_16h38.29.932,arrow_simon_vert,2021.1.2,Win32,59.81934558,,,,,,,,,,,,,,,,,,,,,right,1,1.9532,29,TRUE,FALSE,7,0,28,1,1,,,,,,,
,,,,,,0,2.366101894,#f3af84,"[""0"",""-0.25""]",up_orange.png,up,,,,,,,,right,right_blue.png,up_orange.png,up,left,down,60fcad8b8bac0383c5b9272b,2021-09-11_16h38.29.932,arrow_simon_vert,2021.1.2,Win32,59.81934558,,,,,,,,,,,,,,,,,,,,,left,0,1.7341,30,TRUE,FALSE,7,1,29,0,1,,,,,,,
,,,,,,0,1.852686292,#a3d0fb,"[""-0.25"",""0""]",right_blue.png,right,,,,,,,,right,right_blue.png,up_orange.png,up,left,down,60fcad8b8bac0383c5b9272b,2021-09-11_16h38.29.932,arrow_simon_vert,2021.1.2,Win32,59.81934558,,,,,,,,,,,,,,,,,,,,,right,1,1.8666,31,TRUE,FALSE,7,2,30,0,1,,,,,,,
,,,,,,0,1.731064582,#f3af84,"[""0"",""0.25""]",up_orange.png,up,,,,,,,,right,right_blue.png,up_orange.png,up,right,up,60fcad8b8bac0383c5b9272b,2021-09-11_16h38.29.932,arrow_simon_vert,2021.1.2,Win32,59.81934558,,,,,,,,,,,,,,,,,,,,,up,1,1.1891,32,FALSE,TRUE,7,3,31,1,1,,,,,,,
,,,,,,0,2.444204908,#a3d0fb,"[""0.25"",""0""]",right_blue.png,right,,,,,,,,right,right_blue.png,up_orange.png,up,right,up,60fcad8b8bac0383c5b9272b,2021-09-11_16h38.29.932,arrow_simon_vert,2021.1.2,Win32,59.81934558,,,,,,,,,,,,,,,,,,,,,right,1,1.7413,33,TRUE,FALSE,8,0,32,1,1,,,,,,,
,,,,,,0,2.056147864,#f3af84,"[""0"",""-0.25""]",down_orange.png,down,,,,,,,,left,left_blue.png,down_orange.png,down,left,down,60fcad8b8bac0383c5b9272b,2021-09-11_16h38.29.932,arrow_simon_vert,2021.1.2,Win32,59.81934558,,,,,,,,,,,,,,,,,,,,,down,1,1.7014,34,TRUE,FALSE,8,1,33,2,1,,,,,,,
,,,,,,0,2.27416239,#a3d0fb,"[""0.25"",""0""]",left_blue.png,left,,,,,,,,left,left_blue.png,down_orange.png,down,right,up,60fcad8b8bac0383c5b9272b,2021-09-11_16h38.29.932,arrow_simon_vert,2021.1.2,Win32,59.81934558,,,,,,,,,,,,,,,,,,,,,left,1,1.7489,35,TRUE,FALSE,8,2,34,3,1,,,,,,,
,,,,,,0,2.476571759,#f3af84,"[""0"",""-0.25""]",up_orange.png,up,,,,,,,,right,right_blue.png,up_orange.png,up,left,down,60fcad8b8bac0383c5b9272b,2021-09-11_16h38.29.932,arrow_simon_vert,2021.1.2,Win32,59.81934558,,,,,,,,,,,,,,,,,,,,,up,1,1.9922,36,TRUE,FALSE,8,3,35,0,1,,,,,,,
,,,,,,0,1.770072501,#a3d0fb,"[""0.25"",""0""]",left_blue.png,left,,,,,,,,left,left_blue.png,down_orange.png,down,right,up,60fcad8b8bac0383c5b9272b,2021-09-11_16h38.29.932,arrow_simon_vert,2021.1.2,Win32,59.81934558,,,,,,,,,,,,,,,,,,,,,left,1,1.5331,37,FALSE,FALSE,9,0,36,3,1,,,,,,,
,,,,,,1,1.919435309,#f3af84,"[""0"",""0.25""]",down_orange.png,down,,,,,,,,left,left_blue.png,down_orange.png,down,right,up,60fcad8b8bac0383c5b9272b,2021-09-11_16h38.29.932,arrow_simon_vert,2021.1.2,Win32,59.81934558,,,,,,,,,,,,,,,,,,,,,left,0,1.4398,38,FALSE,FALSE,9,1,37,3,1,,,,,,,
,,,,,,1,2.394760312,#a3d0fb,"[""0.25"",""0""]",left_blue.png,left,,,,,,,,left,left_blue.png,down_orange.png,down,right,up,60fcad8b8bac0383c5b9272b,2021-09-11_16h38.29.932,arrow_simon_vert,2021.1.2,Win32,59.81934558,,,,,,,,,,,,,,,,,,,,,left,1,1.9655,39,TRUE,FALSE,9,2,38,3,1,,,,,,,
,,,,,,1,2.19421586,#f3af84,"[""0"",""-0.25""]",up_orange.png,up,,,,,,,,right,right_blue.png,up_orange.png,up,left,down,60fcad8b8bac0383c5b9272b,2021-09-11_16h38.29.932,arrow_simon_vert,2021.1.2,Win32,59.81934558,,,,,,,,,,,,,,,,,,,,,down,0,1.4573,40,FALSE,FALSE,9,3,39,0,1,,,,,,,
,,,,,,1,2.1514604,#a3d0fb,"[""-0.25"",""0""]",right_blue.png,right,,,,,,,,right,right_blue.png,up_orange.png,up,left,down,60fcad8b8bac0383c5b9272b,2021-09-11_16h38.29.932,arrow_simon_vert,2021.1.2,Win32,59.81934558,,,,,,,,,,,,,,,,,,,,,right,1,1.6732,41,TRUE,FALSE,10,0,40,0,1,,,,,,,
,,,,,,1,2.438685378,#f3af84,"[""0"",""-0.25""]",up_orange.png,up,,,,,,,,right,right_blue.png,up_orange.png,up,left,down,60fcad8b8bac0383c5b9272b,2021-09-11_16h38.29.932,arrow_simon_vert,2021.1.2,Win32,59.81934558,,,,,,,,,,,,,,,,,,,,,up,1,1.9405,42,TRUE,FALSE,10,1,41,0,1,,,,,,,
,,,,,,1,2.180764968,#a3d0fb,"[""-0.25"",""0""]",left_blue.png,left,,,,,,,,left,left_blue.png,down_orange.png,down,left,down,60fcad8b8bac0383c5b9272b,2021-09-11_16h38.29.932,arrow_simon_vert,2021.1.2,Win32,59.81934558,,,,,,,,,,,,,,,,,,,,,left,1,1.6376,43,TRUE,FALSE,10,2,42,2,1,,,,,,,
,,,,,,1,2.034613173,#f3af84,"[""0"",""-0.25""]",down_orange.png,down,,,,,,,,left,left_blue.png,down_orange.png,down,left,down,60fcad8b8bac0383c5b9272b,2021-09-11_16h38.29.932,arrow_simon_vert,2021.1.2,Win32,59.81934558,,,,,,,,,,,,,,,,,,,,,up,0,1.5367,44,FALSE,FALSE,10,3,43,2,1,,,,,,,
,,,,,,1,1.730833507,#a3d0fb,"[""-0.25"",""0""]",left_blue.png,left,,,,,,,,left,left_blue.png,down_orange.png,down,left,down,60fcad8b8bac0383c5b9272b,2021-09-11_16h38.29.932,arrow_simon_vert,2021.1.2,Win32,59.81934558,,,,,,,,,,,,,,,,,,,,,left,1,1.1547,45,FALSE,TRUE,11,0,44,2,1,,,,,,,
,,,,,,1,2.097120467,#f3af84,"[""0"",""0.25""]",down_orange.png,down,,,,,,,,left,left_blue.png,down_orange.png,down,right,up,60fcad8b8bac0383c5b9272b,2021-09-11_16h38.29.932,arrow_simon_vert,2021.1.2,Win32,59.81934558,,,,,,,,,,,,,,,,,,,,,up,0,1.5207,46,FALSE,FALSE,11,1,45,3,1,,,,,,,
,,,,,,0,2.085872959,#a3d0fb,"[""-0.25"",""0""]",right_blue.png,right,,,,,,,,right,right_blue.png,up_orange.png,up,left,down,60fcad8b8bac0383c5b9272b,2021-09-11_16h38.29.932,arrow_simon_vert,2021.1.2,Win32,59.81934558,,,,,,,,,,,,,,,,,,,,,right,1,1.526,47,FALSE,FALSE,11,2,46,0,1,,,,,,,
,,,,,,0,2.209700646,#f3af84,"[""0"",""-0.25""]",up_orange.png,up,,,,,,,,right,right_blue.png,up_orange.png,up,left,down,60fcad8b8bac0383c5b9272b,2021-09-11_16h38.29.932,arrow_simon_vert,2021.1.2,Win32,59.81934558,,,,,,,,,,,,,,,,,,,,,up,1,1.6844,48,TRUE,FALSE,11,3,47,0,1,,,,,,,
,,,,,,0,2.494847989,#a3d0fb,"[""0.25"",""0""]",right_blue.png,right,,,,,,,,right,right_blue.png,up_orange.png,up,right,up,60fcad8b8bac0383c5b9272b,2021-09-11_16h38.29.932,arrow_simon_vert,2021.1.2,Win32,59.81934558,,,,,,,,,,,,,,,,,,,,,right,1,1.8263,49,TRUE,FALSE,12,0,48,1,1,,,,,,,
,,,,,,0,1.543054038,#f3af84,"[""0"",""0.25""]",up_orange.png,up,,,,,,,,right,right_blue.png,up_orange.png,up,right,up,60fcad8b8bac0383c5b9272b,2021-09-11_16h38.29.932,arrow_simon_vert,2021.1.2,Win32,59.81934558,,,,,,,,,,,,,,,,,,,,,up,1,1.1872,50,FALSE,TRUE,12,1,49,1,1,,,,,,,
,,,,,,0,2.314477066,#a3d0fb,"[""0.25"",""0""]",left_blue.png,left,,,,,,,,left,left_blue.png,down_orange.png,down,right,up,60fcad8b8bac0383c5b9272b,2021-09-11_16h38.29.932,arrow_simon_vert,2021.1.2,Win32,59.81934558,,,,,,,,,,,,,,,,,,,,,left,1,1.8277,51,TRUE,FALSE,12,2,50,3,1,,,,,,,
,,,,,,1,2.146402088,#f3af84,"[""0"",""-0.25""]",up_orange.png,up,,,,,,,,right,right_blue.png,up_orange.png,up,left,down,60fcad8b8bac0383c5b9272b,2021-09-11_16h38.29.932,arrow_simon_vert,2021.1.2,Win32,59.81934558,,,,,,,,,,,,,,,,,,,,,down,0,1.592,52,FALSE,FALSE,12,3,51,0,1,,,,,,,
,,,,,,0,1.949142181,#a3d0fb,"[""-0.25"",""0""]",right_blue.png,right,,,,,,,,right,right_blue.png,up_orange.png,up,left,down,60fcad8b8bac0383c5b9272b,2021-09-11_16h38.29.932,arrow_simon_vert,2021.1.2,Win32,59.81934558,,,,,,,,,,,,,,,,,,,,,right,1,1.4591,53,FALSE,FALSE,13,0,52,0,1,,,,,,,
,,,,,,0,2.063534781,#f3af84,"[""0"",""0.25""]",up_orange.png,up,,,,,,,,right,right_blue.png,up_orange.png,up,right,up,60fcad8b8bac0383c5b9272b,2021-09-11_16h38.29.932,arrow_simon_vert,2021.1.2,Win32,59.81934558,,,,,,,,,,,,,,,,,,,,,up,1,1.4615,54,FALSE,FALSE,13,1,53,1,1,,,,,,,
,,,,,,0,1.730434315,#a3d0fb,"[""0.25"",""0""]",right_blue.png,right,,,,,,,,right,right_blue.png,up_orange.png,up,right,up,60fcad8b8bac0383c5b9272b,2021-09-11_16h38.29.932,arrow_simon_vert,2021.1.2,Win32,59.81934558,,,,,,,,,,,,,,,,,,,,,right,1,1.8372,55,TRUE,FALSE,13,2,54,1,1,,,,,,,
,,,,,,0,2.477096127,#f3af84,"[""0"",""0.25""]",down_orange.png,down,,,,,,,,left,left_blue.png,down_orange.png,down,right,up,60fcad8b8bac0383c5b9272b,2021-09-11_16h38.29.932,arrow_simon_vert,2021.1.2,Win32,59.81934558,,,,,,,,,,,,,,,,,,,,,down,1,2.0826,56,TRUE,FALSE,13,3,55,3,1,,,,,,,
,,,,,,0,2.124275689,#a3d0fb,"[""-0.25"",""0""]",left_blue.png,left,,,,,,,,left,left_blue.png,down_orange.png,down,left,down,60fcad8b8bac0383c5b9272b,2021-09-11_16h38.29.932,arrow_simon_vert,2021.1.2,Win32,59.81934558,,,,,,,,,,,,,,,,,,,,,left,1,1.599,57,FALSE,FALSE,14,0,56,2,1,,,,,,,
,,,,,,0,1.980875818,#f3af84,"[""0"",""-0.25""]",up_orange.png,up,,,,,,,,right,right_blue.png,up_orange.png,up,left,down,60fcad8b8bac0383c5b9272b,2021-09-11_16h38.29.932,arrow_simon_vert,2021.1.2,Win32,59.81934558,,,,,,,,,,,,,,,,,,,,,up,1,1.4623,58,FALSE,FALSE,14,1,57,0,1,,,,,,,
,,,,,,0,2.097584441,#a3d0fb,"[""-0.25"",""0""]",left_blue.png,left,,,,,,,,left,left_blue.png,down_orange.png,down,left,down,60fcad8b8bac0383c5b9272b,2021-09-11_16h38.29.932,arrow_simon_vert,2021.1.2,Win32,59.81934558,,,,,,,,,,,,,,,,,,,,,left,1,1.6661,59,TRUE,FALSE,14,2,58,2,1,,,,,,,
,,,,,,0,1.629585038,#f3af84,"[""0"",""0.25""]",up_orange.png,up,,,,,,,,right,right_blue.png,up_orange.png,up,right,up,60fcad8b8bac0383c5b9272b,2021-09-11_16h38.29.932,arrow_simon_vert,2021.1.2,Win32,59.81934558,,,,,,,,,,,,,,,,,,,,,up,1,1.4837,60,FALSE,FALSE,14,3,59,1,1,,,,,,,
,,,,,,,,,,,,,,,,,,,,,,,,,60fcad8b8bac0383c5b9272b,2021-09-11_16h38.29.932,arrow_simon_vert,2021.1.2,Win32,59.81934558,,,,,,,,,,,,,,,,,,,,,,,,,,,,,,,,space,26.5725,0,0,0,0,1
,,,,,,0,1.850121457,#a3d0fb,"[""0.25"",""0""]",left_blue.png,left,,,,,,,,left,left_blue.png,down_orange.png,down,right,up,60fcad8b8bac0383c5b9272b,2021-09-11_16h38.29.932,arrow_simon_vert,2021.1.2,Win32,59.81934558,,,,,,,,,,,,,,,,,,,,,left,1,1.5068,1,FALSE,FALSE,0,0,0,3,1,,,,,,,
,,,,,,0,2.283948256,#f3af84,"[""0"",""0.25""]",down_orange.png,down,,,,,,,,left,left_blue.png,down_orange.png,down,right,up,60fcad8b8bac0383c5b9272b,2021-09-11_16h38.29.932,arrow_simon_vert,2021.1.2,Win32,59.81934558,,,,,,,,,,,,,,,,,,,,,up,0,1.6061,2,TRUE,FALSE,0,1,1,3,1,,,,,,,
,,,,,,0,2.316765194,#a3d0fb,"[""0.25"",""0""]",right_blue.png,right,,,,,,,,right,right_blue.png,up_orange.png,up,right,up,60fcad8b8bac0383c5b9272b,2021-09-11_16h38.29.932,arrow_simon_vert,2021.1.2,Win32,59.81934558,,,,,,,,,,,,,,,,,,,,,right,1,1.7562,3,TRUE,FALSE,0,2,2,1,1,,,,,,,
,,,,,,0,1.758826213,#f3af84,"[""0"",""0.25""]",up_orange.png,up,,,,,,,,right,right_blue.png,up_orange.png,up,right,up,60fcad8b8bac0383c5b9272b,2021-09-11_16h38.29.932,arrow_simon_vert,2021.1.2,Win32,59.81934558,,,,,,,,,,,,,,,,,,,,,up,1,1.2829,4,FALSE,TRUE,0,3,3,1,1,,,,,,,
,,,,,,0,2.480808897,#a3d0fb,"[""-0.25"",""0""]",right_blue.png,right,,,,,,,,right,right_blue.png,up_orange.png,up,left,down,60fcad8b8bac0383c5b9272b,2021-09-11_16h38.29.932,arrow_simon_vert,2021.1.2,Win32,59.81934558,,,,,,,,,,,,,,,,,,,,,right,1,1.8431,5,TRUE,FALSE,1,0,4,0,1,,,,,,,
,,,,,,0,2.277032345,#f3af84,"[""0"",""0.25""]",down_orange.png,down,,,,,,,,left,left_blue.png,down_orange.png,down,right,up,60fcad8b8bac0383c5b9272b,2021-09-11_16h38.29.932,arrow_simon_vert,2021.1.2,Win32,59.81934558,,,,,,,,,,,,,,,,,,,,,up,0,1.6341,6,TRUE,FALSE,1,1,5,3,1,,,,,,,
,,,,,,0,2.203223011,#a3d0fb,"[""-0.25"",""0""]",left_blue.png,left,,,,,,,,left,left_blue.png,down_orange.png,down,left,down,60fcad8b8bac0383c5b9272b,2021-09-11_16h38.29.932,arrow_simon_vert,2021.1.2,Win32,59.81934558,,,,,,,,,,,,,,,,,,,,,left,1,1.6069,7,TRUE,FALSE,1,2,6,2,1,,,,,,,
,,,,,,0,2.13569508,#f3af84,"[""0"",""0.25""]",up_orange.png,up,,,,,,,,right,right_blue.png,up_orange.png,up,right,up,60fcad8b8bac0383c5b9272b,2021-09-11_16h38.29.932,arrow_simon_vert,2021.1.2,Win32,59.81934558,,,,,,,,,,,,,,,,,,,,,up,1,1.656,8,TRUE,FALSE,1,3,7,1,1,,,,,,,
,,,,,,0,2.365697594,#a3d0fb,"[""0.25"",""0""]",left_blue.png,left,,,,,,,,left,left_blue.png,down_orange.png,down,right,up,60fcad8b8bac0383c5b9272b,2021-09-11_16h38.29.932,arrow_simon_vert,2021.1.2,Win32,59.81934558,,,,,,,,,,,,,,,,,,,,,right,0,1.7267,9,TRUE,FALSE,2,0,8,3,1,,,,,,,
,,,,,,0,2.363532297,#f3af84,"[""0"",""-0.25""]",up_orange.png,up,,,,,,,,right,right_blue.png,up_orange.png,up,left,down,60fcad8b8bac0383c5b9272b,2021-09-11_16h38.29.932,arrow_simon_vert,2021.1.2,Win32,59.81934558,,,,,,,,,,,,,,,,,,,,,up,1,1.8044,10,TRUE,FALSE,2,1,9,0,1,,,,,,,
,,,,,,1,2.217211097,#a3d0fb,"[""0.25"",""0""]",left_blue.png,left,,,,,,,,left,left_blue.png,down_orange.png,down,right,up,60fcad8b8bac0383c5b9272b,2021-09-11_16h38.29.932,arrow_simon_vert,2021.1.2,Win32,59.81934558,,,,,,,,,,,,,,,,,,,,,right,0,1.5398,11,FALSE,FALSE,2,2,10,3,1,,,,,,,
,,,,,,0,2.145503817,#f3af84,"[""0"",""-0.25""]",down_orange.png,down,,,,,,,,left,left_blue.png,down_orange.png,down,left,down,60fcad8b8bac0383c5b9272b,2021-09-11_16h38.29.932,arrow_simon_vert,2021.1.2,Win32,59.81934558,,,,,,,,,,,,,,,,,,,,,down,1,1.5825,12,FALSE,FALSE,2,3,11,2,1,,,,,,,
,,,,,,0,2.116446453,#a3d0fb,"[""0.25"",""0""]",left_blue.png,left,,,,,,,,left,left_blue.png,down_orange.png,down,right,up,60fcad8b8bac0383c5b9272b,2021-09-11_16h38.29.932,arrow_simon_vert,2021.1.2,Win32,59.81934558,,,,,,,,,,,,,,,,,,,,,left,1,1.69,13,TRUE,FALSE,3,0,12,3,1,,,,,,,
,,,,,,0,1.920096757,#f3af84,"[""0"",""-0.25""]",up_orange.png,up,,,,,,,,right,right_blue.png,up_orange.png,up,left,down,60fcad8b8bac0383c5b9272b,2021-09-11_16h38.29.932,arrow_simon_vert,2021.1.2,Win32,59.81934558,,,,,,,,,,,,,,,,,,,,,up,1,1.3393,14,FALSE,TRUE,3,1,13,0,1,,,,,,,
,,,,,,0,2.010355883,#a3d0fb,"[""-0.25"",""0""]",right_blue.png,right,,,,,,,,right,right_blue.png,up_orange.png,up,left,down,60fcad8b8bac0383c5b9272b,2021-09-11_16h38.29.932,arrow_simon_vert,2021.1.2,Win32,59.81934558,,,,,,,,,,,,,,,,,,,,,right,1,1.704,15,TRUE,FALSE,3,2,14,0,1,,,,,,,
,,,,,,0,1.530825898,#f3af84,"[""0"",""-0.25""]",down_orange.png,down,,,,,,,,left,left_blue.png,down_orange.png,down,left,down,60fcad8b8bac0383c5b9272b,2021-09-11_16h38.29.932,arrow_simon_vert,2021.1.2,Win32,59.81934558,,,,,,,,,,,,,,,,,,,,,down,1,2.058,16,TRUE,FALSE,3,3,15,2,1,,,,,,,
,,,,,,0,1.641204679,#a3d0fb,"[""0.25"",""0""]",left_blue.png,left,,,,,,,,left,left_blue.png,down_orange.png,down,right,up,60fcad8b8bac0383c5b9272b,2021-09-11_16h38.29.932,arrow_simon_vert,2021.1.2,Win32,59.81934558,,,,,,,,,,,,,,,,,,,,,left,1,1.0327,17,FALSE,TRUE,4,0,16,3,1,,,,,,,
,,,,,,0,2.219649998,#f3af84,"[""0"",""-0.25""]",down_orange.png,down,,,,,,,,left,left_blue.png,down_orange.png,down,left,down,60fcad8b8bac0383c5b9272b,2021-09-11_16h38.29.932,arrow_simon_vert,2021.1.2,Win32,59.81934558,,,,,,,,,,,,,,,,,,,,,up,0,1.7693,18,TRUE,FALSE,4,1,17,2,1,,,,,,,
,,,,,,0,1.977660401,#a3d0fb,"[""-0.25"",""0""]",right_blue.png,right,,,,,,,,right,right_blue.png,up_orange.png,up,left,down,60fcad8b8bac0383c5b9272b,2021-09-11_16h38.29.932,arrow_simon_vert,2021.1.2,Win32,59.81934558,,,,,,,,,,,,,,,,,,,,,right,1,1.6829,19,TRUE,FALSE,4,2,18,0,1,,,,,,,
,,,,,,0,1.709689105,#f3af84,"[""0"",""-0.25""]",up_orange.png,up,,,,,,,,right,right_blue.png,up_orange.png,up,left,down,60fcad8b8bac0383c5b9272b,2021-09-11_16h38.29.932,arrow_simon_vert,2021.1.2,Win32,59.81934558,,,,,,,,,,,,,,,,,,,,,up,1,1.2437,20,FALSE,TRUE,4,3,19,0,1,,,,,,,
,,,,,,0,1.82601305,#a3d0fb,"[""-0.25"",""0""]",left_blue.png,left,,,,,,,,left,left_blue.png,down_orange.png,down,left,down,60fcad8b8bac0383c5b9272b,2021-09-11_16h38.29.932,arrow_simon_vert,2021.1.2,Win32,59.81934558,,,,,,,,,,,,,,,,,,,,,left,1,1.5162,21,FALSE,FALSE,5,0,20,2,1,,,,,,,
,,,,,,0,1.939947985,#f3af84,"[""0"",""0.25""]",down_orange.png,down,,,,,,,,left,left_blue.png,down_orange.png,down,right,up,60fcad8b8bac0383c5b9272b,2021-09-11_16h38.29.932,arrow_simon_vert,2021.1.2,Win32,59.81934558,,,,,,,,,,,,,,,,,,,,,down,1,1.905,22,TRUE,FALSE,5,1,21,3,1,,,,,,,
,,,,,,0,2.346733652,#a3d0fb,"[""0.25"",""0""]",right_blue.png,right,,,,,,,,right,right_blue.png,up_orange.png,up,right,up,60fcad8b8bac0383c5b9272b,2021-09-11_16h38.29.932,arrow_simon_vert,2021.1.2,Win32,59.81934558,,,,,,,,,,,,,,,,,,,,,right,1,1.844,23,TRUE,FALSE,5,2,22,1,1,,,,,,,
,,,,,,0,2.059078421,#f3af84,"[""0"",""0.25""]",up_orange.png,up,,,,,,,,right,right_blue.png,up_orange.png,up,right,up,60fcad8b8bac0383c5b9272b,2021-09-11_16h38.29.932,arrow_simon_vert,2021.1.2,Win32,59.81934558,,,,,,,,,,,,,,,,,,,,,up,1,1.6496,24,TRUE,FALSE,5,3,23,1,1,,,,,,,
,,,,,,0,1.627500934,#a3d0fb,"[""-0.25"",""0""]",right_blue.png,right,,,,,,,,right,right_blue.png,up_orange.png,up,left,down,60fcad8b8bac0383c5b9272b,2021-09-11_16h38.29.932,arrow_simon_vert,2021.1.2,Win32,59.81934558,,,,,,,,,,,,,,,,,,,,,right,1,1.6254,25,TRUE,FALSE,6,0,24,0,1,,,,,,,
,,,,,,0,1.940199623,#f3af84,"[""0"",""-0.25""]",up_orange.png,up,,,,,,,,right,right_blue.png,up_orange.png,up,left,down,60fcad8b8bac0383c5b9272b,2021-09-11_16h38.29.932,arrow_simon_vert,2021.1.2,Win32,59.81934558,,,,,,,,,,,,,,,,,,,,,up,1,1.788,26,TRUE,FALSE,6,1,25,0,1,,,,,,,
,,,,,,0,2.202786448,#a3d0fb,"[""0.25"",""0""]",left_blue.png,left,,,,,,,,left,left_blue.png,down_orange.png,down,right,up,60fcad8b8bac0383c5b9272b,2021-09-11_16h38.29.932,arrow_simon_vert,2021.1.2,Win32,59.81934558,,,,,,,,,,,,,,,,,,,,,left,1,1.8403,27,TRUE,FALSE,6,2,26,3,1,,,,,,,
,,,,,,0,2.398125532,#f3af84,"[""0"",""0.25""]",up_orange.png,up,,,,,,,,right,right_blue.png,up_orange.png,up,right,up,60fcad8b8bac0383c5b9272b,2021-09-11_16h38.29.932,arrow_simon_vert,2021.1.2,Win32,59.81934558,,,,,,,,,,,,,,,,,,,,,right,0,1.3583,28,FALSE,TRUE,6,3,27,1,1,,,,,,,
,,,,,,0,1.595983451,#a3d0fb,"[""-0.25"",""0""]",left_blue.png,left,,,,,,,,left,left_blue.png,down_orange.png,down,left,down,60fcad8b8bac0383c5b9272b,2021-09-11_16h38.29.932,arrow_simon_vert,2021.1.2,Win32,59.81934558,,,,,,,,,,,,,,,,,,,,,left,1,1.2574,29,FALSE,TRUE,7,0,28,2,1,,,,,,,
,,,,,,0,2.494019041,#f3af84,"[""0"",""-0.25""]",down_orange.png,down,,,,,,,,left,left_blue.png,down_orange.png,down,left,down,60fcad8b8bac0383c5b9272b,2021-09-11_16h38.29.932,arrow_simon_vert,2021.1.2,Win32,59.81934558,,,,,,,,,,,,,,,,,,,,,up,0,1.8602,30,TRUE,FALSE,7,1,29,2,1,,,,,,,
,,,,,,0,2.372966477,#a3d0fb,"[""0.25"",""0""]",right_blue.png,right,,,,,,,,right,right_blue.png,up_orange.png,up,right,up,60fcad8b8bac0383c5b9272b,2021-09-11_16h38.29.932,arrow_simon_vert,2021.1.2,Win32,59.81934558,,,,,,,,,,,,,,,,,,,,,right,1,1.7707,31,TRUE,FALSE,7,2,30,1,1,,,,,,,
,,,,,,0,2.426401543,#f3af84,"[""0"",""-0.25""]",down_orange.png,down,,,,,,,,left,left_blue.png,down_orange.png,down,left,down,60fcad8b8bac0383c5b9272b,2021-09-11_16h38.29.932,arrow_simon_vert,2021.1.2,Win32,59.81934558,,,,,,,,,,,,,,,,,,,,,left,0,1.6605,32,TRUE,FALSE,7,3,31,2,1,,,,,,,
,,,,,,0,1.867923611,#a3d0fb,"[""0.25"",""0""]",right_blue.png,right,,,,,,,,right,right_blue.png,up_orange.png,up,right,up,60fcad8b8bac0383c5b9272b,2021-09-11_16h38.29.932,arrow_simon_vert,2021.1.2,Win32,59.81934558,,,,,,,,,,,,,,,,,,,,,up,0,1.322,33,FALSE,TRUE,8,0,32,1,1,,,,,,,
,,,,,,0,1.78510851,#f3af84,"[""0"",""0.25""]",up_orange.png,up,,,,,,,,right,right_blue.png,up_orange.png,up,right,up,60fcad8b8bac0383c5b9272b,2021-09-11_16h38.29.932,arrow_simon_vert,2021.1.2,Win32,59.81934558,,,,,,,,,,,,,,,,,,,,,up,1,1.2255,34,FALSE,TRUE,8,1,33,1,1,,,,,,,
,,,,,,0,1.65517328,#a3d0fb,"[""-0.25"",""0""]",left_blue.png,left,,,,,,,,left,left_blue.png,down_orange.png,down,left,down,60fcad8b8bac0383c5b9272b,2021-09-11_16h38.29.932,arrow_simon_vert,2021.1.2,Win32,59.81934558,,,,,,,,,,,,,,,,,,,,,left,1,1.2326,35,FALSE,TRUE,8,2,34,2,1,,,,,,,
,,,,,,0,2.051588156,#f3af84,"[""0"",""-0.25""]",down_orange.png,down,,,,,,,,left,left_blue.png,down_orange.png,down,left,down,60fcad8b8bac0383c5b9272b,2021-09-11_16h38.29.932,arrow_simon_vert,2021.1.2,Win32,59.81934558,,,,,,,,,,,,,,,,,,,,,down,1,1.7754,36,TRUE,FALSE,8,3,35,2,1,,,,,,,
,,,,,,0,1.861396668,#a3d0fb,"[""0.25"",""0""]",right_blue.png,right,,,,,,,,right,right_blue.png,up_orange.png,up,right,up,60fcad8b8bac0383c5b9272b,2021-09-11_16h38.29.932,arrow_simon_vert,2021.1.2,Win32,59.81934558,,,,,,,,,,,,,,,,,,,,,right,1,1.3168,37,FALSE,TRUE,9,0,36,1,1,,,,,,,
,,,,,,0,1.613114269,#f3af84,"[""0"",""-0.25""]",up_orange.png,up,,,,,,,,right,right_blue.png,up_orange.png,up,left,down,60fcad8b8bac0383c5b9272b,2021-09-11_16h38.29.932,arrow_simon_vert,2021.1.2,Win32,59.81934558,,,,,,,,,,,,,,,,,,,,,up,1,1.0746,38,FALSE,TRUE,9,1,37,0,1,,,,,,,
,,,,,,1,2.257468865,#a3d0fb,"[""0.25"",""0""]",left_blue.png,left,,,,,,,,left,left_blue.png,down_orange.png,down,right,up,60fcad8b8bac0383c5b9272b,2021-09-11_16h38.29.932,arrow_simon_vert,2021.1.2,Win32,59.81934558,,,,,,,,,,,,,,,,,,,,,right,0,1.54,39,FALSE,FALSE,9,2,38,3,1,,,,,,,
,,,,,,1,1.657443721,#f3af84,"[""0"",""-0.25""]",up_orange.png,up,,,,,,,,right,right_blue.png,up_orange.png,up,left,down,60fcad8b8bac0383c5b9272b,2021-09-11_16h38.29.932,arrow_simon_vert,2021.1.2,Win32,59.81934558,,,,,,,,,,,,,,,,,,,,,up,1,1.2329,40,FALSE,TRUE,9,3,39,0,1,,,,,,,
,,,,,,1,2.445182246,#a3d0fb,"[""0.25"",""0""]",left_blue.png,left,,,,,,,,left,left_blue.png,down_orange.png,down,right,up,60fcad8b8bac0383c5b9272b,2021-09-11_16h38.29.932,arrow_simon_vert,2021.1.2,Win32,59.81934558,,,,,,,,,,,,,,,,,,,,,right,0,1.7578,41,TRUE,FALSE,10,0,40,3,1,,,,,,,
,,,,,,0,1.920898573,#f3af84,"[""0"",""-0.25""]",up_orange.png,up,,,,,,,,right,right_blue.png,up_orange.png,up,left,down,60fcad8b8bac0383c5b9272b,2021-09-11_16h38.29.932,arrow_simon_vert,2021.1.2,Win32,59.81934558,,,,,,,,,,,,,,,,,,,,,up,1,1.4033,42,FALSE,FALSE,10,1,41,0,1,,,,,,,
,,,,,,0,2.406563794,#a3d0fb,"[""0.25"",""0""]",right_blue.png,right,,,,,,,,right,right_blue.png,up_orange.png,up,right,up,60fcad8b8bac0383c5b9272b,2021-09-11_16h38.29.932,arrow_simon_vert,2021.1.2,Win32,59.81934558,,,,,,,,,,,,,,,,,,,,,right,1,1.8208,43,TRUE,FALSE,10,2,42,1,1,,,,,,,
,,,,,,0,1.646101649,#f3af84,"[""0"",""0.25""]",down_orange.png,down,,,,,,,,left,left_blue.png,down_orange.png,down,right,up,60fcad8b8bac0383c5b9272b,2021-09-11_16h38.29.932,arrow_simon_vert,2021.1.2,Win32,59.81934558,,,,,,,,,,,,,,,,,,,,,left,0,1.2166,44,FALSE,TRUE,10,3,43,3,1,,,,,,,
,,,,,,0,1.637024237,#a3d0fb,"[""-0.25"",""0""]",left_blue.png,left,,,,,,,,left,left_blue.png,down_orange.png,down,left,down,60fcad8b8bac0383c5b9272b,2021-09-11_16h38.29.932,arrow_simon_vert,2021.1.2,Win32,59.81934558,,,,,,,,,,,,,,,,,,,,,left,1,1.1991,45,FALSE,TRUE,11,0,44,2,1,,,,,,,
,,,,,,0,2.314548035,#f3af84,"[""0"",""-0.25""]",down_orange.png,down,,,,,,,,left,left_blue.png,down_orange.png,down,left,down,60fcad8b8bac0383c5b9272b,2021-09-11_16h38.29.932,arrow_simon_vert,2021.1.2,Win32,59.81934558,,,,,,,,,,,,,,,,,,,,,right,0,1.6669,46,TRUE,FALSE,11,1,45,2,1,,,,,,,
,,,,,,0,2.383071342,#a3d0fb,"[""0.25"",""0""]",right_blue.png,right,,,,,,,,right,right_blue.png,up_orange.png,up,right,up,60fcad8b8bac0383c5b9272b,2021-09-11_16h38.29.932,arrow_simon_vert,2021.1.2,Win32,59.81934558,,,,,,,,,,,,,,,,,,,,,down,0,1.8259,47,TRUE,FALSE,11,2,46,1,1,,,,,,,
,,,,,,0,2.35556006,#f3af84,"[""0"",""-0.25""]",down_orange.png,down,,,,,,,,left,left_blue.png,down_orange.png,down,left,down,60fcad8b8bac0383c5b9272b,2021-09-11_16h38.29.932,arrow_simon_vert,2021.1.2,Win32,59.81934558,,,,,,,,,,,,,,,,,,,,,down,1,1.7574,48,TRUE,FALSE,11,3,47,2,1,,,,,,,
,,,,,,0,2.231018522,#a3d0fb,"[""0.25"",""0""]",right_blue.png,right,,,,,,,,right,right_blue.png,up_orange.png,up,right,up,60fcad8b8bac0383c5b9272b,2021-09-11_16h38.29.932,arrow_simon_vert,2021.1.2,Win32,59.81934558,,,,,,,,,,,,,,,,,,,,,right,1,1.571,49,FALSE,FALSE,12,0,48,1,1,,,,,,,
,,,,,,0,2.499168385,#f3af84,"[""0"",""0.25""]",up_orange.png,up,,,,,,,,right,right_blue.png,up_orange.png,up,right,up,60fcad8b8bac0383c5b9272b,2021-09-11_16h38.29.932,arrow_simon_vert,2021.1.2,Win32,59.81934558,,,,,,,,,,,,,,,,,,,,,up,1,2.0506,50,TRUE,FALSE,12,1,49,1,1,,,,,,,
,,,,,,0,2.364703171,#a3d0fb,"[""-0.25"",""0""]",right_blue.png,right,,,,,,,,right,right_blue.png,up_orange.png,up,left,down,60fcad8b8bac0383c5b9272b,2021-09-11_16h38.29.932,arrow_simon_vert,2021.1.2,Win32,59.81934558,,,,,,,,,,,,,,,,,,,,,right,1,1.8408,51,TRUE,FALSE,12,2,50,0,1,,,,,,,
,,,,,,0,2.467347708,#f3af84,"[""0"",""-0.25""]",up_orange.png,up,,,,,,,,right,right_blue.png,up_orange.png,up,left,down,60fcad8b8bac0383c5b9272b,2021-09-11_16h38.29.932,arrow_simon_vert,2021.1.2,Win32,59.81934558,,,,,,,,,,,,,,,,,,,,,up,1,1.9012,52,TRUE,FALSE,12,3,51,0,1,,,,,,,
,,,,,,1,2.247113306,#a3d0fb,"[""0.25"",""0""]",left_blue.png,left,,,,,,,,left,left_blue.png,down_orange.png,down,right,up,60fcad8b8bac0383c5b9272b,2021-09-11_16h38.29.932,arrow_simon_vert,2021.1.2,Win32,59.81934558,,,,,,,,,,,,,,,,,,,,,right,0,1.5693,53,FALSE,FALSE,13,0,52,3,1,,,,,,,
,,,,,,1,1.820828003,#f3af84,"[""0"",""0.25""]",down_orange.png,down,,,,,,,,left,left_blue.png,down_orange.png,down,right,up,60fcad8b8bac0383c5b9272b,2021-09-11_16h38.29.932,arrow_simon_vert,2021.1.2,Win32,59.81934558,,,,,,,,,,,,,,,,,,,,,down,1,1.3038,54,FALSE,TRUE,13,1,53,3,1,,,,,,,
,,,,,,1,2.376692323,#a3d0fb,"[""-0.25"",""0""]",right_blue.png,right,,,,,,,,right,right_blue.png,up_orange.png,up,left,down,60fcad8b8bac0383c5b9272b,2021-09-11_16h38.29.932,arrow_simon_vert,2021.1.2,Win32,59.81934558,,,,,,,,,,,,,,,,,,,,,right,1,1.8323,55,TRUE,FALSE,13,2,54,0,1,,,,,,,
,,,,,,0,2.035374806,#f3af84,"[""0"",""-0.25""]",down_orange.png,down,,,,,,,,left,left_blue.png,down_orange.png,down,left,down,60fcad8b8bac0383c5b9272b,2021-09-11_16h38.29.932,arrow_simon_vert,2021.1.2,Win32,59.81934558,,,,,,,,,,,,,,,,,,,,,down,1,1.536,56,FALSE,FALSE,13,3,55,2,1,,,,,,,
,,,,,,0,1.517435046,#a3d0fb,"[""-0.25"",""0""]",right_blue.png,right,,,,,,,,right,right_blue.png,up_orange.png,up,left,down,60fcad8b8bac0383c5b9272b,2021-09-11_16h38.29.932,arrow_simon_vert,2021.1.2,Win32,59.81934558,,,,,,,,,,,,,,,,,,,,,right,1,1.2624,57,FALSE,TRUE,14,0,56,0,1,,,,,,,
,,,,,,0,2.22770917,#f3af84,"[""0"",""0.25""]",down_orange.png,down,,,,,,,,left,left_blue.png,down_orange.png,down,right,up,60fcad8b8bac0383c5b9272b,2021-09-11_16h38.29.932,arrow_simon_vert,2021.1.2,Win32,59.81934558,,,,,,,,,,,,,,,,,,,,,down,1,1.7229,58,TRUE,FALSE,14,1,57,3,1,,,,,,,
,,,,,,0,1.682791252,#a3d0fb,"[""-0.25"",""0""]",left_blue.png,left,,,,,,,,left,left_blue.png,down_orange.png,down,left,down,60fcad8b8bac0383c5b9272b,2021-09-11_16h38.29.932,arrow_simon_vert,2021.1.2,Win32,59.81934558,,,,,,,,,,,,,,,,,,,,,left,1,1.3087,59,FALSE,TRUE,14,2,58,2,1,,,,,,,
,,,,,,0,2.117797379,#f3af84,"[""0"",""0.25""]",up_orange.png,up,,,,,,,,right,right_blue.png,up_orange.png,up,right,up,60fcad8b8bac0383c5b9272b,2021-09-11_16h38.29.932,arrow_simon_vert,2021.1.2,Win32,59.81934558,,,,,,,,,,,,,,,,,,,,,up,1,1.5613,60,FALSE,FALSE,14,3,59,1,1,,,,,,,
,,,,,,,,,,,,,,,,,,,,,,,,,60fcad8b8bac0383c5b9272b,2021-09-11_16h38.29.932,arrow_simon_vert,2021.1.2,Win32,59.81934558,,,,,,,,,,,,,,,,,,,,,,,,,,,,,,,,space,3.8397,1,0,1,0,1
,,,,,,0,1.831373439,#a3d0fb,"[""-0.25"",""0""]",right_blue.png,right,,,,,,,,right,right_blue.png,up_orange.png,up,left,down,60fcad8b8bac0383c5b9272b,2021-09-11_16h38.29.932,arrow_simon_vert,2021.1.2,Win32,59.81934558,,,,,,,,,,,,,,,,,,,,,right,1,1.3697,1,FALSE,TRUE,0,0,0,0,1,,,,,,,
,,,,,,0,2.055344644,#f3af84,"[""0"",""-0.25""]",down_orange.png,down,,,,,,,,left,left_blue.png,down_orange.png,down,left,down,60fcad8b8bac0383c5b9272b,2021-09-11_16h38.29.932,arrow_simon_vert,2021.1.2,Win32,59.81934558,,,,,,,,,,,,,,,,,,,,,down,1,1.8066,2,TRUE,FALSE,0,1,1,2,1,,,,,,,
,,,,,,0,2.305232154,#a3d0fb,"[""0.25"",""0""]",right_blue.png,right,,,,,,,,right,right_blue.png,up_orange.png,up,right,up,60fcad8b8bac0383c5b9272b,2021-09-11_16h38.29.932,arrow_simon_vert,2021.1.2,Win32,59.81934558,,,,,,,,,,,,,,,,,,,,,right,1,1.784,3,TRUE,FALSE,0,2,2,1,1,,,,,,,
,,,,,,0,1.780863869,#f3af84,"[""0"",""-0.25""]",down_orange.png,down,,,,,,,,left,left_blue.png,down_orange.png,down,left,down,60fcad8b8bac0383c5b9272b,2021-09-11_16h38.29.932,arrow_simon_vert,2021.1.2,Win32,59.81934558,,,,,,,,,,,,,,,,,,,,,down,1,1.349,4,FALSE,TRUE,0,3,3,2,1,,,,,,,
,,,,,,0,2.015034893,#a3d0fb,"[""0.25"",""0""]",right_blue.png,right,,,,,,,,right,right_blue.png,up_orange.png,up,right,up,60fcad8b8bac0383c5b9272b,2021-09-11_16h38.29.932,arrow_simon_vert,2021.1.2,Win32,59.81934558,,,,,,,,,,,,,,,,,,,,,right,1,1.649,5,TRUE,FALSE,1,0,4,1,1,,,,,,,
,,,,,,0,2.185891038,#f3af84,"[""0"",""-0.25""]",up_orange.png,up,,,,,,,,right,right_blue.png,up_orange.png,up,left,down,60fcad8b8bac0383c5b9272b,2021-09-11_16h38.29.932,arrow_simon_vert,2021.1.2,Win32,59.81934558,,,,,,,,,,,,,,,,,,,,,down,0,1.6699,6,TRUE,FALSE,1,1,5,0,1,,,,,,,
,,,,,,0,1.788120858,#a3d0fb,"[""-0.25"",""0""]",left_blue.png,left,,,,,,,,left,left_blue.png,down_orange.png,down,left,down,60fcad8b8bac0383c5b9272b,2021-09-11_16h38.29.932,arrow_simon_vert,2021.1.2,Win32,59.81934558,,,,,,,,,,,,,,,,,,,,,left,1,1.2231,7,FALSE,TRUE,1,2,6,2,1,,,,,,,
,,,,,,0,1.692076543,#f3af84,"[""0"",""0.25""]",down_orange.png,down,,,,,,,,left,left_blue.png,down_orange.png,down,right,up,60fcad8b8bac0383c5b9272b,2021-09-11_16h38.29.932,arrow_simon_vert,2021.1.2,Win32,59.81934558,,,,,,,,,,,,,,,,,,,,,down,1,1.2685,8,FALSE,TRUE,1,3,7,3,1,,,,,,,
,,,,,,0,1.989140662,#a3d0fb,"[""0.25"",""0""]",left_blue.png,left,,,,,,,,left,left_blue.png,down_orange.png,down,right,up,60fcad8b8bac0383c5b9272b,2021-09-11_16h38.29.932,arrow_simon_vert,2021.1.2,Win32,59.81934558,,,,,,,,,,,,,,,,,,,,,left,1,1.4043,9,FALSE,FALSE,2,0,8,3,1,,,,,,,
,,,,,,0,2.493735081,#f3af84,"[""0"",""-0.25""]",down_orange.png,down,,,,,,,,left,left_blue.png,down_orange.png,down,left,down,60fcad8b8bac0383c5b9272b,2021-09-11_16h38.29.932,arrow_simon_vert,2021.1.2,Win32,59.81934558,,,,,,,,,,,,,,,,,,,,,down,1,1.8494,10,TRUE,FALSE,2,1,9,2,1,,,,,,,
,,,,,,0,1.889668339,#a3d0fb,"[""0.25"",""0""]",left_blue.png,left,,,,,,,,left,left_blue.png,down_orange.png,down,right,up,60fcad8b8bac0383c5b9272b,2021-09-11_16h38.29.932,arrow_simon_vert,2021.1.2,Win32,59.81934558,,,,,,,,,,,,,,,,,,,,,left,1,1.5789,11,FALSE,FALSE,2,2,10,3,1,,,,,,,
,,,,,,0,1.772212438,#f3af84,"[""0"",""-0.25""]",up_orange.png,up,,,,,,,,right,right_blue.png,up_orange.png,up,left,down,60fcad8b8bac0383c5b9272b,2021-09-11_16h38.29.932,arrow_simon_vert,2021.1.2,Win32,59.81934558,,,,,,,,,,,,,,,,,,,,,up,1,1.2245,12,FALSE,TRUE,2,3,11,0,1,,,,,,,
,,,,,,0,1.943571341,#a3d0fb,"[""0.25"",""0""]",left_blue.png,left,,,,,,,,left,left_blue.png,down_orange.png,down,right,up,60fcad8b8bac0383c5b9272b,2021-09-11_16h38.29.932,arrow_simon_vert,2021.1.2,Win32,59.81934558,,,,,,,,,,,,,,,,,,,,,left,1,1.293,13,FALSE,TRUE,3,0,12,3,1,,,,,,,
,,,,,,0,1.542344939,#f3af84,"[""0"",""0.25""]",up_orange.png,up,,,,,,,,right,right_blue.png,up_orange.png,up,right,up,60fcad8b8bac0383c5b9272b,2021-09-11_16h38.29.932,arrow_simon_vert,2021.1.2,Win32,59.81934558,,,,,,,,,,,,,,,,,,,,,up,1,1.3937,14,FALSE,TRUE,3,1,13,1,1,,,,,,,
,,,,,,0,1.570053164,#a3d0fb,"[""0.25"",""0""]",left_blue.png,left,,,,,,,,left,left_blue.png,down_orange.png,down,right,up,60fcad8b8bac0383c5b9272b,2021-09-11_16h38.29.932,arrow_simon_vert,2021.1.2,Win32,59.81934558,,,,,,,,,,,,,,,,,,,,,left,1,2.02,15,TRUE,FALSE,3,2,14,3,1,,,,,,,
,,,,,,0,2.174419399,#f3af84,"[""0"",""0.25""]",up_orange.png,up,,,,,,,,right,right_blue.png,up_orange.png,up,right,up,60fcad8b8bac0383c5b9272b,2021-09-11_16h38.29.932,arrow_simon_vert,2021.1.2,Win32,59.81934558,,,,,,,,,,,,,,,,,,,,,up,1,1.6762,16,TRUE,FALSE,3,3,15,1,1,,,,,,,
,,,,,,0,1.905184885,#a3d0fb,"[""-0.25"",""0""]",right_blue.png,right,,,,,,,,right,right_blue.png,up_orange.png,up,left,down,60fcad8b8bac0383c5b9272b,2021-09-11_16h38.29.932,arrow_simon_vert,2021.1.2,Win32,59.81934558,,,,,,,,,,,,,,,,,,,,,left,0,1.2347,17,FALSE,TRUE,4,0,16,0,1,,,,,,,
,,,,,,0,1.617975495,#f3af84,"[""0"",""-0.25""]",down_orange.png,down,,,,,,,,left,left_blue.png,down_orange.png,down,left,down,60fcad8b8bac0383c5b9272b,2021-09-11_16h38.29.932,arrow_simon_vert,2021.1.2,Win32,59.81934558,,,,,,,,,,,,,,,,,,,,,up,0,1.2363,18,FALSE,TRUE,4,1,17,2,1,,,,,,,
,,,,,,0,2.016933052,#a3d0fb,"[""0.25"",""0""]",right_blue.png,right,,,,,,,,right,right_blue.png,up_orange.png,up,right,up,60fcad8b8bac0383c5b9272b,2021-09-11_16h38.29.932,arrow_simon_vert,2021.1.2,Win32,59.81934558,,,,,,,,,,,,,,,,,,,,,right,1,1.4665,19,FALSE,FALSE,4,2,18,1,1,,,,,,,
,,,,,,0,1.532795275,#f3af84,"[""0"",""-0.25""]",down_orange.png,down,,,,,,,,left,left_blue.png,down_orange.png,down,left,down,60fcad8b8bac0383c5b9272b,2021-09-11_16h38.29.932,arrow_simon_vert,2021.1.2,Win32,59.81934558,,,,,,,,,,,,,,,,,,,,,up,0,1.2396,20,FALSE,TRUE,4,3,19,2,1,,,,,,,
,,,,,,0,1.715443681,#a3d0fb,"[""-0.25"",""0""]",left_blue.png,left,,,,,,,,left,left_blue.png,down_orange.png,down,left,down,60fcad8b8bac0383c5b9272b,2021-09-11_16h38.29.932,arrow_simon_vert,2021.1.2,Win32,59.81934558,,,,,,,,,,,,,,,,,,,,,left,1,1.063,21,FALSE,TRUE,5,0,20,2,1,,,,,,,
,,,,,,0,1.751359276,#f3af84,"[""0"",""-0.25""]",up_orange.png,up,,,,,,,,right,right_blue.png,up_orange.png,up,left,down,60fcad8b8bac0383c5b9272b,2021-09-11_16h38.29.932,arrow_simon_vert,2021.1.2,Win32,59.81934558,,,,,,,,,,,,,,,,,,,,,up,1,1.4825,22,FALSE,FALSE,5,1,21,0,1,,,,,,,
,,,,,,0,1.608441226,#a3d0fb,"[""-0.25"",""0""]",left_blue.png,left,,,,,,,,left,left_blue.png,down_orange.png,down,left,down,60fcad8b8bac0383c5b9272b,2021-09-11_16h38.29.932,arrow_simon_vert,2021.1.2,Win32,59.81934558,,,,,,,,,,,,,,,,,,,,,left,1,2.511,23,TRUE,FALSE,5,2,22,2,1,,,,,,,
,,,,,,0,1.701125478,#f3af84,"[""0"",""0.25""]",down_orange.png,down,,,,,,,,left,left_blue.png,down_orange.png,down,right,up,60fcad8b8bac0383c5b9272b,2021-09-11_16h38.29.932,arrow_simon_vert,2021.1.2,Win32,59.81934558,,,,,,,,,,,,,,,,,,,,,down,1,1.149,24,FALSE,TRUE,5,3,23,3,1,,,,,,,
,,,,,,0,1.616701855,#a3d0fb,"[""-0.25"",""0""]",right_blue.png,right,,,,,,,,right,right_blue.png,up_orange.png,up,left,down,60fcad8b8bac0383c5b9272b,2021-09-11_16h38.29.932,arrow_simon_vert,2021.1.2,Win32,59.81934558,,,,,,,,,,,,,,,,,,,,,right,1,1.3697,25,FALSE,TRUE,6,0,24,0,1,,,,,,,
,,,,,,0,1.705140008,#f3af84,"[""0"",""-0.25""]",up_orange.png,up,,,,,,,,right,right_blue.png,up_orange.png,up,left,down,60fcad8b8bac0383c5b9272b,2021-09-11_16h38.29.932,arrow_simon_vert,2021.1.2,Win32,59.81934558,,,,,,,,,,,,,,,,,,,,,up,1,1.1548,26,FALSE,TRUE,6,1,25,0,1,,,,,,,
,,,,,,0,2.396980686,#a3d0fb,"[""0.25"",""0""]",left_blue.png,left,,,,,,,,left,left_blue.png,down_orange.png,down,right,up,60fcad8b8bac0383c5b9272b,2021-09-11_16h38.29.932,arrow_simon_vert,2021.1.2,Win32,59.81934558,,,,,,,,,,,,,,,,,,,,,left,1,1.9103,27,TRUE,FALSE,6,2,26,3,1,,,,,,,
,,,,,,0,1.543301639,#f3af84,"[""0"",""-0.25""]",down_orange.png,down,,,,,,,,left,left_blue.png,down_orange.png,down,left,down,60fcad8b8bac0383c5b9272b,2021-09-11_16h38.29.932,arrow_simon_vert,2021.1.2,Win32,59.81934558,,,,,,,,,,,,,,,,,,,,,left,0,1.0327,28,FALSE,TRUE,6,3,27,2,1,,,,,,,
,,,,,,0,1.603928676,#a3d0fb,"[""0.25"",""0""]",right_blue.png,right,,,,,,,,right,right_blue.png,up_orange.png,up,right,up,60fcad8b8bac0383c5b9272b,2021-09-11_16h38.29.932,arrow_simon_vert,2021.1.2,Win32,59.81934558,,,,,,,,,,,,,,,,,,,,,right,1,1.191,29,FALSE,TRUE,7,0,28,1,1,,,,,,,
,,,,,,0,1.670983839,#f3af84,"[""0"",""0.25""]",down_orange.png,down,,,,,,,,left,left_blue.png,down_orange.png,down,right,up,60fcad8b8bac0383c5b9272b,2021-09-11_16h38.29.932,arrow_simon_vert,2021.1.2,Win32,59.81934558,,,,,,,,,,,,,,,,,,,,,down,1,1.5758,30,FALSE,FALSE,7,1,29,3,1,,,,,,,
,,,,,,0,2.200455028,#a3d0fb,"[""0.25"",""0""]",left_blue.png,left,,,,,,,,left,left_blue.png,down_orange.png,down,right,up,60fcad8b8bac0383c5b9272b,2021-09-11_16h38.29.932,arrow_simon_vert,2021.1.2,Win32,59.81934558,,,,,,,,,,,,,,,,,,,,,left,1,1.7495,31,TRUE,FALSE,7,2,30,3,1,,,,,,,
,,,,,,0,1.928580865,#f3af84,"[""0"",""0.25""]",down_orange.png,down,,,,,,,,left,left_blue.png,down_orange.png,down,right,up,60fcad8b8bac0383c5b9272b,2021-09-11_16h38.29.932,arrow_simon_vert,2021.1.2,Win32,59.81934558,,,,,,,,,,,,,,,,,,,,,down,1,1.6656,32,TRUE,FALSE,7,3,31,3,1,,,,,,,
,,,,,,0,2.26017675,#a3d0fb,"[""0.25"",""0""]",right_blue.png,right,,,,,,,,right,right_blue.png,up_orange.png,up,right,up,60fcad8b8bac0383c5b9272b,2021-09-11_16h38.29.932,arrow_simon_vert,2021.1.2,Win32,59.81934558,,,,,,,,,,,,,,,,,,,,,right,1,1.7331,33,TRUE,FALSE,8,0,32,1,1,,,,,,,
,,,,,,0,1.700627577,#f3af84,"[""0"",""-0.25""]",up_orange.png,up,,,,,,,,right,right_blue.png,up_orange.png,up,left,down,60fcad8b8bac0383c5b9272b,2021-09-11_16h38.29.932,arrow_simon_vert,2021.1.2,Win32,59.81934558,,,,,,,,,,,,,,,,,,,,,up,1,1.9568,34,TRUE,FALSE,8,1,33,0,1,,,,,,,
,,,,,,0,1.641577842,#a3d0fb,"[""0.25"",""0""]",left_blue.png,left,,,,,,,,left,left_blue.png,down_orange.png,down,right,up,60fcad8b8bac0383c5b9272b,2021-09-11_16h38.29.932,arrow_simon_vert,2021.1.2,Win32,59.81934558,,,,,,,,,,,,,,,,,,,,,left,1,1.2702,35,FALSE,TRUE,8,2,34,3,1,,,,,,,
,,,,,,0,1.995910392,#f3af84,"[""0"",""-0.25""]",up_orange.png,up,,,,,,,,right,right_blue.png,up_orange.png,up,left,down,60fcad8b8bac0383c5b9272b,2021-09-11_16h38.29.932,arrow_simon_vert,2021.1.2,Win32,59.81934558,,,,,,,,,,,,,,,,,,,,,down,0,1.3995,36,FALSE,TRUE,8,3,35,0,1,,,,,,,
,,,,,,0,1.849562735,#a3d0fb,"[""-0.25"",""0""]",right_blue.png,right,,,,,,,,right,right_blue.png,up_orange.png,up,left,down,60fcad8b8bac0383c5b9272b,2021-09-11_16h38.29.932,arrow_simon_vert,2021.1.2,Win32,59.81934558,,,,,,,,,,,,,,,,,,,,,right,1,1.3167,37,FALSE,TRUE,9,0,36,0,1,,,,,,,
,,,,,,0,2.253594857,#f3af84,"[""0"",""-0.25""]",up_orange.png,up,,,,,,,,right,right_blue.png,up_orange.png,up,left,down,60fcad8b8bac0383c5b9272b,2021-09-11_16h38.29.932,arrow_simon_vert,2021.1.2,Win32,59.81934558,,,,,,,,,,,,,,,,,,,,,left,0,1.7232,38,TRUE,FALSE,9,1,37,0,1,,,,,,,
,,,,,,0,1.66563481,#a3d0fb,"[""0.25"",""0""]",right_blue.png,right,,,,,,,,right,right_blue.png,up_orange.png,up,right,up,60fcad8b8bac0383c5b9272b,2021-09-11_16h38.29.932,arrow_simon_vert,2021.1.2,Win32,59.81934558,,,,,,,,,,,,,,,,,,,,,right,1,1.4186,39,FALSE,FALSE,9,2,38,1,1,,,,,,,
,,,,,,0,2.397811782,#f3af84,"[""0"",""0.25""]",down_orange.png,down,,,,,,,,left,left_blue.png,down_orange.png,down,right,up,60fcad8b8bac0383c5b9272b,2021-09-11_16h38.29.932,arrow_simon_vert,2021.1.2,Win32,59.81934558,,,,,,,,,,,,,,,,,,,,,up,0,1.7387,40,TRUE,FALSE,9,3,39,3,1,,,,,,,
,,,,,,0,1.607621344,#a3d0fb,"[""-0.25"",""0""]",right_blue.png,right,,,,,,,,right,right_blue.png,up_orange.png,up,left,down,60fcad8b8bac0383c5b9272b,2021-09-11_16h38.29.932,arrow_simon_vert,2021.1.2,Win32,59.81934558,,,,,,,,,,,,,,,,,,,,,right,1,1.4381,41,FALSE,FALSE,10,0,40,0,1,,,,,,,
,,,,,,0,1.798403541,#f3af84,"[""0"",""0.25""]",down_orange.png,down,,,,,,,,left,left_blue.png,down_orange.png,down,right,up,60fcad8b8bac0383c5b9272b,2021-09-11_16h38.29.932,arrow_simon_vert,2021.1.2,Win32,59.81934558,,,,,,,,,,,,,,,,,,,,,down,1,1.4673,42,FALSE,FALSE,10,1,41,3,1,,,,,,,
,,,,,,0,2.079879053,#a3d0fb,"[""-0.25"",""0""]",left_blue.png,left,,,,,,,,left,left_blue.png,down_orange.png,down,left,down,60fcad8b8bac0383c5b9272b,2021-09-11_16h38.29.932,arrow_simon_vert,2021.1.2,Win32,59.81934558,,,,,,,,,,,,,,,,,,,,,left,1,1.556,43,FALSE,FALSE,10,2,42,2,1,,,,,,,
,,,,,,0,2.358637789,#f3af84,"[""0"",""-0.25""]",down_orange.png,down,,,,,,,,left,left_blue.png,down_orange.png,down,left,down,60fcad8b8bac0383c5b9272b,2021-09-11_16h38.29.932,arrow_simon_vert,2021.1.2,Win32,59.81934558,,,,,,,,,,,,,,,,,,,,,down,1,1.6684,44,TRUE,FALSE,10,3,43,2,1,,,,,,,
,,,,,,0,2.22306339,#a3d0fb,"[""-0.25"",""0""]",right_blue.png,right,,,,,,,,right,right_blue.png,up_orange.png,up,left,down,60fcad8b8bac0383c5b9272b,2021-09-11_16h38.29.932,arrow_simon_vert,2021.1.2,Win32,59.81934558,,,,,,,,,,,,,,,,,,,,,down,0,1.6255,45,TRUE,FALSE,11,0,44,0,1,,,,,,,
,,,,,,0,2.14788966,#f3af84,"[""0"",""0.25""]",up_orange.png,up,,,,,,,,right,right_blue.png,up_orange.png,up,right,up,60fcad8b8bac0383c5b9272b,2021-09-11_16h38.29.932,arrow_simon_vert,2021.1.2,Win32,59.81934558,,,,,,,,,,,,,,,,,,,,,up,1,1.5337,46,FALSE,FALSE,11,1,45,1,1,,,,,,,
,,,,,,0,2.458072989,#a3d0fb,"[""0.25"",""0""]",right_blue.png,right,,,,,,,,right,right_blue.png,up_orange.png,up,right,up,60fcad8b8bac0383c5b9272b,2021-09-11_16h38.29.932,arrow_simon_vert,2021.1.2,Win32,59.81934558,,,,,,,,,,,,,,,,,,,,,right,1,1.8163,47,TRUE,FALSE,11,2,46,1,1,,,,,,,
,,,,,,0,1.509975261,#f3af84,"[""0"",""0.25""]",up_orange.png,up,,,,,,,,right,right_blue.png,up_orange.png,up,right,up,60fcad8b8bac0383c5b9272b,2021-09-11_16h38.29.932,arrow_simon_vert,2021.1.2,Win32,59.81934558,,,,,,,,,,,,,,,,,,,,,up,1,1.288,48,FALSE,TRUE,11,3,47,1,1,,,,,,,
,,,,,,0,2.422999533,#a3d0fb,"[""0.25"",""0""]",left_blue.png,left,,,,,,,,left,left_blue.png,down_orange.png,down,right,up,60fcad8b8bac0383c5b9272b,2021-09-11_16h38.29.932,arrow_simon_vert,2021.1.2,Win32,59.81934558,,,,,,,,,,,,,,,,,,,,,left,1,1.9433,49,TRUE,FALSE,12,0,48,3,1,,,,,,,
,,,,,,0,2.140912713,#f3af84,"[""0"",""-0.25""]",down_orange.png,down,,,,,,,,left,left_blue.png,down_orange.png,down,left,down,60fcad8b8bac0383c5b9272b,2021-09-11_16h38.29.932,arrow_simon_vert,2021.1.2,Win32,59.81934558,,,,,,,,,,,,,,,,,,,,,down,1,1.5827,50,FALSE,FALSE,12,1,49,2,1,,,,,,,
,,,,,,0,2.443781008,#a3d0fb,"[""-0.25"",""0""]",left_blue.png,left,,,,,,,,left,left_blue.png,down_orange.png,down,left,down,60fcad8b8bac0383c5b9272b,2021-09-11_16h38.29.932,arrow_simon_vert,2021.1.2,Win32,59.81934558,,,,,,,,,,,,,,,,,,,,,left,1,1.9377,51,TRUE,FALSE,12,2,50,2,1,,,,,,,
,,,,,,0,2.42997961,#f3af84,"[""0"",""0.25""]",down_orange.png,down,,,,,,,,left,left_blue.png,down_orange.png,down,right,up,60fcad8b8bac0383c5b9272b,2021-09-11_16h38.29.932,arrow_simon_vert,2021.1.2,Win32,59.81934558,,,,,,,,,,,,,,,,,,,,,down,1,1.8212,52,TRUE,FALSE,12,3,51,3,1,,,,,,,
,,,,,,0,2.144707286,#a3d0fb,"[""0.25"",""0""]",right_blue.png,right,,,,,,,,right,right_blue.png,up_orange.png,up,right,up,60fcad8b8bac0383c5b9272b,2021-09-11_16h38.29.932,arrow_simon_vert,2021.1.2,Win32,59.81934558,,,,,,,,,,,,,,,,,,,,,right,1,1.4458,53,FALSE,FALSE,13,0,52,1,1,,,,,,,
,,,,,,0,1.536360649,#f3af84,"[""0"",""0.25""]",up_orange.png,up,,,,,,,,right,right_blue.png,up_orange.png,up,right,up,60fcad8b8bac0383c5b9272b,2021-09-11_16h38.29.932,arrow_simon_vert,2021.1.2,Win32,59.81934558,,,,,,,,,,,,,,,,,,,,,up,1,1.3837,54,FALSE,TRUE,13,1,53,1,1,,,,,,,
,,,,,,0,1.764542153,#a3d0fb,"[""0.25"",""0""]",right_blue.png,right,,,,,,,,right,right_blue.png,up_orange.png,up,right,up,60fcad8b8bac0383c5b9272b,2021-09-11_16h38.29.932,arrow_simon_vert,2021.1.2,Win32,59.81934558,,,,,,,,,,,,,,,,,,,,,right,1,1.4575,55,FALSE,FALSE,13,2,54,1,1,,,,,,,
,,,,,,0,1.947145848,#f3af84,"[""0"",""-0.25""]",down_orange.png,down,,,,,,,,left,left_blue.png,down_orange.png,down,left,down,60fcad8b8bac0383c5b9272b,2021-09-11_16h38.29.932,arrow_simon_vert,2021.1.2,Win32,59.81934558,,,,,,,,,,,,,,,,,,,,,down,1,1.456,56,FALSE,FALSE,13,3,55,2,1,,,,,,,
,,,,,,0,1.632669664,#a3d0fb,"[""0.25"",""0""]",right_blue.png,right,,,,,,,,right,right_blue.png,up_orange.png,up,right,up,60fcad8b8bac0383c5b9272b,2021-09-11_16h38.29.932,arrow_simon_vert,2021.1.2,Win32,59.81934558,,,,,,,,,,,,,,,,,,,,,right,1,1.4432,57,FALSE,FALSE,14,0,56,1,1,,,,,,,
,,,,,,0,1.702536346,#f3af84,"[""0"",""-0.25""]",up_orange.png,up,,,,,,,,right,right_blue.png,up_orange.png,up,left,down,60fcad8b8bac0383c5b9272b,2021-09-11_16h38.29.932,arrow_simon_vert,2021.1.2,Win32,59.81934558,,,,,,,,,,,,,,,,,,,,,up,1,1.458,58,FALSE,FALSE,14,1,57,0,1,,,,,,,
,,,,,,0,1.992306432,#a3d0fb,"[""-0.25"",""0""]",left_blue.png,left,,,,,,,,left,left_blue.png,down_orange.png,down,left,down,60fcad8b8bac0383c5b9272b,2021-09-11_16h38.29.932,arrow_simon_vert,2021.1.2,Win32,59.81934558,,,,,,,,,,,,,,,,,,,,,left,1,1.5877,59,FALSE,FALSE,14,2,58,2,1,,,,,,,
,,,,,,0,2.384947902,#f3af84,"[""0"",""-0.25""]",up_orange.png,up,,,,,,,,right,right_blue.png,up_orange.png,up,left,down,60fcad8b8bac0383c5b9272b,2021-09-11_16h38.29.932,arrow_simon_vert,2021.1.2,Win32,59.81934558,,,,,,,,,,,,,,,,,,,,,up,1,1.7001,60,TRUE,FALSE,14,3,59,0,1,,,,,,,
,,,,,,,,,,,,,,,,,,,,,,,,,60fcad8b8bac0383c5b9272b,2021-09-11_16h38.29.932,arrow_simon_vert,2021.1.2,Win32,59.81934558,,,,,,,,,,,,,,,,,,,,,,,,,,,,,,,,space,4.0508,2,0,2,0,1
,,,,,,0,1.610665429,#a3d0fb,"[""0.25"",""0""]",right_blue.png,right,,,,,,,,right,right_blue.png,up_orange.png,up,right,up,60fcad8b8bac0383c5b9272b,2021-09-11_16h38.29.932,arrow_simon_vert,2021.1.2,Win32,59.81934558,,,,,,,,,,,,,,,,,,,,,right,1,1.3509,1,FALSE,TRUE,0,0,0,1,1,,,,,,,
,,,,,,0,1.534839648,#f3af84,"[""0"",""-0.25""]",down_orange.png,down,,,,,,,,left,left_blue.png,down_orange.png,down,left,down,60fcad8b8bac0383c5b9272b,2021-09-11_16h38.29.932,arrow_simon_vert,2021.1.2,Win32,59.81934558,,,,,,,,,,,,,,,,,,,,,down,1,1.4777,2,FALSE,FALSE,0,1,1,2,1,,,,,,,
,,,,,,0,1.882734782,#a3d0fb,"[""0.25"",""0""]",right_blue.png,right,,,,,,,,right,right_blue.png,up_orange.png,up,right,up,60fcad8b8bac0383c5b9272b,2021-09-11_16h38.29.932,arrow_simon_vert,2021.1.2,Win32,59.81934558,,,,,,,,,,,,,,,,,,,,,right,1,1.4701,3,FALSE,FALSE,0,2,2,1,1,,,,,,,
,,,,,,0,2.483595188,#f3af84,"[""0"",""-0.25""]",down_orange.png,down,,,,,,,,left,left_blue.png,down_orange.png,down,left,down,60fcad8b8bac0383c5b9272b,2021-09-11_16h38.29.932,arrow_simon_vert,2021.1.2,Win32,59.81934558,,,,,,,,,,,,,,,,,,,,,left,0,1.8399,4,TRUE,FALSE,0,3,3,2,1,,,,,,,
,,,,,,0,1.831271693,#a3d0fb,"[""0.25"",""0""]",left_blue.png,left,,,,,,,,left,left_blue.png,down_orange.png,down,right,up,60fcad8b8bac0383c5b9272b,2021-09-11_16h38.29.932,arrow_simon_vert,2021.1.2,Win32,59.81934558,,,,,,,,,,,,,,,,,,,,,left,1,1.491,5,FALSE,FALSE,1,0,4,3,1,,,,,,,
,,,,,,0,2.320583063,#f3af84,"[""0"",""-0.25""]",down_orange.png,down,,,,,,,,left,left_blue.png,down_orange.png,down,left,down,60fcad8b8bac0383c5b9272b,2021-09-11_16h38.29.932,arrow_simon_vert,2021.1.2,Win32,59.81934558,,,,,,,,,,,,,,,,,,,,,down,1,1.6838,6,TRUE,FALSE,1,1,5,2,1,,,,,,,
,,,,,,0,1.578732861,#a3d0fb,"[""0.25"",""0""]",right_blue.png,right,,,,,,,,right,right_blue.png,up_orange.png,up,right,up,60fcad8b8bac0383c5b9272b,2021-09-11_16h38.29.932,arrow_simon_vert,2021.1.2,Win32,59.81934558,,,,,,,,,,,,,,,,,,,,,right,1,1.4428,7,FALSE,FALSE,1,2,6,1,1,,,,,,,
,,,,,,1,2.18359052,#f3af84,"[""0"",""-0.25""]",up_orange.png,up,,,,,,,,right,right_blue.png,up_orange.png,up,left,down,60fcad8b8bac0383c5b9272b,2021-09-11_16h38.29.932,arrow_simon_vert,2021.1.2,Win32,59.81934558,,,,,,,,,,,,,,,,,,,,,down,0,1.5272,8,FALSE,FALSE,1,3,7,0,1,,,,,,,
,,,,,,1,1.551826425,#a3d0fb,"[""0.25"",""0""]",right_blue.png,right,,,,,,,,right,right_blue.png,up_orange.png,up,right,up,60fcad8b8bac0383c5b9272b,2021-09-11_16h38.29.932,arrow_simon_vert,2021.1.2,Win32,59.81934558,,,,,,,,,,,,,,,,,,,,,right,1,1.1399,9,FALSE,TRUE,2,0,8,1,1,,,,,,,
,,,,,,1,2.052615905,#f3af84,"[""0"",""0.25""]",down_orange.png,down,,,,,,,,left,left_blue.png,down_orange.png,down,right,up,60fcad8b8bac0383c5b9272b,2021-09-11_16h38.29.932,arrow_simon_vert,2021.1.2,Win32,59.81934558,,,,,,,,,,,,,,,,,,,,,left,0,1.4489,10,FALSE,FALSE,2,1,9,3,1,,,,,,,
,,,,,,0,1.635917809,#a3d0fb,"[""-0.25"",""0""]",right_blue.png,right,,,,,,,,right,right_blue.png,up_orange.png,up,left,down,60fcad8b8bac0383c5b9272b,2021-09-11_16h38.29.932,arrow_simon_vert,2021.1.2,Win32,59.81934558,,,,,,,,,,,,,,,,,,,,,right,1,1.5101,11,FALSE,FALSE,2,2,10,0,1,,,,,,,
,,,,,,0,1.851164531,#f3af84,"[""0"",""0.25""]",down_orange.png,down,,,,,,,,left,left_blue.png,down_orange.png,down,right,up,60fcad8b8bac0383c5b9272b,2021-09-11_16h38.29.932,arrow_simon_vert,2021.1.2,Win32,59.81934558,,,,,,,,,,,,,,,,,,,,,down,1,1.5491,12,FALSE,FALSE,2,3,11,3,1,,,,,,,
,,,,,,0,1.871446999,#a3d0fb,"[""0.25"",""0""]",left_blue.png,left,,,,,,,,left,left_blue.png,down_orange.png,down,right,up,60fcad8b8bac0383c5b9272b,2021-09-11_16h38.29.932,arrow_simon_vert,2021.1.2,Win32,59.81934558,,,,,,,,,,,,,,,,,,,,,left,1,1.4668,13,FALSE,FALSE,3,0,12,3,1,,,,,,,
,,,,,,0,1.961157669,#f3af84,"[""0"",""-0.25""]",down_orange.png,down,,,,,,,,left,left_blue.png,down_orange.png,down,left,down,60fcad8b8bac0383c5b9272b,2021-09-11_16h38.29.932,arrow_simon_vert,2021.1.2,Win32,59.81934558,,,,,,,,,,,,,,,,,,,,,down,1,1.5626,14,FALSE,FALSE,3,1,13,2,1,,,,,,,
,,,,,,0,1.669730197,#a3d0fb,"[""0.25"",""0""]",right_blue.png,right,,,,,,,,right,right_blue.png,up_orange.png,up,right,up,60fcad8b8bac0383c5b9272b,2021-09-11_16h38.29.932,arrow_simon_vert,2021.1.2,Win32,59.81934558,,,,,,,,,,,,,,,,,,,,,right,1,1.5264,15,FALSE,FALSE,3,2,14,1,1,,,,,,,
