instruct_resp_simon.keys,instruct_resp_simon.corr,instruct_resp_simon.rt,trial_resp_simon.keys,trial_resp_simon.corr,trial_resp_simon.rt,kerr,target_onset,target_color,target_pos,target_file,target_resp,trials_train_simon.thisRepN,trials_train_simon.thisTrialN,trials_train_simon.thisN,trials_train_simon.thisIndex,trials_train_simon.ran,odd_target_pos,even_target_pos,odd_target_resp,odd_target_file,even_target_file,even_target_resp,odd_target_side,even_target_side,participant,date,expName,psychopyVersion,OS,frameRate,train_block_note_resp.keys,train_block_note_resp.rt,blocks_train.thisRepN,blocks_train.thisTrialN,blocks_train.thisN,blocks_train.thisIndex,blocks_train.ran,instruct_resp_timing.keys,instruct_resp_timing.corr,instruct_resp_timing.rt,trial_resp_timing.keys,trial_resp_timing.rt,trials_train_timing.thisRepN,trials_train_timing.thisTrialN,trials_train_timing.thisN,trials_train_timing.thisIndex,trials_train_timing.ran,instruct_resp.keys,instruct_resp.corr,instruct_resp.rt,trial_resp.keys,trial_resp.corr,trial_resp.rt,trial_num,too_slow,too_soon,trials.thisRepN,trials.thisTrialN,trials.thisN,trials.thisIndex,trials.ran,block_note_resp.keys,block_note_resp.rt,blocks.thisRepN,blocks.thisTrialN,blocks.thisN,blocks.thisIndex,blocks.ran
space,0,40.7798,right,1,2.8327,0,0.586452305,#a3d0fb,"[""-0.25"",""0""]",right_blue.png,right,0,0,0,0,1,,,right,right_blue.png,up_orange.png,up,left,down,60fd6a2e013bff4b729c6dec,2021-09-08_11h21.26.509,arrow_simon_vert,2021.1.2,Win32,59.78715772,,,,,,,,,,,,,,,,,,,,,,,,,,,,,,,,,,,,,,
,,,up,0,1.9358,1,0.677879729,#f3af84,"[""0"",""0.25""]",down_orange.png,down,0,1,1,3,1,,,left,left_blue.png,down_orange.png,down,right,up,60fd6a2e013bff4b729c6dec,2021-09-08_11h21.26.509,arrow_simon_vert,2021.1.2,Win32,59.78715772,,,,,,,,,,,,,,,,,,,,,,,,,,,,,,,,,,,,,,
,,,right,1,1.6944,0,0.003936451,#a3d0fb,"[""-0.25"",""0""]",right_blue.png,right,0,2,2,0,1,,,right,right_blue.png,up_orange.png,up,left,down,60fd6a2e013bff4b729c6dec,2021-09-08_11h21.26.509,arrow_simon_vert,2021.1.2,Win32,59.78715772,,,,,,,,,,,,,,,,,,,,,,,,,,,,,,,,,,,,,,
,,,down,1,1.3028,0,0.235384975,#f3af84,"[""0"",""0.25""]",down_orange.png,down,0,3,3,3,1,,,left,left_blue.png,down_orange.png,down,right,up,60fd6a2e013bff4b729c6dec,2021-09-08_11h21.26.509,arrow_simon_vert,2021.1.2,Win32,59.78715772,,,,,,,,,,,,,,,,,,,,,,,,,,,,,,,,,,,,,,
,,,left,1,2.508,0,0.697872911,#a3d0fb,"[""0.25"",""0""]",left_blue.png,left,1,0,4,3,1,,,left,left_blue.png,down_orange.png,down,right,up,60fd6a2e013bff4b729c6dec,2021-09-08_11h21.26.509,arrow_simon_vert,2021.1.2,Win32,59.78715772,,,,,,,,,,,,,,,,,,,,,,,,,,,,,,,,,,,,,,
,,,up,1,2.1878,0,0.748153908,#f3af84,"[""0"",""-0.25""]",up_orange.png,up,1,1,5,0,1,,,right,right_blue.png,up_orange.png,up,left,down,60fd6a2e013bff4b729c6dec,2021-09-08_11h21.26.509,arrow_simon_vert,2021.1.2,Win32,59.78715772,,,,,,,,,,,,,,,,,,,,,,,,,,,,,,,,,,,,,,
,,,left,1,1.5792,0,0.795949817,#a3d0fb,"[""-0.25"",""0""]",left_blue.png,left,1,2,6,2,1,,,left,left_blue.png,down_orange.png,down,left,down,60fd6a2e013bff4b729c6dec,2021-09-08_11h21.26.509,arrow_simon_vert,2021.1.2,Win32,59.78715772,,,,,,,,,,,,,,,,,,,,,,,,,,,,,,,,,,,,,,
,,,down,1,1.401,0,0.599852403,#f3af84,"[""0"",""0.25""]",down_orange.png,down,1,3,7,3,1,,,left,left_blue.png,down_orange.png,down,right,up,60fd6a2e013bff4b729c6dec,2021-09-08_11h21.26.509,arrow_simon_vert,2021.1.2,Win32,59.78715772,,,,,,,,,,,,,,,,,,,,,,,,,,,,,,,,,,,,,,
,,,left,1,1.6876,0,0.647713208,#a3d0fb,"[""0.25"",""0""]",left_blue.png,left,2,0,8,3,1,,,left,left_blue.png,down_orange.png,down,right,up,60fd6a2e013bff4b729c6dec,2021-09-08_11h21.26.509,arrow_simon_vert,2021.1.2,Win32,59.78715772,,,,,,,,,,,,,,,,,,,,,,,,,,,,,,,,,,,,,,
,,,down,1,2.0385,0,0.916909804,#f3af84,"[""0"",""-0.25""]",down_orange.png,down,2,1,9,2,1,,,left,left_blue.png,down_orange.png,down,left,down,60fd6a2e013bff4b729c6dec,2021-09-08_11h21.26.509,arrow_simon_vert,2021.1.2,Win32,59.78715772,,,,,,,,,,,,,,,,,,,,,,,,,,,,,,,,,,,,,,
,,,left,1,2.673,0,0.44363237,#a3d0fb,"[""0.25"",""0""]",left_blue.png,left,2,2,10,3,1,,,left,left_blue.png,down_orange.png,down,right,up,60fd6a2e013bff4b729c6dec,2021-09-08_11h21.26.509,arrow_simon_vert,2021.1.2,Win32,59.78715772,,,,,,,,,,,,,,,,,,,,,,,,,,,,,,,,,,,,,,
,,,down,1,2.0743,0,0.972837423,#f3af84,"[""0"",""-0.25""]",down_orange.png,down,2,3,11,2,1,,,left,left_blue.png,down_orange.png,down,left,down,60fd6a2e013bff4b729c6dec,2021-09-08_11h21.26.509,arrow_simon_vert,2021.1.2,Win32,59.78715772,,,,,,,,,,,,,,,,,,,,,,,,,,,,,,,,,,,,,,
,,,left,1,1.4636,0,0.753284663,#a3d0fb,"[""-0.25"",""0""]",left_blue.png,left,3,0,12,2,1,,,left,left_blue.png,down_orange.png,down,left,down,60fd6a2e013bff4b729c6dec,2021-09-08_11h21.26.509,arrow_simon_vert,2021.1.2,Win32,59.78715772,,,,,,,,,,,,,,,,,,,,,,,,,,,,,,,,,,,,,,
,,,down,1,1.8376,0,0.977678902,#f3af84,"[""0"",""0.25""]",down_orange.png,down,3,1,13,3,1,,,left,left_blue.png,down_orange.png,down,right,up,60fd6a2e013bff4b729c6dec,2021-09-08_11h21.26.509,arrow_simon_vert,2021.1.2,Win32,59.78715772,,,,,,,,,,,,,,,,,,,,,,,,,,,,,,,,,,,,,,
,,,left,1,1.273,0,0.602823998,#a3d0fb,"[""0.25"",""0""]",left_blue.png,left,3,2,14,3,1,,,left,left_blue.png,down_orange.png,down,right,up,60fd6a2e013bff4b729c6dec,2021-09-08_11h21.26.509,arrow_simon_vert,2021.1.2,Win32,59.78715772,,,,,,,,,,,,,,,,,,,,,,,,,,,,,,,,,,,,,,
,,,up,1,1.2246,0,0.704936624,#f3af84,"[""0"",""0.25""]",up_orange.png,up,3,3,15,1,1,,,right,right_blue.png,up_orange.png,up,right,up,60fd6a2e013bff4b729c6dec,2021-09-08_11h21.26.509,arrow_simon_vert,2021.1.2,Win32,59.78715772,,,,,,,,,,,,,,,,,,,,,,,,,,,,,,,,,,,,,,
,,,left,1,1.0838,0,0.565629872,#a3d0fb,"[""-0.25"",""0""]",left_blue.png,left,4,0,16,2,1,,,left,left_blue.png,down_orange.png,down,left,down,60fd6a2e013bff4b729c6dec,2021-09-08_11h21.26.509,arrow_simon_vert,2021.1.2,Win32,59.78715772,,,,,,,,,,,,,,,,,,,,,,,,,,,,,,,,,,,,,,
,,,up,1,0.8862,0,0.157559974,#f3af84,"[""0"",""0.25""]",up_orange.png,up,4,1,17,1,1,,,right,right_blue.png,up_orange.png,up,right,up,60fd6a2e013bff4b729c6dec,2021-09-08_11h21.26.509,arrow_simon_vert,2021.1.2,Win32,59.78715772,,,,,,,,,,,,,,,,,,,,,,,,,,,,,,,,,,,,,,
,,,left,1,1.0433,0,0.545651546,#a3d0fb,"[""-0.25"",""0""]",left_blue.png,left,4,2,18,2,1,,,left,left_blue.png,down_orange.png,down,left,down,60fd6a2e013bff4b729c6dec,2021-09-08_11h21.26.509,arrow_simon_vert,2021.1.2,Win32,59.78715772,,,,,,,,,,,,,,,,,,,,,,,,,,,,,,,,,,,,,,
,,,up,1,1.4378,0,0.842280109,#f3af84,"[""0"",""0.25""]",up_orange.png,up,4,3,19,1,1,,,right,right_blue.png,up_orange.png,up,right,up,60fd6a2e013bff4b729c6dec,2021-09-08_11h21.26.509,arrow_simon_vert,2021.1.2,Win32,59.78715772,,,,,,,,,,,,,,,,,,,,,,,,,,,,,,,,,,,,,,
,,,right,0,1.6374,1,0.844333927,#a3d0fb,"[""0.25"",""0""]",left_blue.png,left,5,0,20,3,1,,,left,left_blue.png,down_orange.png,down,right,up,60fd6a2e013bff4b729c6dec,2021-09-08_11h21.26.509,arrow_simon_vert,2021.1.2,Win32,59.78715772,,,,,,,,,,,,,,,,,,,,,,,,,,,,,,,,,,,,,,
,,,up,1,1.3364,0,0.720230112,#f3af84,"[""0"",""0.25""]",up_orange.png,up,5,1,21,1,1,,,right,right_blue.png,up_orange.png,up,right,up,60fd6a2e013bff4b729c6dec,2021-09-08_11h21.26.509,arrow_simon_vert,2021.1.2,Win32,59.78715772,,,,,,,,,,,,,,,,,,,,,,,,,,,,,,,,,,,,,,
,,,left,1,0.8451,0,0.304569421,#a3d0fb,"[""-0.25"",""0""]",left_blue.png,left,5,2,22,2,1,,,left,left_blue.png,down_orange.png,down,left,down,60fd6a2e013bff4b729c6dec,2021-09-08_11h21.26.509,arrow_simon_vert,2021.1.2,Win32,59.78715772,,,,,,,,,,,,,,,,,,,,,,,,,,,,,,,,,,,,,,
,,,down,1,1.2705,0,0.656067711,#f3af84,"[""0"",""-0.25""]",down_orange.png,down,5,3,23,2,1,,,left,left_blue.png,down_orange.png,down,left,down,60fd6a2e013bff4b729c6dec,2021-09-08_11h21.26.509,arrow_simon_vert,2021.1.2,Win32,59.78715772,,,,,,,,,,,,,,,,,,,,,,,,,,,,,,,,,,,,,,
,,,right,1,1.4411,0,0.661094595,#a3d0fb,"[""-0.25"",""0""]",right_blue.png,right,6,0,24,0,1,,,right,right_blue.png,up_orange.png,up,left,down,60fd6a2e013bff4b729c6dec,2021-09-08_11h21.26.509,arrow_simon_vert,2021.1.2,Win32,59.78715772,,,,,,,,,,,,,,,,,,,,,,,,,,,,,,,,,,,,,,
,,,down,1,1.2588,0,0.596023005,#f3af84,"[""0"",""0.25""]",down_orange.png,down,6,1,25,3,1,,,left,left_blue.png,down_orange.png,down,right,up,60fd6a2e013bff4b729c6dec,2021-09-08_11h21.26.509,arrow_simon_vert,2021.1.2,Win32,59.78715772,,,,,,,,,,,,,,,,,,,,,,,,,,,,,,,,,,,,,,
,,,left,1,0.683,0,0.098778222,#a3d0fb,"[""0.25"",""0""]",left_blue.png,left,6,2,26,3,1,,,left,left_blue.png,down_orange.png,down,right,up,60fd6a2e013bff4b729c6dec,2021-09-08_11h21.26.509,arrow_simon_vert,2021.1.2,Win32,59.78715772,,,,,,,,,,,,,,,,,,,,,,,,,,,,,,,,,,,,,,
,,,down,1,0.822,0,0.227886037,#f3af84,"[""0"",""-0.25""]",down_orange.png,down,6,3,27,2,1,,,left,left_blue.png,down_orange.png,down,left,down,60fd6a2e013bff4b729c6dec,2021-09-08_11h21.26.509,arrow_simon_vert,2021.1.2,Win32,59.78715772,,,,,,,,,,,,,,,,,,,,,,,,,,,,,,,,,,,,,,
,,,left,1,0.5861,0,0.037169808,#a3d0fb,"[""0.25"",""0""]",left_blue.png,left,7,0,28,3,1,,,left,left_blue.png,down_orange.png,down,right,up,60fd6a2e013bff4b729c6dec,2021-09-08_11h21.26.509,arrow_simon_vert,2021.1.2,Win32,59.78715772,,,,,,,,,,,,,,,,,,,,,,,,,,,,,,,,,,,,,,
,,,down,0,0.8918,1,0.372472655,#f3af84,"[""0"",""-0.25""]",up_orange.png,up,7,1,29,0,1,,,right,right_blue.png,up_orange.png,up,left,down,60fd6a2e013bff4b729c6dec,2021-09-08_11h21.26.509,arrow_simon_vert,2021.1.2,Win32,59.78715772,,,,,,,,,,,,,,,,,,,,,,,,,,,,,,,,,,,,,,
,,,left,1,1.1246,0,0.438724054,#a3d0fb,"[""-0.25"",""0""]",left_blue.png,left,7,2,30,2,1,,,left,left_blue.png,down_orange.png,down,left,down,60fd6a2e013bff4b729c6dec,2021-09-08_11h21.26.509,arrow_simon_vert,2021.1.2,Win32,59.78715772,,,,,,,,,,,,,,,,,,,,,,,,,,,,,,,,,,,,,,
,,,up,1,1.4864,0,0.813336663,#f3af84,"[""0"",""0.25""]",up_orange.png,up,7,3,31,1,1,,,right,right_blue.png,up_orange.png,up,right,up,60fd6a2e013bff4b729c6dec,2021-09-08_11h21.26.509,arrow_simon_vert,2021.1.2,Win32,59.78715772,,,,,,,,,,,,,,,,,,,,,,,,,,,,,,,,,,,,,,
,,,left,1,1.4249,0,0.841090334,#a3d0fb,"[""-0.25"",""0""]",left_blue.png,left,8,0,32,2,1,,,left,left_blue.png,down_orange.png,down,left,down,60fd6a2e013bff4b729c6dec,2021-09-08_11h21.26.509,arrow_simon_vert,2021.1.2,Win32,59.78715772,,,,,,,,,,,,,,,,,,,,,,,,,,,,,,,,,,,,,,
,,,up,1,1.6873,0,0.992135785,#f3af84,"[""0"",""0.25""]",up_orange.png,up,8,1,33,1,1,,,right,right_blue.png,up_orange.png,up,right,up,60fd6a2e013bff4b729c6dec,2021-09-08_11h21.26.509,arrow_simon_vert,2021.1.2,Win32,59.78715772,,,,,,,,,,,,,,,,,,,,,,,,,,,,,,,,,,,,,,
,,,right,1,1.4263,0,0.786989842,#a3d0fb,"[""-0.25"",""0""]",right_blue.png,right,8,2,34,0,1,,,right,right_blue.png,up_orange.png,up,left,down,60fd6a2e013bff4b729c6dec,2021-09-08_11h21.26.509,arrow_simon_vert,2021.1.2,Win32,59.78715772,,,,,,,,,,,,,,,,,,,,,,,,,,,,,,,,,,,,,,
,,,down,1,1.0762,0,0.37807388,#f3af84,"[""0"",""0.25""]",down_orange.png,down,8,3,35,3,1,,,left,left_blue.png,down_orange.png,down,right,up,60fd6a2e013bff4b729c6dec,2021-09-08_11h21.26.509,arrow_simon_vert,2021.1.2,Win32,59.78715772,,,,,,,,,,,,,,,,,,,,,,,,,,,,,,,,,,,,,,
,,,right,1,1.0871,0,0.481174453,#a3d0fb,"[""0.25"",""0""]",right_blue.png,right,9,0,36,1,1,,,right,right_blue.png,up_orange.png,up,right,up,60fd6a2e013bff4b729c6dec,2021-09-08_11h21.26.509,arrow_simon_vert,2021.1.2,Win32,59.78715772,,,,,,,,,,,,,,,,,,,,,,,,,,,,,,,,,,,,,,
,,,down,1,1.0024,0,0.448310973,#f3af84,"[""0"",""-0.25""]",down_orange.png,down,9,1,37,2,1,,,left,left_blue.png,down_orange.png,down,left,down,60fd6a2e013bff4b729c6dec,2021-09-08_11h21.26.509,arrow_simon_vert,2021.1.2,Win32,59.78715772,,,,,,,,,,,,,,,,,,,,,,,,,,,,,,,,,,,,,,
,,,right,1,1.0887,0,0.497704875,#a3d0fb,"[""-0.25"",""0""]",right_blue.png,right,9,2,38,0,1,,,right,right_blue.png,up_orange.png,up,left,down,60fd6a2e013bff4b729c6dec,2021-09-08_11h21.26.509,arrow_simon_vert,2021.1.2,Win32,59.78715772,,,,,,,,,,,,,,,,,,,,,,,,,,,,,,,,,,,,,,
,,,down,0,1.0861,1,0.400525518,#f3af84,"[""0"",""-0.25""]",up_orange.png,up,9,3,39,0,1,,,right,right_blue.png,up_orange.png,up,left,down,60fd6a2e013bff4b729c6dec,2021-09-08_11h21.26.509,arrow_simon_vert,2021.1.2,Win32,59.78715772,,,,,,,,,,,,,,,,,,,,,,,,,,,,,,,,,,,,,,
,,,left,1,1.651,0,0.954038951,#a3d0fb,"[""0.25"",""0""]",left_blue.png,left,10,0,40,3,1,,,left,left_blue.png,down_orange.png,down,right,up,60fd6a2e013bff4b729c6dec,2021-09-08_11h21.26.509,arrow_simon_vert,2021.1.2,Win32,59.78715772,,,,,,,,,,,,,,,,,,,,,,,,,,,,,,,,,,,,,,
,,,up,1,1.003,0,0.034944142,#f3af84,"[""0"",""-0.25""]",up_orange.png,up,10,1,41,0,1,,,right,right_blue.png,up_orange.png,up,left,down,60fd6a2e013bff4b729c6dec,2021-09-08_11h21.26.509,arrow_simon_vert,2021.1.2,Win32,59.78715772,,,,,,,,,,,,,,,,,,,,,,,,,,,,,,,,,,,,,,
,,,right,1,0.7501,0,0.207204189,#a3d0fb,"[""0.25"",""0""]",right_blue.png,right,10,2,42,1,1,,,right,right_blue.png,up_orange.png,up,right,up,60fd6a2e013bff4b729c6dec,2021-09-08_11h21.26.509,arrow_simon_vert,2021.1.2,Win32,59.78715772,,,,,,,,,,,,,,,,,,,,,,,,,,,,,,,,,,,,,,
,,,up,1,0.8272,0,0.131919631,#f3af84,"[""0"",""-0.25""]",up_orange.png,up,10,3,43,0,1,,,right,right_blue.png,up_orange.png,up,left,down,60fd6a2e013bff4b729c6dec,2021-09-08_11h21.26.509,arrow_simon_vert,2021.1.2,Win32,59.78715772,,,,,,,,,,,,,,,,,,,,,,,,,,,,,,,,,,,,,,
,,,left,1,1.1721,0,0.242354431,#a3d0fb,"[""-0.25"",""0""]",left_blue.png,left,11,0,44,2,1,,,left,left_blue.png,down_orange.png,down,left,down,60fd6a2e013bff4b729c6dec,2021-09-08_11h21.26.509,arrow_simon_vert,2021.1.2,Win32,59.78715772,,,,,,,,,,,,,,,,,,,,,,,,,,,,,,,,,,,,,,
,,,up,1,1.283,0,0.567152867,#f3af84,"[""0"",""-0.25""]",up_orange.png,up,11,1,45,0,1,,,right,right_blue.png,up_orange.png,up,left,down,60fd6a2e013bff4b729c6dec,2021-09-08_11h21.26.509,arrow_simon_vert,2021.1.2,Win32,59.78715772,,,,,,,,,,,,,,,,,,,,,,,,,,,,,,,,,,,,,,
,,,left,1,0.7859,0,0.009190863,#a3d0fb,"[""-0.25"",""0""]",left_blue.png,left,11,2,46,2,1,,,left,left_blue.png,down_orange.png,down,left,down,60fd6a2e013bff4b729c6dec,2021-09-08_11h21.26.509,arrow_simon_vert,2021.1.2,Win32,59.78715772,,,,,,,,,,,,,,,,,,,,,,,,,,,,,,,,,,,,,,
,,,up,1,1.237,0,0.736303472,#f3af84,"[""0"",""0.25""]",up_orange.png,up,11,3,47,1,1,,,right,right_blue.png,up_orange.png,up,right,up,60fd6a2e013bff4b729c6dec,2021-09-08_11h21.26.509,arrow_simon_vert,2021.1.2,Win32,59.78715772,,,,,,,,,,,,,,,,,,,,,,,,,,,,,,,,,,,,,,
,,,right,1,1.6103,0,0.930942791,#a3d0fb,"[""-0.25"",""0""]",right_blue.png,right,12,0,48,0,1,,,right,right_blue.png,up_orange.png,up,left,down,60fd6a2e013bff4b729c6dec,2021-09-08_11h21.26.509,arrow_simon_vert,2021.1.2,Win32,59.78715772,,,,,,,,,,,,,,,,,,,,,,,,,,,,,,,,,,,,,,
,,,up,1,0.5841,0,0.009028786,#f3af84,"[""0"",""0.25""]",up_orange.png,up,12,1,49,1,1,,,right,right_blue.png,up_orange.png,up,right,up,60fd6a2e013bff4b729c6dec,2021-09-08_11h21.26.509,arrow_simon_vert,2021.1.2,Win32,59.78715772,,,,,,,,,,,,,,,,,,,,,,,,,,,,,,,,,,,,,,
,,,right,1,1.3777,0,0.831455377,#a3d0fb,"[""0.25"",""0""]",right_blue.png,right,12,2,50,1,1,,,right,right_blue.png,up_orange.png,up,right,up,60fd6a2e013bff4b729c6dec,2021-09-08_11h21.26.509,arrow_simon_vert,2021.1.2,Win32,59.78715772,,,,,,,,,,,,,,,,,,,,,,,,,,,,,,,,,,,,,,
,,,up,1,0.638,0,0.073260336,#f3af84,"[""0"",""0.25""]",up_orange.png,up,12,3,51,1,1,,,right,right_blue.png,up_orange.png,up,right,up,60fd6a2e013bff4b729c6dec,2021-09-08_11h21.26.509,arrow_simon_vert,2021.1.2,Win32,59.78715772,,,,,,,,,,,,,,,,,,,,,,,,,,,,,,,,,,,,,,
,,,right,1,0.6888,0,0.237973067,#a3d0fb,"[""0.25"",""0""]",right_blue.png,right,13,0,52,1,1,,,right,right_blue.png,up_orange.png,up,right,up,60fd6a2e013bff4b729c6dec,2021-09-08_11h21.26.509,arrow_simon_vert,2021.1.2,Win32,59.78715772,,,,,,,,,,,,,,,,,,,,,,,,,,,,,,,,,,,,,,
,,,up,1,1.6245,0,0.893325435,#f3af84,"[""0"",""-0.25""]",up_orange.png,up,13,1,53,0,1,,,right,right_blue.png,up_orange.png,up,left,down,60fd6a2e013bff4b729c6dec,2021-09-08_11h21.26.509,arrow_simon_vert,2021.1.2,Win32,59.78715772,,,,,,,,,,,,,,,,,,,,,,,,,,,,,,,,,,,,,,
,,,left,1,1.2336,0,0.567290382,#a3d0fb,"[""-0.25"",""0""]",left_blue.png,left,13,2,54,2,1,,,left,left_blue.png,down_orange.png,down,left,down,60fd6a2e013bff4b729c6dec,2021-09-08_11h21.26.509,arrow_simon_vert,2021.1.2,Win32,59.78715772,,,,,,,,,,,,,,,,,,,,,,,,,,,,,,,,,,,,,,
,,,up,1,1.2701,0,0.784611278,#f3af84,"[""0"",""0.25""]",up_orange.png,up,13,3,55,1,1,,,right,right_blue.png,up_orange.png,up,right,up,60fd6a2e013bff4b729c6dec,2021-09-08_11h21.26.509,arrow_simon_vert,2021.1.2,Win32,59.78715772,,,,,,,,,,,,,,,,,,,,,,,,,,,,,,,,,,,,,,
,,,left,1,1.5414,0,0.936870323,#a3d0fb,"[""0.25"",""0""]",left_blue.png,left,14,0,56,3,1,,,left,left_blue.png,down_orange.png,down,right,up,60fd6a2e013bff4b729c6dec,2021-09-08_11h21.26.509,arrow_simon_vert,2021.1.2,Win32,59.78715772,,,,,,,,,,,,,,,,,,,,,,,,,,,,,,,,,,,,,,
,,,up,1,1.6047,0,0.901566616,#f3af84,"[""0"",""-0.25""]",up_orange.png,up,14,1,57,0,1,,,right,right_blue.png,up_orange.png,up,left,down,60fd6a2e013bff4b729c6dec,2021-09-08_11h21.26.509,arrow_simon_vert,2021.1.2,Win32,59.78715772,,,,,,,,,,,,,,,,,,,,,,,,,,,,,,,,,,,,,,
,,,right,1,0.8593,0,0.299440426,#a3d0fb,"[""-0.25"",""0""]",right_blue.png,right,14,2,58,0,1,,,right,right_blue.png,up_orange.png,up,left,down,60fd6a2e013bff4b729c6dec,2021-09-08_11h21.26.509,arrow_simon_vert,2021.1.2,Win32,59.78715772,,,,,,,,,,,,,,,,,,,,,,,,,,,,,,,,,,,,,,
,,,up,1,0.9562,0,0.49576188,#f3af84,"[""0"",""0.25""]",up_orange.png,up,14,3,59,1,1,,,right,right_blue.png,up_orange.png,up,right,up,60fd6a2e013bff4b729c6dec,2021-09-08_11h21.26.509,arrow_simon_vert,2021.1.2,Win32,59.78715772,,,,,,,,,,,,,,,,,,,,,,,,,,,,,,,,,,,,,,
,,,,,,,,,,,,,,,,,,,,,,,,,60fd6a2e013bff4b729c6dec,2021-09-08_11h21.26.509,arrow_simon_vert,2021.1.2,Win32,59.78715772,space,7.5309,0,0,0,0,1,,,,,,,,,,,,,,,,,,,,,,,,,,,,,,,
,,,left,1,1.4536,0,0.75383641,#a3d0fb,"[""-0.25"",""0""]",left_blue.png,left,0,0,0,2,1,,,left,left_blue.png,down_orange.png,down,left,down,60fd6a2e013bff4b729c6dec,2021-09-08_11h21.26.509,arrow_simon_vert,2021.1.2,Win32,59.78715772,,,,,,,,,,,,,,,,,,,,,,,,,,,,,,,,,,,,,,
,,,down,0,1.0355,1,0.163536261,#f3af84,"[""0"",""-0.25""]",up_orange.png,up,0,1,1,0,1,,,right,right_blue.png,up_orange.png,up,left,down,60fd6a2e013bff4b729c6dec,2021-09-08_11h21.26.509,arrow_simon_vert,2021.1.2,Win32,59.78715772,,,,,,,,,,,,,,,,,,,,,,,,,,,,,,,,,,,,,,
,,,right,1,0.6846,0,0.209439467,#a3d0fb,"[""0.25"",""0""]",right_blue.png,right,0,2,2,1,1,,,right,right_blue.png,up_orange.png,up,right,up,60fd6a2e013bff4b729c6dec,2021-09-08_11h21.26.509,arrow_simon_vert,2021.1.2,Win32,59.78715772,,,,,,,,,,,,,,,,,,,,,,,,,,,,,,,,,,,,,,
,,,up,1,0.8905,0,0.371547642,#f3af84,"[""0"",""-0.25""]",up_orange.png,up,0,3,3,0,1,,,right,right_blue.png,up_orange.png,up,left,down,60fd6a2e013bff4b729c6dec,2021-09-08_11h21.26.509,arrow_simon_vert,2021.1.2,Win32,59.78715772,,,,,,,,,,,,,,,,,,,,,,,,,,,,,,,,,,,,,,
,,,right,1,0.852,0,0.297138753,#a3d0fb,"[""-0.25"",""0""]",right_blue.png,right,1,0,4,0,1,,,right,right_blue.png,up_orange.png,up,left,down,60fd6a2e013bff4b729c6dec,2021-09-08_11h21.26.509,arrow_simon_vert,2021.1.2,Win32,59.78715772,,,,,,,,,,,,,,,,,,,,,,,,,,,,,,,,,,,,,,
,,,up,1,1.2865,0,0.650206596,#f3af84,"[""0"",""-0.25""]",up_orange.png,up,1,1,5,0,1,,,right,right_blue.png,up_orange.png,up,left,down,60fd6a2e013bff4b729c6dec,2021-09-08_11h21.26.509,arrow_simon_vert,2021.1.2,Win32,59.78715772,,,,,,,,,,,,,,,,,,,,,,,,,,,,,,,,,,,,,,
,,,left,1,0.7348,0,0.065674204,#a3d0fb,"[""-0.25"",""0""]",left_blue.png,left,1,2,6,2,1,,,left,left_blue.png,down_orange.png,down,left,down,60fd6a2e013bff4b729c6dec,2021-09-08_11h21.26.509,arrow_simon_vert,2021.1.2,Win32,59.78715772,,,,,,,,,,,,,,,,,,,,,,,,,,,,,,,,,,,,,,
,,,up,1,1.4708,0,0.84784736,#f3af84,"[""0"",""0.25""]",up_orange.png,up,1,3,7,1,1,,,right,right_blue.png,up_orange.png,up,right,up,60fd6a2e013bff4b729c6dec,2021-09-08_11h21.26.509,arrow_simon_vert,2021.1.2,Win32,59.78715772,,,,,,,,,,,,,,,,,,,,,,,,,,,,,,,,,,,,,,
,,,right,1,0.7773,0,0.200123562,#a3d0fb,"[""-0.25"",""0""]",right_blue.png,right,2,0,8,0,1,,,right,right_blue.png,up_orange.png,up,left,down,60fd6a2e013bff4b729c6dec,2021-09-08_11h21.26.509,arrow_simon_vert,2021.1.2,Win32,59.78715772,,,,,,,,,,,,,,,,,,,,,,,,,,,,,,,,,,,,,,
,,,up,1,1.4709,0,0.800642231,#f3af84,"[""0"",""-0.25""]",up_orange.png,up,2,1,9,0,1,,,right,right_blue.png,up_orange.png,up,left,down,60fd6a2e013bff4b729c6dec,2021-09-08_11h21.26.509,arrow_simon_vert,2021.1.2,Win32,59.78715772,,,,,,,,,,,,,,,,,,,,,,,,,,,,,,,,,,,,,,
,,,left,1,0.8163,0,0.124307697,#a3d0fb,"[""0.25"",""0""]",left_blue.png,left,2,2,10,3,1,,,left,left_blue.png,down_orange.png,down,right,up,60fd6a2e013bff4b729c6dec,2021-09-08_11h21.26.509,arrow_simon_vert,2021.1.2,Win32,59.78715772,,,,,,,,,,,,,,,,,,,,,,,,,,,,,,,,,,,,,,
,,,up,1,1.0106,0,0.527878016,#f3af84,"[""0"",""0.25""]",up_orange.png,up,2,3,11,1,1,,,right,right_blue.png,up_orange.png,up,right,up,60fd6a2e013bff4b729c6dec,2021-09-08_11h21.26.509,arrow_simon_vert,2021.1.2,Win32,59.78715772,,,,,,,,,,,,,,,,,,,,,,,,,,,,,,,,,,,,,,
,,,left,1,1.3035,0,0.691591876,#a3d0fb,"[""0.25"",""0""]",left_blue.png,left,3,0,12,3,1,,,left,left_blue.png,down_orange.png,down,right,up,60fd6a2e013bff4b729c6dec,2021-09-08_11h21.26.509,arrow_simon_vert,2021.1.2,Win32,59.78715772,,,,,,,,,,,,,,,,,,,,,,,,,,,,,,,,,,,,,,
,,,up,0,0.6357,1,0.096737777,#f3af84,"[""0"",""-0.25""]",down_orange.png,down,3,1,13,2,1,,,left,left_blue.png,down_orange.png,down,left,down,60fd6a2e013bff4b729c6dec,2021-09-08_11h21.26.509,arrow_simon_vert,2021.1.2,Win32,59.78715772,,,,,,,,,,,,,,,,,,,,,,,,,,,,,,,,,,,,,,
,,,left,1,0.9768,0,0.399459098,#a3d0fb,"[""-0.25"",""0""]",left_blue.png,left,3,2,14,2,1,,,left,left_blue.png,down_orange.png,down,left,down,60fd6a2e013bff4b729c6dec,2021-09-08_11h21.26.509,arrow_simon_vert,2021.1.2,Win32,59.78715772,,,,,,,,,,,,,,,,,,,,,,,,,,,,,,,,,,,,,,
,,,down,0,1.4611,1,0.794907547,#f3af84,"[""0"",""-0.25""]",up_orange.png,up,3,3,15,0,1,,,right,right_blue.png,up_orange.png,up,left,down,60fd6a2e013bff4b729c6dec,2021-09-08_11h21.26.509,arrow_simon_vert,2021.1.2,Win32,59.78715772,,,,,,,,,,,,,,,,,,,,,,,,,,,,,,,,,,,,,,
,,,right,1,1.468,0,0.938287401,#a3d0fb,"[""0.25"",""0""]",right_blue.png,right,4,0,16,1,1,,,right,right_blue.png,up_orange.png,up,right,up,60fd6a2e013bff4b729c6dec,2021-09-08_11h21.26.509,arrow_simon_vert,2021.1.2,Win32,59.78715772,,,,,,,,,,,,,,,,,,,,,,,,,,,,,,,,,,,,,,
,,,down,1,0.8617,0,0.170706849,#f3af84,"[""0"",""0.25""]",down_orange.png,down,4,1,17,3,1,,,left,left_blue.png,down_orange.png,down,right,up,60fd6a2e013bff4b729c6dec,2021-09-08_11h21.26.509,arrow_simon_vert,2021.1.2,Win32,59.78715772,,,,,,,,,,,,,,,,,,,,,,,,,,,,,,,,,,,,,,
,,,left,1,1.1122,0,0.082905675,#a3d0fb,"[""0.25"",""0""]",left_blue.png,left,4,2,18,3,1,,,left,left_blue.png,down_orange.png,down,right,up,60fd6a2e013bff4b729c6dec,2021-09-08_11h21.26.509,arrow_simon_vert,2021.1.2,Win32,59.78715772,,,,,,,,,,,,,,,,,,,,,,,,,,,,,,,,,,,,,,
,,,down,1,0.9908,0,0.231064526,#f3af84,"[""0"",""-0.25""]",down_orange.png,down,4,3,19,2,1,,,left,left_blue.png,down_orange.png,down,left,down,60fd6a2e013bff4b729c6dec,2021-09-08_11h21.26.509,arrow_simon_vert,2021.1.2,Win32,59.78715772,,,,,,,,,,,,,,,,,,,,,,,,,,,,,,,,,,,,,,
,,,right,1,1.0672,0,0.417316705,#a3d0fb,"[""-0.25"",""0""]",right_blue.png,right,5,0,20,0,1,,,right,right_blue.png,up_orange.png,up,left,down,60fd6a2e013bff4b729c6dec,2021-09-08_11h21.26.509,arrow_simon_vert,2021.1.2,Win32,59.78715772,,,,,,,,,,,,,,,,,,,,,,,,,,,,,,,,,,,,,,
,,,down,1,1.6376,0,0.83290752,#f3af84,"[""0"",""-0.25""]",down_orange.png,down,5,1,21,2,1,,,left,left_blue.png,down_orange.png,down,left,down,60fd6a2e013bff4b729c6dec,2021-09-08_11h21.26.509,arrow_simon_vert,2021.1.2,Win32,59.78715772,,,,,,,,,,,,,,,,,,,,,,,,,,,,,,,,,,,,,,
,,,left,1,0.8606,0,0.255780039,#a3d0fb,"[""0.25"",""0""]",left_blue.png,left,5,2,22,3,1,,,left,left_blue.png,down_orange.png,down,right,up,60fd6a2e013bff4b729c6dec,2021-09-08_11h21.26.509,arrow_simon_vert,2021.1.2,Win32,59.78715772,,,,,,,,,,,,,,,,,,,,,,,,,,,,,,,,,,,,,,
,,,down,1,1.2045,0,0.469596924,#f3af84,"[""0"",""0.25""]",down_orange.png,down,5,3,23,3,1,,,left,left_blue.png,down_orange.png,down,right,up,60fd6a2e013bff4b729c6dec,2021-09-08_11h21.26.509,arrow_simon_vert,2021.1.2,Win32,59.78715772,,,,,,,,,,,,,,,,,,,,,,,,,,,,,,,,,,,,,,
,,,right,1,1.384,0,0.821252163,#a3d0fb,"[""-0.25"",""0""]",right_blue.png,right,6,0,24,0,1,,,right,right_blue.png,up_orange.png,up,left,down,60fd6a2e013bff4b729c6dec,2021-09-08_11h21.26.509,arrow_simon_vert,2021.1.2,Win32,59.78715772,,,,,,,,,,,,,,,,,,,,,,,,,,,,,,,,,,,,,,
,,,down,1,0.8783,0,0.396361941,#f3af84,"[""0"",""0.25""]",down_orange.png,down,6,1,25,3,1,,,left,left_blue.png,down_orange.png,down,right,up,60fd6a2e013bff4b729c6dec,2021-09-08_11h21.26.509,arrow_simon_vert,2021.1.2,Win32,59.78715772,,,,,,,,,,,,,,,,,,,,,,,,,,,,,,,,,,,,,,
,,,right,1,1.2309,0,0.696349759,#a3d0fb,"[""0.25"",""0""]",right_blue.png,right,6,2,26,1,1,,,right,right_blue.png,up_orange.png,up,right,up,60fd6a2e013bff4b729c6dec,2021-09-08_11h21.26.509,arrow_simon_vert,2021.1.2,Win32,59.78715772,,,,,,,,,,,,,,,,,,,,,,,,,,,,,,,,,,,,,,
,,,down,1,0.9766,0,0.437604121,#f3af84,"[""0"",""0.25""]",down_orange.png,down,6,3,27,3,1,,,left,left_blue.png,down_orange.png,down,right,up,60fd6a2e013bff4b729c6dec,2021-09-08_11h21.26.509,arrow_simon_vert,2021.1.2,Win32,59.78715772,,,,,,,,,,,,,,,,,,,,,,,,,,,,,,,,,,,,,,
,,,right,1,1.1566,0,0.643630642,#a3d0fb,"[""0.25"",""0""]",right_blue.png,right,7,0,28,1,1,,,right,right_blue.png,up_orange.png,up,right,up,60fd6a2e013bff4b729c6dec,2021-09-08_11h21.26.509,arrow_simon_vert,2021.1.2,Win32,59.78715772,,,,,,,,,,,,,,,,,,,,,,,,,,,,,,,,,,,,,,
,,,down,0,1.3546,1,0.598793376,#f3af84,"[""0"",""-0.25""]",up_orange.png,up,7,1,29,0,1,,,right,right_blue.png,up_orange.png,up,left,down,60fd6a2e013bff4b729c6dec,2021-09-08_11h21.26.509,arrow_simon_vert,2021.1.2,Win32,59.78715772,,,,,,,,,,,,,,,,,,,,,,,,,,,,,,,,,,,,,,
,,,right,1,1.5201,0,0.88742731,#a3d0fb,"[""-0.25"",""0""]",right_blue.png,right,7,2,30,0,1,,,right,right_blue.png,up_orange.png,up,left,down,60fd6a2e013bff4b729c6dec,2021-09-08_11h21.26.509,arrow_simon_vert,2021.1.2,Win32,59.78715772,,,,,,,,,,,,,,,,,,,,,,,,,,,,,,,,,,,,,,
,,,down,1,1.6206,0,0.604218145,#f3af84,"[""0"",""-0.25""]",down_orange.png,down,7,3,31,2,1,,,left,left_blue.png,down_orange.png,down,left,down,60fd6a2e013bff4b729c6dec,2021-09-08_11h21.26.509,arrow_simon_vert,2021.1.2,Win32,59.78715772,,,,,,,,,,,,,,,,,,,,,,,,,,,,,,,,,,,,,,
,,,left,1,1.0875,0,0.412446252,#a3d0fb,"[""0.25"",""0""]",left_blue.png,left,8,0,32,3,1,,,left,left_blue.png,down_orange.png,down,right,up,60fd6a2e013bff4b729c6dec,2021-09-08_11h21.26.509,arrow_simon_vert,2021.1.2,Win32,59.78715772,,,,,,,,,,,,,,,,,,,,,,,,,,,,,,,,,,,,,,
,,,down,1,1.2214,0,0.44190415,#f3af84,"[""0"",""0.25""]",down_orange.png,down,8,1,33,3,1,,,left,left_blue.png,down_orange.png,down,right,up,60fd6a2e013bff4b729c6dec,2021-09-08_11h21.26.509,arrow_simon_vert,2021.1.2,Win32,59.78715772,,,,,,,,,,,,,,,,,,,,,,,,,,,,,,,,,,,,,,
,,,left,1,0.8666,0,0.168993206,#a3d0fb,"[""-0.25"",""0""]",left_blue.png,left,8,2,34,2,1,,,left,left_blue.png,down_orange.png,down,left,down,60fd6a2e013bff4b729c6dec,2021-09-08_11h21.26.509,arrow_simon_vert,2021.1.2,Win32,59.78715772,,,,,,,,,,,,,,,,,,,,,,,,,,,,,,,,,,,,,,
,,,down,1,0.9531,0,0.022785831,#f3af84,"[""0"",""0.25""]",down_orange.png,down,8,3,35,3,1,,,left,left_blue.png,down_orange.png,down,right,up,60fd6a2e013bff4b729c6dec,2021-09-08_11h21.26.509,arrow_simon_vert,2021.1.2,Win32,59.78715772,,,,,,,,,,,,,,,,,,,,,,,,,,,,,,,,,,,,,,
,,,right,1,1.7868,0,0.981128601,#a3d0fb,"[""-0.25"",""0""]",right_blue.png,right,9,0,36,0,1,,,right,right_blue.png,up_orange.png,up,left,down,60fd6a2e013bff4b729c6dec,2021-09-08_11h21.26.509,arrow_simon_vert,2021.1.2,Win32,59.78715772,,,,,,,,,,,,,,,,,,,,,,,,,,,,,,,,,,,,,,
,,,down,1,1.4192,0,0.688090399,#f3af84,"[""0"",""-0.25""]",down_orange.png,down,9,1,37,2,1,,,left,left_blue.png,down_orange.png,down,left,down,60fd6a2e013bff4b729c6dec,2021-09-08_11h21.26.509,arrow_simon_vert,2021.1.2,Win32,59.78715772,,,,,,,,,,,,,,,,,,,,,,,,,,,,,,,,,,,,,,
,,,right,1,1.4057,0,0.918036242,#a3d0fb,"[""0.25"",""0""]",right_blue.png,right,9,2,38,1,1,,,right,right_blue.png,up_orange.png,up,right,up,60fd6a2e013bff4b729c6dec,2021-09-08_11h21.26.509,arrow_simon_vert,2021.1.2,Win32,59.78715772,,,,,,,,,,,,,,,,,,,,,,,,,,,,,,,,,,,,,,
,,,down,1,0.8082,0,0.2232862,#f3af84,"[""0"",""-0.25""]",down_orange.png,down,9,3,39,2,1,,,left,left_blue.png,down_orange.png,down,left,down,60fd6a2e013bff4b729c6dec,2021-09-08_11h21.26.509,arrow_simon_vert,2021.1.2,Win32,59.78715772,,,,,,,,,,,,,,,,,,,,,,,,,,,,,,,,,,,,,,
,,,left,1,0.669,0,0.114215503,#a3d0fb,"[""-0.25"",""0""]",left_blue.png,left,10,0,40,2,1,,,left,left_blue.png,down_orange.png,down,left,down,60fd6a2e013bff4b729c6dec,2021-09-08_11h21.26.509,arrow_simon_vert,2021.1.2,Win32,59.78715772,,,,,,,,,,,,,,,,,,,,,,,,,,,,,,,,,,,,,,
,,,down,1,1.0711,0,0.571224529,#f3af84,"[""0"",""-0.25""]",down_orange.png,down,10,1,41,2,1,,,left,left_blue.png,down_orange.png,down,left,down,60fd6a2e013bff4b729c6dec,2021-09-08_11h21.26.509,arrow_simon_vert,2021.1.2,Win32,59.78715772,,,,,,,,,,,,,,,,,,,,,,,,,,,,,,,,,,,,,,
,,,left,1,1.614,0,0.936705232,#a3d0fb,"[""0.25"",""0""]",left_blue.png,left,10,2,42,3,1,,,left,left_blue.png,down_orange.png,down,right,up,60fd6a2e013bff4b729c6dec,2021-09-08_11h21.26.509,arrow_simon_vert,2021.1.2,Win32,59.78715772,,,,,,,,,,,,,,,,,,,,,,,,,,,,,,,,,,,,,,
,,,down,0,0.6015,1,0.09477605,#f3af84,"[""0"",""-0.25""]",up_orange.png,up,10,3,43,0,1,,,right,right_blue.png,up_orange.png,up,left,down,60fd6a2e013bff4b729c6dec,2021-09-08_11h21.26.509,arrow_simon_vert,2021.1.2,Win32,59.78715772,,,,,,,,,,,,,,,,,,,,,,,,,,,,,,,,,,,,,,
,,,right,1,1.188,0,0.650413877,#a3d0fb,"[""0.25"",""0""]",right_blue.png,right,11,0,44,1,1,,,right,right_blue.png,up_orange.png,up,right,up,60fd6a2e013bff4b729c6dec,2021-09-08_11h21.26.509,arrow_simon_vert,2021.1.2,Win32,59.78715772,,,,,,,,,,,,,,,,,,,,,,,,,,,,,,,,,,,,,,
,,,down,1,1.0085,0,0.429585467,#f3af84,"[""0"",""-0.25""]",down_orange.png,down,11,1,45,2,1,,,left,left_blue.png,down_orange.png,down,left,down,60fd6a2e013bff4b729c6dec,2021-09-08_11h21.26.509,arrow_simon_vert,2021.1.2,Win32,59.78715772,,,,,,,,,,,,,,,,,,,,,,,,,,,,,,,,,,,,,,
,,,right,1,0.6431,0,0.078300163,#a3d0fb,"[""0.25"",""0""]",right_blue.png,right,11,2,46,1,1,,,right,right_blue.png,up_orange.png,up,right,up,60fd6a2e013bff4b729c6dec,2021-09-08_11h21.26.509,arrow_simon_vert,2021.1.2,Win32,59.78715772,,,,,,,,,,,,,,,,,,,,,,,,,,,,,,,,,,,,,,
,,,up,1,1.4212,0,0.955930298,#f3af84,"[""0"",""0.25""]",up_orange.png,up,11,3,47,1,1,,,right,right_blue.png,up_orange.png,up,right,up,60fd6a2e013bff4b729c6dec,2021-09-08_11h21.26.509,arrow_simon_vert,2021.1.2,Win32,59.78715772,,,,,,,,,,,,,,,,,,,,,,,,,,,,,,,,,,,,,,
,,,left,1,0.4869,0,0.078288872,#a3d0fb,"[""-0.25"",""0""]",left_blue.png,left,12,0,48,2,1,,,left,left_blue.png,down_orange.png,down,left,down,60fd6a2e013bff4b729c6dec,2021-09-08_11h21.26.509,arrow_simon_vert,2021.1.2,Win32,59.78715772,,,,,,,,,,,,,,,,,,,,,,,,,,,,,,,,,,,,,,
,,,up,1,0.808,0,0.306521986,#f3af84,"[""0"",""-0.25""]",up_orange.png,up,12,1,49,0,1,,,right,right_blue.png,up_orange.png,up,left,down,60fd6a2e013bff4b729c6dec,2021-09-08_11h21.26.509,arrow_simon_vert,2021.1.2,Win32,59.78715772,,,,,,,,,,,,,,,,,,,,,,,,,,,,,,,,,,,,,,
,,,right,1,0.6692,0,0.192761304,#a3d0fb,"[""0.25"",""0""]",right_blue.png,right,12,2,50,1,1,,,right,right_blue.png,up_orange.png,up,right,up,60fd6a2e013bff4b729c6dec,2021-09-08_11h21.26.509,arrow_simon_vert,2021.1.2,Win32,59.78715772,,,,,,,,,,,,,,,,,,,,,,,,,,,,,,,,,,,,,,
,,,up,1,1.5343,0,0.818086152,#f3af84,"[""0"",""0.25""]",up_orange.png,up,12,3,51,1,1,,,right,right_blue.png,up_orange.png,up,right,up,60fd6a2e013bff4b729c6dec,2021-09-08_11h21.26.509,arrow_simon_vert,2021.1.2,Win32,59.78715772,,,,,,,,,,,,,,,,,,,,,,,,,,,,,,,,,,,,,,
,,,right,1,1.3316,0,0.843714506,#a3d0fb,"[""0.25"",""0""]",right_blue.png,right,13,0,52,1,1,,,right,right_blue.png,up_orange.png,up,right,up,60fd6a2e013bff4b729c6dec,2021-09-08_11h21.26.509,arrow_simon_vert,2021.1.2,Win32,59.78715772,,,,,,,,,,,,,,,,,,,,,,,,,,,,,,,,,,,,,,
,,,up,1,1.193,0,0.521634208,#f3af84,"[""0"",""-0.25""]",up_orange.png,up,13,1,53,0,1,,,right,right_blue.png,up_orange.png,up,left,down,60fd6a2e013bff4b729c6dec,2021-09-08_11h21.26.509,arrow_simon_vert,2021.1.2,Win32,59.78715772,,,,,,,,,,,,,,,,,,,,,,,,,,,,,,,,,,,,,,
,,,left,1,0.6692,0,0.171497503,#a3d0fb,"[""0.25"",""0""]",left_blue.png,left,13,2,54,3,1,,,left,left_blue.png,down_orange.png,down,right,up,60fd6a2e013bff4b729c6dec,2021-09-08_11h21.26.509,arrow_simon_vert,2021.1.2,Win32,59.78715772,,,,,,,,,,,,,,,,,,,,,,,,,,,,,,,,,,,,,,
,,,up,1,1.0544,0,0.548017053,#f3af84,"[""0"",""0.25""]",up_orange.png,up,13,3,55,1,1,,,right,right_blue.png,up_orange.png,up,right,up,60fd6a2e013bff4b729c6dec,2021-09-08_11h21.26.509,arrow_simon_vert,2021.1.2,Win32,59.78715772,,,,,,,,,,,,,,,,,,,,,,,,,,,,,,,,,,,,,,
,,,left,1,1.0719,0,0.58722604,#a3d0fb,"[""0.25"",""0""]",left_blue.png,left,14,0,56,3,1,,,left,left_blue.png,down_orange.png,down,right,up,60fd6a2e013bff4b729c6dec,2021-09-08_11h21.26.509,arrow_simon_vert,2021.1.2,Win32,59.78715772,,,,,,,,,,,,,,,,,,,,,,,,,,,,,,,,,,,,,,
,,,down,1,1.1002,0,0.604362462,#f3af84,"[""0"",""-0.25""]",down_orange.png,down,14,1,57,2,1,,,left,left_blue.png,down_orange.png,down,left,down,60fd6a2e013bff4b729c6dec,2021-09-08_11h21.26.509,arrow_simon_vert,2021.1.2,Win32,59.78715772,,,,,,,,,,,,,,,,,,,,,,,,,,,,,,,,,,,,,,
,,,left,1,0.7029,0,0.078426312,#a3d0fb,"[""0.25"",""0""]",left_blue.png,left,14,2,58,3,1,,,left,left_blue.png,down_orange.png,down,right,up,60fd6a2e013bff4b729c6dec,2021-09-08_11h21.26.509,arrow_simon_vert,2021.1.2,Win32,59.78715772,,,,,,,,,,,,,,,,,,,,,,,,,,,,,,,,,,,,,,
,,,up,1,0.7359,0,0.303685097,#f3af84,"[""0"",""0.25""]",up_orange.png,up,14,3,59,1,1,,,right,right_blue.png,up_orange.png,up,right,up,60fd6a2e013bff4b729c6dec,2021-09-08_11h21.26.509,arrow_simon_vert,2021.1.2,Win32,59.78715772,,,,,,,,,,,,,,,,,,,,,,,,,,,,,,,,,,,,,,
,,,,,,,,,,,,,,,,,,,,,,,,,60fd6a2e013bff4b729c6dec,2021-09-08_11h21.26.509,arrow_simon_vert,2021.1.2,Win32,59.78715772,space,6.6094,1,0,1,0,1,,,,,,,,,,,,,,,,,,,,,,,,,,,,,,,
,,,,,,,,,,,,,,,,,,,,,,,,,60fd6a2e013bff4b729c6dec,2021-09-08_11h21.26.509,arrow_simon_vert,2021.1.2,Win32,59.78715772,,,,,,,,space,0,47.6871,right,3.0235,0,0,0,0,1,,,,,,,,,,,,,,,,,,,,,
,,,,,,,,,,,,,,,,,,,,,,,,,60fd6a2e013bff4b729c6dec,2021-09-08_11h21.26.509,arrow_simon_vert,2021.1.2,Win32,59.78715772,,,,,,,,,,,down,2.4178,1,0,1,0,1,,,,,,,,,,,,,,,,,,,,,
,,,,,,,,,,,,,,,,,,,,,,,,,60fd6a2e013bff4b729c6dec,2021-09-08_11h21.26.509,arrow_simon_vert,2021.1.2,Win32,59.78715772,,,,,,,,,,,left,2.4597,2,0,2,0,1,,,,,,,,,,,,,,,,,,,,,
,,,,,,,,,,,,,,,,,,,,,,,,,60fd6a2e013bff4b729c6dec,2021-09-08_11h21.26.509,arrow_simon_vert,2021.1.2,Win32,59.78715772,,,,,,,,,,,up,2.5726,3,0,3,0,1,,,,,,,,,,,,,,,,,,,,,
,,,,,,,,,,,,,,,,,,,,,,,,,60fd6a2e013bff4b729c6dec,2021-09-08_11h21.26.509,arrow_simon_vert,2021.1.2,Win32,59.78715772,,,,,,,,,,,right,2.5861,4,0,4,0,1,,,,,,,,,,,,,,,,,,,,,
,,,,,,,,,,,,,,,,,,,,,,,,,60fd6a2e013bff4b729c6dec,2021-09-08_11h21.26.509,arrow_simon_vert,2021.1.2,Win32,59.78715772,,,,,,,,,,,down,2.5543,5,0,5,0,1,,,,,,,,,,,,,,,,,,,,,
,,,,,,,,,,,,,,,,,,,,,,,,,60fd6a2e013bff4b729c6dec,2021-09-08_11h21.26.509,arrow_simon_vert,2021.1.2,Win32,59.78715772,,,,,,,,,,,left,2.4722,6,0,6,0,1,,,,,,,,,,,,,,,,,,,,,
,,,,,,,,,,,,,,,,,,,,,,,,,60fd6a2e013bff4b729c6dec,2021-09-08_11h21.26.509,arrow_simon_vert,2021.1.2,Win32,59.78715772,,,,,,,,,,,up,2.6264,7,0,7,0,1,,,,,,,,,,,,,,,,,,,,,
,,,,,,,,,,,,,,,,,,,,,,,,,60fd6a2e013bff4b729c6dec,2021-09-08_11h21.26.509,arrow_simon_vert,2021.1.2,Win32,59.78715772,,,,,,,,,,,right,2.5867,8,0,8,0,1,,,,,,,,,,,,,,,,,,,,,
,,,,,,,,,,,,,,,,,,,,,,,,,60fd6a2e013bff4b729c6dec,2021-09-08_11h21.26.509,arrow_simon_vert,2021.1.2,Win32,59.78715772,,,,,,,,,,,down,2.5739,9,0,9,0,1,,,,,,,,,,,,,,,,,,,,,
,,,,,,,,,,,,,,,,,,,,,,,,,60fd6a2e013bff4b729c6dec,2021-09-08_11h21.26.509,arrow_simon_vert,2021.1.2,Win32,59.78715772,,,,,,,,,,,left,2.5659,10,0,10,0,1,,,,,,,,,,,,,,,,,,,,,
,,,,,,,,,,,,,,,,,,,,,,,,,60fd6a2e013bff4b729c6dec,2021-09-08_11h21.26.509,arrow_simon_vert,2021.1.2,Win32,59.78715772,,,,,,,,,,,up,2.4886,11,0,11,0,1,,,,,,,,,,,,,,,,,,,,,
,,,,,,,,,,,,,,,,,,,,,,,,,60fd6a2e013bff4b729c6dec,2021-09-08_11h21.26.509,arrow_simon_vert,2021.1.2,Win32,59.78715772,,,,,,,,,,,left,2.492,12,0,12,0,1,,,,,,,,,,,,,,,,,,,,,
,,,,,,,,,,,,,,,,,,,,,,,,,60fd6a2e013bff4b729c6dec,2021-09-08_11h21.26.509,arrow_simon_vert,2021.1.2,Win32,59.78715772,,,,,,,,,,,down,2.5154,13,0,13,0,1,,,,,,,,,,,,,,,,,,,,,
,,,,,,,,,,,,,,,,,,,,,,,,,60fd6a2e013bff4b729c6dec,2021-09-08_11h21.26.509,arrow_simon_vert,2021.1.2,Win32,59.78715772,,,,,,,,,,,right,2.6056,14,0,14,0,1,,,,,,,,,,,,,,,,,,,,,
,,,,,,,,,,,,,,,,,,,,,,,,,60fd6a2e013bff4b729c6dec,2021-09-08_11h21.26.509,arrow_simon_vert,2021.1.2,Win32,59.78715772,,,,,,,,,,,up,2.5773,15,0,15,0,1,,,,,,,,,,,,,,,,,,,,,
,,,,,,,,,,,,,,,,,,,,,,,,,60fd6a2e013bff4b729c6dec,2021-09-08_11h21.26.509,arrow_simon_vert,2021.1.2,Win32,59.78715772,,,,,,,,,,,right,2.5719,16,0,16,0,1,,,,,,,,,,,,,,,,,,,,,
,,,,,,,,,,,,,,,,,,,,,,,,,60fd6a2e013bff4b729c6dec,2021-09-08_11h21.26.509,arrow_simon_vert,2021.1.2,Win32,59.78715772,,,,,,,,,,,down,2.623,17,0,17,0,1,,,,,,,,,,,,,,,,,,,,,
,,,,,,,,,,,,,,,,,,,,,,,,,60fd6a2e013bff4b729c6dec,2021-09-08_11h21.26.509,arrow_simon_vert,2021.1.2,Win32,59.78715772,,,,,,,,,,,left,2.956,18,0,18,0,1,,,,,,,,,,,,,,,,,,,,,
,,,,,,,,,,,,,,,,,,,,,,,,,60fd6a2e013bff4b729c6dec,2021-09-08_11h21.26.509,arrow_simon_vert,2021.1.2,Win32,59.78715772,,,,,,,,,,,up,2.6384,19,0,19,0,1,,,,,,,,,,,,,,,,,,,,,
,,,,,,,,,,,,,,,,,,,,,,,,,60fd6a2e013bff4b729c6dec,2021-09-08_11h21.26.509,arrow_simon_vert,2021.1.2,Win32,59.78715772,,,,,,,,,,,right,2.6074,20,0,20,0,1,,,,,,,,,,,,,,,,,,,,,
,,,,,,,,,,,,,,,,,,,,,,,,,60fd6a2e013bff4b729c6dec,2021-09-08_11h21.26.509,arrow_simon_vert,2021.1.2,Win32,59.78715772,,,,,,,,,,,left,2.587,21,0,21,0,1,,,,,,,,,,,,,,,,,,,,,
,,,,,,,,,,,,,,,,,,,,,,,,,60fd6a2e013bff4b729c6dec,2021-09-08_11h21.26.509,arrow_simon_vert,2021.1.2,Win32,59.78715772,,,,,,,,,,,left,2.5391,22,0,22,0,1,,,,,,,,,,,,,,,,,,,,,
,,,,,,,,,,,,,,,,,,,,,,,,,60fd6a2e013bff4b729c6dec,2021-09-08_11h21.26.509,arrow_simon_vert,2021.1.2,Win32,59.78715772,,,,,,,,,,,up,2.5559,23,0,23,0,1,,,,,,,,,,,,,,,,,,,,,
,,,,,,,,,,,,,,,,,,,,,,,,,60fd6a2e013bff4b729c6dec,2021-09-08_11h21.26.509,arrow_simon_vert,2021.1.2,Win32,59.78715772,,,,,,,,,,,right,2.6386,24,0,24,0,1,,,,,,,,,,,,,,,,,,,,,
,,,,,,,,,,,,,,,,,,,,,,,,,60fd6a2e013bff4b729c6dec,2021-09-08_11h21.26.509,arrow_simon_vert,2021.1.2,Win32,59.78715772,,,,,,,,,,,down,2.6075,25,0,25,0,1,,,,,,,,,,,,,,,,,,,,,
,,,,,,,,,,,,,,,,,,,,,,,,,60fd6a2e013bff4b729c6dec,2021-09-08_11h21.26.509,arrow_simon_vert,2021.1.2,Win32,59.78715772,,,,,,,,,,,left,2.5441,26,0,26,0,1,,,,,,,,,,,,,,,,,,,,,
,,,,,,,,,,,,,,,,,,,,,,,,,60fd6a2e013bff4b729c6dec,2021-09-08_11h21.26.509,arrow_simon_vert,2021.1.2,Win32,59.78715772,,,,,,,,,,,up,2.5548,27,0,27,0,1,,,,,,,,,,,,,,,,,,,,,
,,,,,,,,,,,,,,,,,,,,,,,,,60fd6a2e013bff4b729c6dec,2021-09-08_11h21.26.509,arrow_simon_vert,2021.1.2,Win32,59.78715772,,,,,,,,,,,right,2.4555,28,0,28,0,1,,,,,,,,,,,,,,,,,,,,,
,,,,,,,,,,,,,,,,,,,,,,,,,60fd6a2e013bff4b729c6dec,2021-09-08_11h21.26.509,arrow_simon_vert,2021.1.2,Win32,59.78715772,,,,,,,,,,,down,2.6131,29,0,29,0,1,,,,,,,,,,,,,,,,,,,,,
,,,,,,,,,,,,,,,,,,,,,,,,,60fd6a2e013bff4b729c6dec,2021-09-08_11h21.26.509,arrow_simon_vert,2021.1.2,Win32,59.78715772,,,,,,,,,,,left,2.4793,30,0,30,0,1,,,,,,,,,,,,,,,,,,,,,
,,,,,,,,,,,,,,,,,,,,,,,,,60fd6a2e013bff4b729c6dec,2021-09-08_11h21.26.509,arrow_simon_vert,2021.1.2,Win32,59.78715772,,,,,,,,,,,up,2.505,31,0,31,0,1,,,,,,,,,,,,,,,,,,,,,
,,,,,,,,,,,,,,,,,,,,,,,,,60fd6a2e013bff4b729c6dec,2021-09-08_11h21.26.509,arrow_simon_vert,2021.1.2,Win32,59.78715772,,,,,,,,,,,right,2.5391,32,0,32,0,1,,,,,,,,,,,,,,,,,,,,,
,,,,,,,,,,,,,,,,,,,,,,,,,60fd6a2e013bff4b729c6dec,2021-09-08_11h21.26.509,arrow_simon_vert,2021.1.2,Win32,59.78715772,,,,,,,,,,,down,2.5228,33,0,33,0,1,,,,,,,,,,,,,,,,,,,,,
,,,,,,,,,,,,,,,,,,,,,,,,,60fd6a2e013bff4b729c6dec,2021-09-08_11h21.26.509,arrow_simon_vert,2021.1.2,Win32,59.78715772,,,,,,,,,,,left,2.474,34,0,34,0,1,,,,,,,,,,,,,,,,,,,,,
,,,,,,,,,,,,,,,,,,,,,,,,,60fd6a2e013bff4b729c6dec,2021-09-08_11h21.26.509,arrow_simon_vert,2021.1.2,Win32,59.78715772,,,,,,,,,,,up,2.4814,35,0,35,0,1,,,,,,,,,,,,,,,,,,,,,
,,,,,,,,,,,,,,,,,,,,,,,,,60fd6a2e013bff4b729c6dec,2021-09-08_11h21.26.509,arrow_simon_vert,2021.1.2,Win32,59.78715772,,,,,,,,,,,right,2.4892,36,0,36,0,1,,,,,,,,,,,,,,,,,,,,,
,,,,,,,,,,,,,,,,,,,,,,,,,60fd6a2e013bff4b729c6dec,2021-09-08_11h21.26.509,arrow_simon_vert,2021.1.2,Win32,59.78715772,,,,,,,,,,,down,2.589,37,0,37,0,1,,,,,,,,,,,,,,,,,,,,,
,,,,,,,,,,,,,,,,,,,,,,,,,60fd6a2e013bff4b729c6dec,2021-09-08_11h21.26.509,arrow_simon_vert,2021.1.2,Win32,59.78715772,,,,,,,,,,,left,2.5545,38,0,38,0,1,,,,,,,,,,,,,,,,,,,,,
,,,,,,,,,,,,,,,,,,,,,,,,,60fd6a2e013bff4b729c6dec,2021-09-08_11h21.26.509,arrow_simon_vert,2021.1.2,Win32,59.78715772,,,,,,,,,,,up,2.4969,39,0,39,0,1,,,,,,,,,,,,,,,,,,,,,
,,,,,,,,,,,,,,,,,,,,,,,,,60fd6a2e013bff4b729c6dec,2021-09-08_11h21.26.509,arrow_simon_vert,2021.1.2,Win32,59.78715772,,,,,,,,,,,right,2.597,40,0,40,0,1,,,,,,,,,,,,,,,,,,,,,
,,,,,,,,,,,,,,,,,,,,,,,,,60fd6a2e013bff4b729c6dec,2021-09-08_11h21.26.509,arrow_simon_vert,2021.1.2,Win32,59.78715772,,,,,,,,,,,down,2.5726,41,0,41,0,1,,,,,,,,,,,,,,,,,,,,,
,,,,,,,,,,,,,,,,,,,,,,,,,60fd6a2e013bff4b729c6dec,2021-09-08_11h21.26.509,arrow_simon_vert,2021.1.2,Win32,59.78715772,,,,,,,,,,,left,2.5299,42,0,42,0,1,,,,,,,,,,,,,,,,,,,,,
,,,,,,,,,,,,,,,,,,,,,,,,,60fd6a2e013bff4b729c6dec,2021-09-08_11h21.26.509,arrow_simon_vert,2021.1.2,Win32,59.78715772,,,,,,,,,,,up,2.6559,43,0,43,0,1,,,,,,,,,,,,,,,,,,,,,
,,,,,,,,,,,,,,,,,,,,,,,,,60fd6a2e013bff4b729c6dec,2021-09-08_11h21.26.509,arrow_simon_vert,2021.1.2,Win32,59.78715772,,,,,,,,,,,right,2.5887,44,0,44,0,1,,,,,,,,,,,,,,,,,,,,,
,,,,,,,,,,,,,,,,,,,,,,,,,60fd6a2e013bff4b729c6dec,2021-09-08_11h21.26.509,arrow_simon_vert,2021.1.2,Win32,59.78715772,,,,,,,,,,,down,2.5102,45,0,45,0,1,,,,,,,,,,,,,,,,,,,,,
,,,,,,,,,,,,,,,,,,,,,,,,,60fd6a2e013bff4b729c6dec,2021-09-08_11h21.26.509,arrow_simon_vert,2021.1.2,Win32,59.78715772,,,,,,,,,,,left,2.4883,46,0,46,0,1,,,,,,,,,,,,,,,,,,,,,
,,,,,,,,,,,,,,,,,,,,,,,,,60fd6a2e013bff4b729c6dec,2021-09-08_11h21.26.509,arrow_simon_vert,2021.1.2,Win32,59.78715772,,,,,,,,,,,up,2.6065,47,0,47,0,1,,,,,,,,,,,,,,,,,,,,,
,,,,,,,,,,,,,,,,,,,,,,,,,60fd6a2e013bff4b729c6dec,2021-09-08_11h21.26.509,arrow_simon_vert,2021.1.2,Win32,59.78715772,,,,,,,,,,,right,2.4556,48,0,48,0,1,,,,,,,,,,,,,,,,,,,,,
,,,,,,,,,,,,,,,,,,,,,,,,,60fd6a2e013bff4b729c6dec,2021-09-08_11h21.26.509,arrow_simon_vert,2021.1.2,Win32,59.78715772,,,,,,,,,,,down,2.8331,49,0,49,0,1,,,,,,,,,,,,,,,,,,,,,
,,,,,,,,,,,,,,,,,,,,,,,,,60fd6a2e013bff4b729c6dec,2021-09-08_11h21.26.509,arrow_simon_vert,2021.1.2,Win32,59.78715772,,,,,,,,,,,left,2.4639,50,0,50,0,1,,,,,,,,,,,,,,,,,,,,,
,,,,,,,,,,,,,,,,,,,,,,,,,60fd6a2e013bff4b729c6dec,2021-09-08_11h21.26.509,arrow_simon_vert,2021.1.2,Win32,59.78715772,,,,,,,,,,,up,2.5862,51,0,51,0,1,,,,,,,,,,,,,,,,,,,,,
,,,,,,,,,,,,,,,,,,,,,,,,,60fd6a2e013bff4b729c6dec,2021-09-08_11h21.26.509,arrow_simon_vert,2021.1.2,Win32,59.78715772,,,,,,,,,,,right,2.4405,52,0,52,0,1,,,,,,,,,,,,,,,,,,,,,
,,,,,,,,,,,,,,,,,,,,,,,,,60fd6a2e013bff4b729c6dec,2021-09-08_11h21.26.509,arrow_simon_vert,2021.1.2,Win32,59.78715772,,,,,,,,,,,down,2.5725,53,0,53,0,1,,,,,,,,,,,,,,,,,,,,,
,,,,,,,,,,,,,,,,,,,,,,,,,60fd6a2e013bff4b729c6dec,2021-09-08_11h21.26.509,arrow_simon_vert,2021.1.2,Win32,59.78715772,,,,,,,,,,,left,2.4881,54,0,54,0,1,,,,,,,,,,,,,,,,,,,,,
,,,,,,,,,,,,,,,,,,,,,,,,,60fd6a2e013bff4b729c6dec,2021-09-08_11h21.26.509,arrow_simon_vert,2021.1.2,Win32,59.78715772,,,,,,,,,,,up,2.4479,55,0,55,0,1,,,,,,,,,,,,,,,,,,,,,
,,,,,,,,,,,,,,,,,,,,,,,,,60fd6a2e013bff4b729c6dec,2021-09-08_11h21.26.509,arrow_simon_vert,2021.1.2,Win32,59.78715772,,,,,,,,,,,right,2.4387,56,0,56,0,1,,,,,,,,,,,,,,,,,,,,,
,,,,,,,,,,,,,,,,,,,,,,,,,60fd6a2e013bff4b729c6dec,2021-09-08_11h21.26.509,arrow_simon_vert,2021.1.2,Win32,59.78715772,,,,,,,,,,,down,2.5123,57,0,57,0,1,,,,,,,,,,,,,,,,,,,,,
,,,,,,,,,,,,,,,,,,,,,,,,,60fd6a2e013bff4b729c6dec,2021-09-08_11h21.26.509,arrow_simon_vert,2021.1.2,Win32,59.78715772,,,,,,,,,,,left,2.5039,58,0,58,0,1,,,,,,,,,,,,,,,,,,,,,
,,,,,,,,,,,,,,,,,,,,,,,,,60fd6a2e013bff4b729c6dec,2021-09-08_11h21.26.509,arrow_simon_vert,2021.1.2,Win32,59.78715772,,,,,,,,,,,up,2.572,59,0,59,0,1,,,,,,,,,,,,,,,,,,,,,
,,,,,,0,1.87703036,#a3d0fb,"[""0.25"",""0""]",left_blue.png,left,,,,,,,,left,left_blue.png,down_orange.png,down,right,up,60fd6a2e013bff4b729c6dec,2021-09-08_11h21.26.509,arrow_simon_vert,2021.1.2,Win32,59.78715772,,,,,,,,,,,,,,,,,,space,0,39.6013,left,1,1.4031,1,FALSE,FALSE,0,0,0,3,1,,,,,,,
,,,,,,0,2.230302108,#f3af84,"[""0"",""0.25""]",up_orange.png,up,,,,,,,,right,right_blue.png,up_orange.png,up,right,up,60fd6a2e013bff4b729c6dec,2021-09-08_11h21.26.509,arrow_simon_vert,2021.1.2,Win32,59.78715772,,,,,,,,,,,,,,,,,,,,,up,1,1.6362,2,TRUE,FALSE,0,1,1,1,1,,,,,,,
,,,,,,0,2.406294539,#a3d0fb,"[""0.25"",""0""]",right_blue.png,right,,,,,,,,right,right_blue.png,up_orange.png,up,right,up,60fd6a2e013bff4b729c6dec,2021-09-08_11h21.26.509,arrow_simon_vert,2021.1.2,Win32,59.78715772,,,,,,,,,,,,,,,,,,,,,right,1,1.7903,3,TRUE,FALSE,0,2,2,1,1,,,,,,,
,,,,,,0,1.60602357,#f3af84,"[""0"",""0.25""]",up_orange.png,up,,,,,,,,right,right_blue.png,up_orange.png,up,right,up,60fd6a2e013bff4b729c6dec,2021-09-08_11h21.26.509,arrow_simon_vert,2021.1.2,Win32,59.78715772,,,,,,,,,,,,,,,,,,,,,up,1,1.0669,4,FALSE,TRUE,0,3,3,1,1,,,,,,,
,,,,,,0,1.613044273,#a3d0fb,"[""-0.25"",""0""]",left_blue.png,left,,,,,,,,left,left_blue.png,down_orange.png,down,left,down,60fd6a2e013bff4b729c6dec,2021-09-08_11h21.26.509,arrow_simon_vert,2021.1.2,Win32,59.78715772,,,,,,,,,,,,,,,,,,,,,left,1,0.9422,5,FALSE,TRUE,1,0,4,2,1,,,,,,,
,,,,,,0,2.153055959,#f3af84,"[""0"",""0.25""]",up_orange.png,up,,,,,,,,right,right_blue.png,up_orange.png,up,right,up,60fd6a2e013bff4b729c6dec,2021-09-08_11h21.26.509,arrow_simon_vert,2021.1.2,Win32,59.78715772,,,,,,,,,,,,,,,,,,,,,up,1,1.9459,6,TRUE,FALSE,1,1,5,1,1,,,,,,,
,,,,,,0,2.383448329,#a3d0fb,"[""-0.25"",""0""]",left_blue.png,left,,,,,,,,left,left_blue.png,down_orange.png,down,left,down,60fd6a2e013bff4b729c6dec,2021-09-08_11h21.26.509,arrow_simon_vert,2021.1.2,Win32,59.78715772,,,,,,,,,,,,,,,,,,,,,left,1,1.7507,7,TRUE,FALSE,1,2,6,2,1,,,,,,,
,,,,,,0,1.588507412,#f3af84,"[""0"",""0.25""]",up_orange.png,up,,,,,,,,right,right_blue.png,up_orange.png,up,right,up,60fd6a2e013bff4b729c6dec,2021-09-08_11h21.26.509,arrow_simon_vert,2021.1.2,Win32,59.78715772,,,,,,,,,,,,,,,,,,,,,down,0,1.7729,8,TRUE,FALSE,1,3,7,1,1,,,,,,,
,,,,,,0,1.612921837,#a3d0fb,"[""-0.25"",""0""]",right_blue.png,right,,,,,,,,right,right_blue.png,up_orange.png,up,left,down,60fd6a2e013bff4b729c6dec,2021-09-08_11h21.26.509,arrow_simon_vert,2021.1.2,Win32,59.78715772,,,,,,,,,,,,,,,,,,,,,left,0,1.0868,9,FALSE,TRUE,2,0,8,0,1,,,,,,,
,,,,,,0,2.339176371,#f3af84,"[""0"",""-0.25""]",up_orange.png,up,,,,,,,,right,right_blue.png,up_orange.png,up,left,down,60fd6a2e013bff4b729c6dec,2021-09-08_11h21.26.509,arrow_simon_vert,2021.1.2,Win32,59.78715772,,,,,,,,,,,,,,,,,,,,,up,1,1.6019,10,TRUE,FALSE,2,1,9,0,1,,,,,,,
,,,,,,0,2.147931123,#a3d0fb,"[""-0.25"",""0""]",left_blue.png,left,,,,,,,,left,left_blue.png,down_orange.png,down,left,down,60fd6a2e013bff4b729c6dec,2021-09-08_11h21.26.509,arrow_simon_vert,2021.1.2,Win32,59.78715772,,,,,,,,,,,,,,,,,,,,,left,1,1.5458,11,FALSE,FALSE,2,2,10,2,1,,,,,,,
,,,,,,0,2.47145513,#f3af84,"[""0"",""-0.25""]",up_orange.png,up,,,,,,,,right,right_blue.png,up_orange.png,up,left,down,60fd6a2e013bff4b729c6dec,2021-09-08_11h21.26.509,arrow_simon_vert,2021.1.2,Win32,59.78715772,,,,,,,,,,,,,,,,,,,,,right,0,1.7203,12,TRUE,FALSE,2,3,11,0,1,,,,,,,
,,,,,,0,1.516053868,#a3d0fb,"[""-0.25"",""0""]",left_blue.png,left,,,,,,,,left,left_blue.png,down_orange.png,down,left,down,60fd6a2e013bff4b729c6dec,2021-09-08_11h21.26.509,arrow_simon_vert,2021.1.2,Win32,59.78715772,,,,,,,,,,,,,,,,,,,,,left,1,1.089,13,FALSE,TRUE,3,0,12,2,1,,,,,,,
,,,,,,0,2.335558372,#f3af84,"[""0"",""0.25""]",down_orange.png,down,,,,,,,,left,left_blue.png,down_orange.png,down,right,up,60fd6a2e013bff4b729c6dec,2021-09-08_11h21.26.509,arrow_simon_vert,2021.1.2,Win32,59.78715772,,,,,,,,,,,,,,,,,,,,,down,1,1.9057,14,TRUE,FALSE,3,1,13,3,1,,,,,,,
,,,,,,0,1.881423936,#a3d0fb,"[""-0.25"",""0""]",right_blue.png,right,,,,,,,,right,right_blue.png,up_orange.png,up,left,down,60fd6a2e013bff4b729c6dec,2021-09-08_11h21.26.509,arrow_simon_vert,2021.1.2,Win32,59.78715772,,,,,,,,,,,,,,,,,,,,,right,1,1.4868,15,FALSE,FALSE,3,2,14,0,1,,,,,,,
,,,,,,0,1.975244386,#f3af84,"[""0"",""-0.25""]",down_orange.png,down,,,,,,,,left,left_blue.png,down_orange.png,down,left,down,60fd6a2e013bff4b729c6dec,2021-09-08_11h21.26.509,arrow_simon_vert,2021.1.2,Win32,59.78715772,,,,,,,,,,,,,,,,,,,,,down,1,1.6694,16,TRUE,FALSE,3,3,15,2,1,,,,,,,
,,,,,,0,1.644923221,#a3d0fb,"[""-0.25"",""0""]",left_blue.png,left,,,,,,,,left,left_blue.png,down_orange.png,down,left,down,60fd6a2e013bff4b729c6dec,2021-09-08_11h21.26.509,arrow_simon_vert,2021.1.2,Win32,59.78715772,,,,,,,,,,,,,,,,,,,,,left,1,1.5913,17,FALSE,FALSE,4,0,16,2,1,,,,,,,
,,,,,,0,1.981608875,#f3af84,"[""0"",""0.25""]",down_orange.png,down,,,,,,,,left,left_blue.png,down_orange.png,down,right,up,60fd6a2e013bff4b729c6dec,2021-09-08_11h21.26.509,arrow_simon_vert,2021.1.2,Win32,59.78715772,,,,,,,,,,,,,,,,,,,,,down,1,1.5882,18,FALSE,FALSE,4,1,17,3,1,,,,,,,
,,,,,,0,1.894439307,#a3d0fb,"[""-0.25"",""0""]",left_blue.png,left,,,,,,,,left,left_blue.png,down_orange.png,down,left,down,60fd6a2e013bff4b729c6dec,2021-09-08_11h21.26.509,arrow_simon_vert,2021.1.2,Win32,59.78715772,,,,,,,,,,,,,,,,,,,,,left,1,1.5789,19,FALSE,FALSE,4,2,18,2,1,,,,,,,
,,,,,,0,2.090584605,#f3af84,"[""0"",""0.25""]",up_orange.png,up,,,,,,,,right,right_blue.png,up_orange.png,up,right,up,60fd6a2e013bff4b729c6dec,2021-09-08_11h21.26.509,arrow_simon_vert,2021.1.2,Win32,59.78715772,,,,,,,,,,,,,,,,,,,,,up,1,1.8881,20,TRUE,FALSE,4,3,19,1,1,,,,,,,
,,,,,,0,2.039343376,#a3d0fb,"[""0.25"",""0""]",left_blue.png,left,,,,,,,,left,left_blue.png,down_orange.png,down,right,up,60fd6a2e013bff4b729c6dec,2021-09-08_11h21.26.509,arrow_simon_vert,2021.1.2,Win32,59.78715772,,,,,,,,,,,,,,,,,,,,,left,1,1.6725,21,TRUE,FALSE,5,0,20,3,1,,,,,,,
,,,,,,0,1.870282355,#f3af84,"[""0"",""0.25""]",down_orange.png,down,,,,,,,,left,left_blue.png,down_orange.png,down,right,up,60fd6a2e013bff4b729c6dec,2021-09-08_11h21.26.509,arrow_simon_vert,2021.1.2,Win32,59.78715772,,,,,,,,,,,,,,,,,,,,,down,1,1.5882,22,FALSE,FALSE,5,1,21,3,1,,,,,,,
,,,,,,0,1.907142828,#a3d0fb,"[""-0.25"",""0""]",right_blue.png,right,,,,,,,,right,right_blue.png,up_orange.png,up,left,down,60fd6a2e013bff4b729c6dec,2021-09-08_11h21.26.509,arrow_simon_vert,2021.1.2,Win32,59.78715772,,,,,,,,,,,,,,,,,,,,,right,1,1.6385,23,TRUE,FALSE,5,2,22,0,1,,,,,,,
,,,,,,0,1.501912116,#f3af84,"[""0"",""0.25""]",down_orange.png,down,,,,,,,,left,left_blue.png,down_orange.png,down,right,up,60fd6a2e013bff4b729c6dec,2021-09-08_11h21.26.509,arrow_simon_vert,2021.1.2,Win32,59.78715772,,,,,,,,,,,,,,,,,,,,,down,1,1.6453,24,TRUE,FALSE,5,3,23,3,1,,,,,,,
,,,,,,0,2.489175519,#a3d0fb,"[""-0.25"",""0""]",right_blue.png,right,,,,,,,,right,right_blue.png,up_orange.png,up,left,down,60fd6a2e013bff4b729c6dec,2021-09-08_11h21.26.509,arrow_simon_vert,2021.1.2,Win32,59.78715772,,,,,,,,,,,,,,,,,,,,,left,0,1.7831,25,TRUE,FALSE,6,0,24,0,1,,,,,,,
,,,,,,0,2.326102675,#f3af84,"[""0"",""-0.25""]",up_orange.png,up,,,,,,,,right,right_blue.png,up_orange.png,up,left,down,60fd6a2e013bff4b729c6dec,2021-09-08_11h21.26.509,arrow_simon_vert,2021.1.2,Win32,59.78715772,,,,,,,,,,,,,,,,,,,,,down,0,1.7217,26,TRUE,FALSE,6,1,25,0,1,,,,,,,
,,,,,,0,2.080075066,#a3d0fb,"[""-0.25"",""0""]",left_blue.png,left,,,,,,,,left,left_blue.png,down_orange.png,down,left,down,60fd6a2e013bff4b729c6dec,2021-09-08_11h21.26.509,arrow_simon_vert,2021.1.2,Win32,59.78715772,,,,,,,,,,,,,,,,,,,,,left,1,1.5393,27,FALSE,FALSE,6,2,26,2,1,,,,,,,
,,,,,,0,1.726251746,#f3af84,"[""0"",""0.25""]",up_orange.png,up,,,,,,,,right,right_blue.png,up_orange.png,up,right,up,60fd6a2e013bff4b729c6dec,2021-09-08_11h21.26.509,arrow_simon_vert,2021.1.2,Win32,59.78715772,,,,,,,,,,,,,,,,,,,,,up,1,1.6179,28,TRUE,FALSE,6,3,27,1,1,,,,,,,
,,,,,,0,1.7540445,#a3d0fb,"[""0.25"",""0""]",left_blue.png,left,,,,,,,,left,left_blue.png,down_orange.png,down,right,up,60fd6a2e013bff4b729c6dec,2021-09-08_11h21.26.509,arrow_simon_vert,2021.1.2,Win32,59.78715772,,,,,,,,,,,,,,,,,,,,,left,1,1.587,29,FALSE,FALSE,7,0,28,3,1,,,,,,,
,,,,,,0,1.712835026,#f3af84,"[""0"",""-0.25""]",up_orange.png,up,,,,,,,,right,right_blue.png,up_orange.png,up,left,down,60fd6a2e013bff4b729c6dec,2021-09-08_11h21.26.509,arrow_simon_vert,2021.1.2,Win32,59.78715772,,,,,,,,,,,,,,,,,,,,,up,1,1.5817,30,FALSE,FALSE,7,1,29,0,1,,,,,,,
,,,,,,0,2.403735868,#a3d0fb,"[""0.25"",""0""]",right_blue.png,right,,,,,,,,right,right_blue.png,up_orange.png,up,right,up,60fd6a2e013bff4b729c6dec,2021-09-08_11h21.26.509,arrow_simon_vert,2021.1.2,Win32,59.78715772,,,,,,,,,,,,,,,,,,,,,right,1,1.7627,31,TRUE,FALSE,7,2,30,1,1,,,,,,,
,,,,,,0,2.406776098,#f3af84,"[""0"",""-0.25""]",up_orange.png,up,,,,,,,,right,right_blue.png,up_orange.png,up,left,down,60fd6a2e013bff4b729c6dec,2021-09-08_11h21.26.509,arrow_simon_vert,2021.1.2,Win32,59.78715772,,,,,,,,,,,,,,,,,,,,,up,1,1.9381,32,TRUE,FALSE,7,3,31,0,1,,,,,,,
,,,,,,0,1.982108999,#a3d0fb,"[""-0.25"",""0""]",right_blue.png,right,,,,,,,,right,right_blue.png,up_orange.png,up,left,down,60fd6a2e013bff4b729c6dec,2021-09-08_11h21.26.509,arrow_simon_vert,2021.1.2,Win32,59.78715772,,,,,,,,,,,,,,,,,,,,,right,1,1.6545,33,TRUE,FALSE,8,0,32,0,1,,,,,,,
,,,,,,0,2.381044564,#f3af84,"[""0"",""-0.25""]",down_orange.png,down,,,,,,,,left,left_blue.png,down_orange.png,down,left,down,60fd6a2e013bff4b729c6dec,2021-09-08_11h21.26.509,arrow_simon_vert,2021.1.2,Win32,59.78715772,,,,,,,,,,,,,,,,,,,,,down,1,1.8561,34,TRUE,FALSE,8,1,33,2,1,,,,,,,
,,,,,,0,1.928929469,#a3d0fb,"[""0.25"",""0""]",right_blue.png,right,,,,,,,,right,right_blue.png,up_orange.png,up,right,up,60fd6a2e013bff4b729c6dec,2021-09-08_11h21.26.509,arrow_simon_vert,2021.1.2,Win32,59.78715772,,,,,,,,,,,,,,,,,,,,,right,1,1.5911,35,FALSE,FALSE,8,2,34,1,1,,,,,,,
,,,,,,0,1.931308669,#f3af84,"[""0"",""0.25""]",up_orange.png,up,,,,,,,,right,right_blue.png,up_orange.png,up,right,up,60fd6a2e013bff4b729c6dec,2021-09-08_11h21.26.509,arrow_simon_vert,2021.1.2,Win32,59.78715772,,,,,,,,,,,,,,,,,,,,,up,1,1.516,36,FALSE,FALSE,8,3,35,1,1,,,,,,,
,,,,,,0,1.748356652,#a3d0fb,"[""0.25"",""0""]",left_blue.png,left,,,,,,,,left,left_blue.png,down_orange.png,down,right,up,60fd6a2e013bff4b729c6dec,2021-09-08_11h21.26.509,arrow_simon_vert,2021.1.2,Win32,59.78715772,,,,,,,,,,,,,,,,,,,,,left,1,1.6375,37,TRUE,FALSE,9,0,36,3,1,,,,,,,
,,,,,,0,1.604788352,#f3af84,"[""0"",""-0.25""]",up_orange.png,up,,,,,,,,right,right_blue.png,up_orange.png,up,left,down,60fd6a2e013bff4b729c6dec,2021-09-08_11h21.26.509,arrow_simon_vert,2021.1.2,Win32,59.78715772,,,,,,,,,,,,,,,,,,,,,up,1,1.5078,38,FALSE,FALSE,9,1,37,0,1,,,,,,,
,,,,,,0,2.237637596,#a3d0fb,"[""0.25"",""0""]",left_blue.png,left,,,,,,,,left,left_blue.png,down_orange.png,down,right,up,60fd6a2e013bff4b729c6dec,2021-09-08_11h21.26.509,arrow_simon_vert,2021.1.2,Win32,59.78715772,,,,,,,,,,,,,,,,,,,,,left,1,1.7023,39,TRUE,FALSE,9,2,38,3,1,,,,,,,
,,,,,,0,1.815642459,#f3af84,"[""0"",""-0.25""]",down_orange.png,down,,,,,,,,left,left_blue.png,down_orange.png,down,left,down,60fd6a2e013bff4b729c6dec,2021-09-08_11h21.26.509,arrow_simon_vert,2021.1.2,Win32,59.78715772,,,,,,,,,,,,,,,,,,,,,down,1,1.6298,40,TRUE,FALSE,9,3,39,2,1,,,,,,,
,,,,,,0,1.557635388,#a3d0fb,"[""-0.25"",""0""]",right_blue.png,right,,,,,,,,right,right_blue.png,up_orange.png,up,left,down,60fd6a2e013bff4b729c6dec,2021-09-08_11h21.26.509,arrow_simon_vert,2021.1.2,Win32,59.78715772,,,,,,,,,,,,,,,,,,,,,right,1,1.5181,41,FALSE,FALSE,10,0,40,0,1,,,,,,,
,,,,,,0,1.841333684,#f3af84,"[""0"",""-0.25""]",down_orange.png,down,,,,,,,,left,left_blue.png,down_orange.png,down,left,down,60fd6a2e013bff4b729c6dec,2021-09-08_11h21.26.509,arrow_simon_vert,2021.1.2,Win32,59.78715772,,,,,,,,,,,,,,,,,,,,,down,1,1.5045,42,FALSE,FALSE,10,1,41,2,1,,,,,,,
,,,,,,0,2.221593649,#a3d0fb,"[""0.25"",""0""]",left_blue.png,left,,,,,,,,left,left_blue.png,down_orange.png,down,right,up,60fd6a2e013bff4b729c6dec,2021-09-08_11h21.26.509,arrow_simon_vert,2021.1.2,Win32,59.78715772,,,,,,,,,,,,,,,,,,,,,right,0,1.6396,43,TRUE,FALSE,10,2,42,3,1,,,,,,,
,,,,,,0,2.158059939,#f3af84,"[""0"",""0.25""]",up_orange.png,up,,,,,,,,right,right_blue.png,up_orange.png,up,right,up,60fd6a2e013bff4b729c6dec,2021-09-08_11h21.26.509,arrow_simon_vert,2021.1.2,Win32,59.78715772,,,,,,,,,,,,,,,,,,,,,up,1,1.6682,44,TRUE,FALSE,10,3,43,1,1,,,,,,,
,,,,,,0,1.555237986,#a3d0fb,"[""-0.25"",""0""]",right_blue.png,right,,,,,,,,right,right_blue.png,up_orange.png,up,left,down,60fd6a2e013bff4b729c6dec,2021-09-08_11h21.26.509,arrow_simon_vert,2021.1.2,Win32,59.78715772,,,,,,,,,,,,,,,,,,,,,right,1,1.5359,45,FALSE,FALSE,11,0,44,0,1,,,,,,,
,,,,,,0,2.445877356,#f3af84,"[""0"",""-0.25""]",up_orange.png,up,,,,,,,,right,right_blue.png,up_orange.png,up,left,down,60fd6a2e013bff4b729c6dec,2021-09-08_11h21.26.509,arrow_simon_vert,2021.1.2,Win32,59.78715772,,,,,,,,,,,,,,,,,,,,,up,1,1.9377,46,TRUE,FALSE,11,1,45,0,1,,,,,,,
,,,,,,0,2.427077231,#a3d0fb,"[""0.25"",""0""]",left_blue.png,left,,,,,,,,left,left_blue.png,down_orange.png,down,right,up,60fd6a2e013bff4b729c6dec,2021-09-08_11h21.26.509,arrow_simon_vert,2021.1.2,Win32,59.78715772,,,,,,,,,,,,,,,,,,,,,left,1,1.8387,47,TRUE,FALSE,11,2,46,3,1,,,,,,,
,,,,,,0,1.506734387,#f3af84,"[""0"",""-0.25""]",down_orange.png,down,,,,,,,,left,left_blue.png,down_orange.png,down,left,down,60fd6a2e013bff4b729c6dec,2021-09-08_11h21.26.509,arrow_simon_vert,2021.1.2,Win32,59.78715772,,,,,,,,,,,,,,,,,,,,,down,1,1.4856,48,FALSE,FALSE,11,3,47,2,1,,,,,,,
,,,,,,0,2.421190483,#a3d0fb,"[""-0.25"",""0""]",left_blue.png,left,,,,,,,,left,left_blue.png,down_orange.png,down,left,down,60fd6a2e013bff4b729c6dec,2021-09-08_11h21.26.509,arrow_simon_vert,2021.1.2,Win32,59.78715772,,,,,,,,,,,,,,,,,,,,,left,1,1.7421,49,TRUE,FALSE,12,0,48,2,1,,,,,,,
,,,,,,0,2.030104789,#f3af84,"[""0"",""-0.25""]",up_orange.png,up,,,,,,,,right,right_blue.png,up_orange.png,up,left,down,60fd6a2e013bff4b729c6dec,2021-09-08_11h21.26.509,arrow_simon_vert,2021.1.2,Win32,59.78715772,,,,,,,,,,,,,,,,,,,,,down,0,1.7056,50,TRUE,FALSE,12,1,49,0,1,,,,,,,
,,,,,,0,2.068950945,#a3d0fb,"[""0.25"",""0""]",left_blue.png,left,,,,,,,,left,left_blue.png,down_orange.png,down,right,up,60fd6a2e013bff4b729c6dec,2021-09-08_11h21.26.509,arrow_simon_vert,2021.1.2,Win32,59.78715772,,,,,,,,,,,,,,,,,,,,,left,1,1.6205,51,TRUE,FALSE,12,2,50,3,1,,,,,,,
,,,,,,0,2.198545795,#f3af84,"[""0"",""0.25""]",up_orange.png,up,,,,,,,,right,right_blue.png,up_orange.png,up,right,up,60fd6a2e013bff4b729c6dec,2021-09-08_11h21.26.509,arrow_simon_vert,2021.1.2,Win32,59.78715772,,,,,,,,,,,,,,,,,,,,,up,1,1.637,52,TRUE,FALSE,12,3,51,1,1,,,,,,,
,,,,,,0,2.317296846,#a3d0fb,"[""0.25"",""0""]",left_blue.png,left,,,,,,,,left,left_blue.png,down_orange.png,down,right,up,60fd6a2e013bff4b729c6dec,2021-09-08_11h21.26.509,arrow_simon_vert,2021.1.2,Win32,59.78715772,,,,,,,,,,,,,,,,,,,,,left,1,1.739,53,TRUE,FALSE,13,0,52,3,1,,,,,,,
,,,,,,0,1.77077884,#f3af84,"[""0"",""0.25""]",up_orange.png,up,,,,,,,,right,right_blue.png,up_orange.png,up,right,up,60fd6a2e013bff4b729c6dec,2021-09-08_11h21.26.509,arrow_simon_vert,2021.1.2,Win32,59.78715772,,,,,,,,,,,,,,,,,,,,,up,1,1.2879,54,FALSE,TRUE,13,1,53,1,1,,,,,,,
,,,,,,0,2.151796767,#a3d0fb,"[""0.25"",""0""]",right_blue.png,right,,,,,,,,right,right_blue.png,up_orange.png,up,right,up,60fd6a2e013bff4b729c6dec,2021-09-08_11h21.26.509,arrow_simon_vert,2021.1.2,Win32,59.78715772,,,,,,,,,,,,,,,,,,,,,right,1,1.649,55,TRUE,FALSE,13,2,54,1,1,,,,,,,
,,,,,,0,1.804178069,#f3af84,"[""0"",""-0.25""]",down_orange.png,down,,,,,,,,left,left_blue.png,down_orange.png,down,left,down,60fd6a2e013bff4b729c6dec,2021-09-08_11h21.26.509,arrow_simon_vert,2021.1.2,Win32,59.78715772,,,,,,,,,,,,,,,,,,,,,down,1,1.3232,56,FALSE,TRUE,13,3,55,2,1,,,,,,,
,,,,,,0,2.449978322,#a3d0fb,"[""0.25"",""0""]",right_blue.png,right,,,,,,,,right,right_blue.png,up_orange.png,up,right,up,60fd6a2e013bff4b729c6dec,2021-09-08_11h21.26.509,arrow_simon_vert,2021.1.2,Win32,59.78715772,,,,,,,,,,,,,,,,,,,,,right,1,1.7613,57,TRUE,FALSE,14,0,56,1,1,,,,,,,
,,,,,,1,2.064818309,#f3af84,"[""0"",""0.25""]",down_orange.png,down,,,,,,,,left,left_blue.png,down_orange.png,down,right,up,60fd6a2e013bff4b729c6dec,2021-09-08_11h21.26.509,arrow_simon_vert,2021.1.2,Win32,59.78715772,,,,,,,,,,,,,,,,,,,,,up,0,1.4546,58,FALSE,FALSE,14,1,57,3,1,,,,,,,
,,,,,,0,1.713196551,#a3d0fb,"[""-0.25"",""0""]",left_blue.png,left,,,,,,,,left,left_blue.png,down_orange.png,down,left,down,60fd6a2e013bff4b729c6dec,2021-09-08_11h21.26.509,arrow_simon_vert,2021.1.2,Win32,59.78715772,,,,,,,,,,,,,,,,,,,,,left,1,1.4702,59,FALSE,FALSE,14,2,58,2,1,,,,,,,
,,,,,,0,2.255226282,#f3af84,"[""0"",""0.25""]",down_orange.png,down,,,,,,,,left,left_blue.png,down_orange.png,down,right,up,60fd6a2e013bff4b729c6dec,2021-09-08_11h21.26.509,arrow_simon_vert,2021.1.2,Win32,59.78715772,,,,,,,,,,,,,,,,,,,,,down,1,1.7684,60,TRUE,FALSE,14,3,59,3,1,,,,,,,
,,,,,,,,,,,,,,,,,,,,,,,,,60fd6a2e013bff4b729c6dec,2021-09-08_11h21.26.509,arrow_simon_vert,2021.1.2,Win32,59.78715772,,,,,,,,,,,,,,,,,,,,,,,,,,,,,,,,space,82.3007,0,0,0,0,1
,,,,,,0,2.493824957,#a3d0fb,"[""0.25"",""0""]",right_blue.png,right,,,,,,,,right,right_blue.png,up_orange.png,up,right,up,60fd6a2e013bff4b729c6dec,2021-09-08_11h21.26.509,arrow_simon_vert,2021.1.2,Win32,59.78715772,,,,,,,,,,,,,,,,,,,,,right,1,1.9413,1,TRUE,FALSE,0,0,0,1,1,,,,,,,
,,,,,,0,2.213426741,#f3af84,"[""0"",""0.25""]",up_orange.png,up,,,,,,,,right,right_blue.png,up_orange.png,up,right,up,60fd6a2e013bff4b729c6dec,2021-09-08_11h21.26.509,arrow_simon_vert,2021.1.2,Win32,59.78715772,,,,,,,,,,,,,,,,,,,,,up,1,1.5044,2,FALSE,FALSE,0,1,1,1,1,,,,,,,
,,,,,,0,1.807885354,#a3d0fb,"[""-0.25"",""0""]",left_blue.png,left,,,,,,,,left,left_blue.png,down_orange.png,down,left,down,60fd6a2e013bff4b729c6dec,2021-09-08_11h21.26.509,arrow_simon_vert,2021.1.2,Win32,59.78715772,,,,,,,,,,,,,,,,,,,,,left,1,1.2031,3,FALSE,TRUE,0,2,2,2,1,,,,,,,
,,,,,,0,1.984740525,#f3af84,"[""0"",""0.25""]",up_orange.png,up,,,,,,,,right,right_blue.png,up_orange.png,up,right,up,60fd6a2e013bff4b729c6dec,2021-09-08_11h21.26.509,arrow_simon_vert,2021.1.2,Win32,59.78715772,,,,,,,,,,,,,,,,,,,,,up,1,1.3732,4,FALSE,TRUE,0,3,3,1,1,,,,,,,
,,,,,,0,2.003713688,#a3d0fb,"[""-0.25"",""0""]",right_blue.png,right,,,,,,,,right,right_blue.png,up_orange.png,up,left,down,60fd6a2e013bff4b729c6dec,2021-09-08_11h21.26.509,arrow_simon_vert,2021.1.2,Win32,59.78715772,,,,,,,,,,,,,,,,,,,,,right,1,1.5709,5,FALSE,FALSE,1,0,4,0,1,,,,,,,
,,,,,,0,2.408653055,#f3af84,"[""0"",""-0.25""]",up_orange.png,up,,,,,,,,right,right_blue.png,up_orange.png,up,left,down,60fd6a2e013bff4b729c6dec,2021-09-08_11h21.26.509,arrow_simon_vert,2021.1.2,Win32,59.78715772,,,,,,,,,,,,,,,,,,,,,down,0,1.8533,6,TRUE,FALSE,1,1,5,0,1,,,,,,,
,,,,,,0,1.698004468,#a3d0fb,"[""0.25"",""0""]",left_blue.png,left,,,,,,,,left,left_blue.png,down_orange.png,down,right,up,60fd6a2e013bff4b729c6dec,2021-09-08_11h21.26.509,arrow_simon_vert,2021.1.2,Win32,59.78715772,,,,,,,,,,,,,,,,,,,,,left,1,1.6052,7,TRUE,FALSE,1,2,6,3,1,,,,,,,
,,,,,,0,2.43491106,#f3af84,"[""0"",""-0.25""]",down_orange.png,down,,,,,,,,left,left_blue.png,down_orange.png,down,left,down,60fd6a2e013bff4b729c6dec,2021-09-08_11h21.26.509,arrow_simon_vert,2021.1.2,Win32,59.78715772,,,,,,,,,,,,,,,,,,,,,down,1,2.0242,8,TRUE,FALSE,1,3,7,2,1,,,,,,,
,,,,,,0,1.788468481,#a3d0fb,"[""-0.25"",""0""]",right_blue.png,right,,,,,,,,right,right_blue.png,up_orange.png,up,left,down,60fd6a2e013bff4b729c6dec,2021-09-08_11h21.26.509,arrow_simon_vert,2021.1.2,Win32,59.78715772,,,,,,,,,,,,,,,,,,,,,right,1,1.5849,9,FALSE,FALSE,2,0,8,0,1,,,,,,,
,,,,,,0,2.313560701,#f3af84,"[""0"",""0.25""]",down_orange.png,down,,,,,,,,left,left_blue.png,down_orange.png,down,right,up,60fd6a2e013bff4b729c6dec,2021-09-08_11h21.26.509,arrow_simon_vert,2021.1.2,Win32,59.78715772,,,,,,,,,,,,,,,,,,,,,down,1,1.8368,10,TRUE,FALSE,2,1,9,3,1,,,,,,,
,,,,,,0,1.761658037,#a3d0fb,"[""0.25"",""0""]",right_blue.png,right,,,,,,,,right,right_blue.png,up_orange.png,up,right,up,60fd6a2e013bff4b729c6dec,2021-09-08_11h21.26.509,arrow_simon_vert,2021.1.2,Win32,59.78715772,,,,,,,,,,,,,,,,,,,,,right,1,1.5846,11,FALSE,FALSE,2,2,10,1,1,,,,,,,
,,,,,,0,2.192622283,#f3af84,"[""0"",""-0.25""]",down_orange.png,down,,,,,,,,left,left_blue.png,down_orange.png,down,left,down,60fd6a2e013bff4b729c6dec,2021-09-08_11h21.26.509,arrow_simon_vert,2021.1.2,Win32,59.78715772,,,,,,,,,,,,,,,,,,,,,down,1,1.5209,12,FALSE,FALSE,2,3,11,2,1,,,,,,,
,,,,,,0,2.3574895,#a3d0fb,"[""0.25"",""0""]",left_blue.png,left,,,,,,,,left,left_blue.png,down_orange.png,down,right,up,60fd6a2e013bff4b729c6dec,2021-09-08_11h21.26.509,arrow_simon_vert,2021.1.2,Win32,59.78715772,,,,,,,,,,,,,,,,,,,,,left,1,1.756,13,TRUE,FALSE,3,0,12,3,1,,,,,,,
,,,,,,0,1.911431406,#f3af84,"[""0"",""-0.25""]",up_orange.png,up,,,,,,,,right,right_blue.png,up_orange.png,up,left,down,60fd6a2e013bff4b729c6dec,2021-09-08_11h21.26.509,arrow_simon_vert,2021.1.2,Win32,59.78715772,,,,,,,,,,,,,,,,,,,,,up,1,1.669,14,TRUE,FALSE,3,1,13,0,1,,,,,,,
,,,,,,0,2.27464422,#a3d0fb,"[""0.25"",""0""]",right_blue.png,right,,,,,,,,right,right_blue.png,up_orange.png,up,right,up,60fd6a2e013bff4b729c6dec,2021-09-08_11h21.26.509,arrow_simon_vert,2021.1.2,Win32,59.78715772,,,,,,,,,,,,,,,,,,,,,left,0,1.6853,15,TRUE,FALSE,3,2,14,1,1,,,,,,,
,,,,,,0,1.754356654,#f3af84,"[""0"",""0.25""]",down_orange.png,down,,,,,,,,left,left_blue.png,down_orange.png,down,right,up,60fd6a2e013bff4b729c6dec,2021-09-08_11h21.26.509,arrow_simon_vert,2021.1.2,Win32,59.78715772,,,,,,,,,,,,,,,,,,,,,down,1,1.5714,16,FALSE,FALSE,3,3,15,3,1,,,,,,,
,,,,,,0,1.533838242,#a3d0fb,"[""-0.25"",""0""]",right_blue.png,right,,,,,,,,right,right_blue.png,up_orange.png,up,left,down,60fd6a2e013bff4b729c6dec,2021-09-08_11h21.26.509,arrow_simon_vert,2021.1.2,Win32,59.78715772,,,,,,,,,,,,,,,,,,,,,right,1,1.5872,17,FALSE,FALSE,4,0,16,0,1,,,,,,,
,,,,,,0,2.364117315,#f3af84,"[""0"",""-0.25""]",up_orange.png,up,,,,,,,,right,right_blue.png,up_orange.png,up,left,down,60fd6a2e013bff4b729c6dec,2021-09-08_11h21.26.509,arrow_simon_vert,2021.1.2,Win32,59.78715772,,,,,,,,,,,,,,,,,,,,,up,1,1.8666,18,TRUE,FALSE,4,1,17,0,1,,,,,,,
,,,,,,0,1.720372413,#a3d0fb,"[""0.25"",""0""]",right_blue.png,right,,,,,,,,right,right_blue.png,up_orange.png,up,right,up,60fd6a2e013bff4b729c6dec,2021-09-08_11h21.26.509,arrow_simon_vert,2021.1.2,Win32,59.78715772,,,,,,,,,,,,,,,,,,,,,right,1,1.5083,19,FALSE,FALSE,4,2,18,1,1,,,,,,,
,,,,,,0,2.145597229,#f3af84,"[""0"",""-0.25""]",down_orange.png,down,,,,,,,,left,left_blue.png,down_orange.png,down,left,down,60fd6a2e013bff4b729c6dec,2021-09-08_11h21.26.509,arrow_simon_vert,2021.1.2,Win32,59.78715772,,,,,,,,,,,,,,,,,,,,,down,1,1.5373,20,FALSE,FALSE,4,3,19,2,1,,,,,,,
,,,,,,0,2.381274628,#a3d0fb,"[""0.25"",""0""]",left_blue.png,left,,,,,,,,left,left_blue.png,down_orange.png,down,right,up,60fd6a2e013bff4b729c6dec,2021-09-08_11h21.26.509,arrow_simon_vert,2021.1.2,Win32,59.78715772,,,,,,,,,,,,,,,,,,,,,left,1,1.8382,21,TRUE,FALSE,5,0,20,3,1,,,,,,,
,,,,,,0,2.123946947,#f3af84,"[""0"",""0.25""]",up_orange.png,up,,,,,,,,right,right_blue.png,up_orange.png,up,right,up,60fd6a2e013bff4b729c6dec,2021-09-08_11h21.26.509,arrow_simon_vert,2021.1.2,Win32,59.78715772,,,,,,,,,,,,,,,,,,,,,up,1,1.5634,22,FALSE,FALSE,5,1,21,1,1,,,,,,,
,,,,,,0,1.763753361,#a3d0fb,"[""0.25"",""0""]",left_blue.png,left,,,,,,,,left,left_blue.png,down_orange.png,down,right,up,60fd6a2e013bff4b729c6dec,2021-09-08_11h21.26.509,arrow_simon_vert,2021.1.2,Win32,59.78715772,,,,,,,,,,,,,,,,,,,,,left,1,1.5871,23,FALSE,FALSE,5,2,22,3,1,,,,,,,
,,,,,,0,1.518508187,#f3af84,"[""0"",""-0.25""]",down_orange.png,down,,,,,,,,left,left_blue.png,down_orange.png,down,left,down,60fd6a2e013bff4b729c6dec,2021-09-08_11h21.26.509,arrow_simon_vert,2021.1.2,Win32,59.78715772,,,,,,,,,,,,,,,,,,,,,down,1,1.5288,24,FALSE,FALSE,5,3,23,2,1,,,,,,,
,,,,,,0,1.884129376,#a3d0fb,"[""-0.25"",""0""]",right_blue.png,right,,,,,,,,right,right_blue.png,up_orange.png,up,left,down,60fd6a2e013bff4b729c6dec,2021-09-08_11h21.26.509,arrow_simon_vert,2021.1.2,Win32,59.78715772,,,,,,,,,,,,,,,,,,,,,right,1,1.6003,25,TRUE,FALSE,6,0,24,0,1,,,,,,,
,,,,,,0,1.655544539,#f3af84,"[""0"",""0.25""]",up_orange.png,up,,,,,,,,right,right_blue.png,up_orange.png,up,right,up,60fd6a2e013bff4b729c6dec,2021-09-08_11h21.26.509,arrow_simon_vert,2021.1.2,Win32,59.78715772,,,,,,,,,,,,,,,,,,,,,up,1,1.5812,26,FALSE,FALSE,6,1,25,1,1,,,,,,,
,,,,,,0,2.042757392,#a3d0fb,"[""0.25"",""0""]",right_blue.png,right,,,,,,,,right,right_blue.png,up_orange.png,up,right,up,60fd6a2e013bff4b729c6dec,2021-09-08_11h21.26.509,arrow_simon_vert,2021.1.2,Win32,59.78715772,,,,,,,,,,,,,,,,,,,,,right,1,1.618,27,TRUE,FALSE,6,2,26,1,1,,,,,,,
,,,,,,0,2.013220471,#f3af84,"[""0"",""0.25""]",up_orange.png,up,,,,,,,,right,right_blue.png,up_orange.png,up,right,up,60fd6a2e013bff4b729c6dec,2021-09-08_11h21.26.509,arrow_simon_vert,2021.1.2,Win32,59.78715772,,,,,,,,,,,,,,,,,,,,,up,1,1.5763,28,FALSE,FALSE,6,3,27,1,1,,,,,,,
,,,,,,0,1.793915618,#a3d0fb,"[""0.25"",""0""]",left_blue.png,left,,,,,,,,left,left_blue.png,down_orange.png,down,right,up,60fd6a2e013bff4b729c6dec,2021-09-08_11h21.26.509,arrow_simon_vert,2021.1.2,Win32,59.78715772,,,,,,,,,,,,,,,,,,,,,left,1,1.5424,29,FALSE,FALSE,7,0,28,3,1,,,,,,,
,,,,,,0,2.11121075,#f3af84,"[""0"",""0.25""]",down_orange.png,down,,,,,,,,left,left_blue.png,down_orange.png,down,right,up,60fd6a2e013bff4b729c6dec,2021-09-08_11h21.26.509,arrow_simon_vert,2021.1.2,Win32,59.78715772,,,,,,,,,,,,,,,,,,,,,down,1,1.6523,30,TRUE,FALSE,7,1,29,3,1,,,,,,,
,,,,,,0,1.94713948,#a3d0fb,"[""-0.25"",""0""]",left_blue.png,left,,,,,,,,left,left_blue.png,down_orange.png,down,left,down,60fd6a2e013bff4b729c6dec,2021-09-08_11h21.26.509,arrow_simon_vert,2021.1.2,Win32,59.78715772,,,,,,,,,,,,,,,,,,,,,left,1,1.5124,31,FALSE,FALSE,7,2,30,2,1,,,,,,,
,,,,,,0,2.341578963,#f3af84,"[""0"",""-0.25""]",down_orange.png,down,,,,,,,,left,left_blue.png,down_orange.png,down,left,down,60fd6a2e013bff4b729c6dec,2021-09-08_11h21.26.509,arrow_simon_vert,2021.1.2,Win32,59.78715772,,,,,,,,,,,,,,,,,,,,,down,1,1.6869,32,TRUE,FALSE,7,3,31,2,1,,,,,,,
,,,,,,0,1.948498829,#a3d0fb,"[""-0.25"",""0""]",right_blue.png,right,,,,,,,,right,right_blue.png,up_orange.png,up,left,down,60fd6a2e013bff4b729c6dec,2021-09-08_11h21.26.509,arrow_simon_vert,2021.1.2,Win32,59.78715772,,,,,,,,,,,,,,,,,,,,,right,1,1.505,33,FALSE,FALSE,8,0,32,0,1,,,,,,,
,,,,,,0,1.803631907,#f3af84,"[""0"",""-0.25""]",up_orange.png,up,,,,,,,,right,right_blue.png,up_orange.png,up,left,down,60fd6a2e013bff4b729c6dec,2021-09-08_11h21.26.509,arrow_simon_vert,2021.1.2,Win32,59.78715772,,,,,,,,,,,,,,,,,,,,,up,1,1.4995,34,FALSE,FALSE,8,1,33,0,1,,,,,,,
,,,,,,0,2.14724318,#a3d0fb,"[""-0.25"",""0""]",right_blue.png,right,,,,,,,,right,right_blue.png,up_orange.png,up,left,down,60fd6a2e013bff4b729c6dec,2021-09-08_11h21.26.509,arrow_simon_vert,2021.1.2,Win32,59.78715772,,,,,,,,,,,,,,,,,,,,,right,1,1.6546,35,TRUE,FALSE,8,2,34,0,1,,,,,,,
,,,,,,0,2.231299236,#f3af84,"[""0"",""0.25""]",down_orange.png,down,,,,,,,,left,left_blue.png,down_orange.png,down,right,up,60fd6a2e013bff4b729c6dec,2021-09-08_11h21.26.509,arrow_simon_vert,2021.1.2,Win32,59.78715772,,,,,,,,,,,,,,,,,,,,,up,0,1.6815,36,TRUE,FALSE,8,3,35,3,1,,,,,,,
,,,,,,0,2.41972858,#a3d0fb,"[""-0.25"",""0""]",left_blue.png,left,,,,,,,,left,left_blue.png,down_orange.png,down,left,down,60fd6a2e013bff4b729c6dec,2021-09-08_11h21.26.509,arrow_simon_vert,2021.1.2,Win32,59.78715772,,,,,,,,,,,,,,,,,,,,,left,1,1.9211,37,TRUE,FALSE,9,0,36,2,1,,,,,,,
,,,,,,0,2.334527905,#f3af84,"[""0"",""-0.25""]",down_orange.png,down,,,,,,,,left,left_blue.png,down_orange.png,down,left,down,60fd6a2e013bff4b729c6dec,2021-09-08_11h21.26.509,arrow_simon_vert,2021.1.2,Win32,59.78715772,,,,,,,,,,,,,,,,,,,,,down,1,1.7079,38,TRUE,FALSE,9,1,37,2,1,,,,,,,
,,,,,,0,2.034247802,#a3d0fb,"[""0.25"",""0""]",right_blue.png,right,,,,,,,,right,right_blue.png,up_orange.png,up,right,up,60fd6a2e013bff4b729c6dec,2021-09-08_11h21.26.509,arrow_simon_vert,2021.1.2,Win32,59.78715772,,,,,,,,,,,,,,,,,,,,,right,1,1.4869,39,FALSE,FALSE,9,2,38,1,1,,,,,,,
,,,,,,1,1.866596806,#f3af84,"[""0"",""-0.25""]",up_orange.png,up,,,,,,,,right,right_blue.png,up_orange.png,up,left,down,60fd6a2e013bff4b729c6dec,2021-09-08_11h21.26.509,arrow_simon_vert,2021.1.2,Win32,59.78715772,,,,,,,,,,,,,,,,,,,,,down,0,1.5183,40,FALSE,FALSE,9,3,39,0,1,,,,,,,
,,,,,,1,2.332827164,#a3d0fb,"[""-0.25"",""0""]",left_blue.png,left,,,,,,,,left,left_blue.png,down_orange.png,down,left,down,60fd6a2e013bff4b729c6dec,2021-09-08_11h21.26.509,arrow_simon_vert,2021.1.2,Win32,59.78715772,,,,,,,,,,,,,,,,,,,,,left,1,1.7661,41,TRUE,FALSE,10,0,40,2,1,,,,,,,
,,,,,,1,2.20202368,#f3af84,"[""0"",""-0.25""]",down_orange.png,down,,,,,,,,left,left_blue.png,down_orange.png,down,left,down,60fd6a2e013bff4b729c6dec,2021-09-08_11h21.26.509,arrow_simon_vert,2021.1.2,Win32,59.78715772,,,,,,,,,,,,,,,,,,,,,down,1,1.6181,42,TRUE,FALSE,10,1,41,2,1,,,,,,,
,,,,,,1,2.298408822,#a3d0fb,"[""-0.25"",""0""]",left_blue.png,left,,,,,,,,left,left_blue.png,down_orange.png,down,left,down,60fd6a2e013bff4b729c6dec,2021-09-08_11h21.26.509,arrow_simon_vert,2021.1.2,Win32,59.78715772,,,,,,,,,,,,,,,,,,,,,left,1,1.8717,43,TRUE,FALSE,10,2,42,2,1,,,,,,,
,,,,,,0,1.918267615,#f3af84,"[""0"",""-0.25""]",down_orange.png,down,,,,,,,,left,left_blue.png,down_orange.png,down,left,down,60fd6a2e013bff4b729c6dec,2021-09-08_11h21.26.509,arrow_simon_vert,2021.1.2,Win32,59.78715772,,,,,,,,,,,,,,,,,,,,,down,1,1.4599,44,FALSE,FALSE,10,3,43,2,1,,,,,,,
,,,,,,0,2.143503434,#a3d0fb,"[""0.25"",""0""]",left_blue.png,left,,,,,,,,left,left_blue.png,down_orange.png,down,right,up,60fd6a2e013bff4b729c6dec,2021-09-08_11h21.26.509,arrow_simon_vert,2021.1.2,Win32,59.78715772,,,,,,,,,,,,,,,,,,,,,left,1,1.633,45,TRUE,FALSE,11,0,44,3,1,,,,,,,
,,,,,,0,1.668477868,#f3af84,"[""0"",""0.25""]",down_orange.png,down,,,,,,,,left,left_blue.png,down_orange.png,down,right,up,60fd6a2e013bff4b729c6dec,2021-09-08_11h21.26.509,arrow_simon_vert,2021.1.2,Win32,59.78715772,,,,,,,,,,,,,,,,,,,,,down,1,1.5354,46,FALSE,FALSE,11,1,45,3,1,,,,,,,
,,,,,,0,2.052322734,#a3d0fb,"[""-0.25"",""0""]",left_blue.png,left,,,,,,,,left,left_blue.png,down_orange.png,down,left,down,60fd6a2e013bff4b729c6dec,2021-09-08_11h21.26.509,arrow_simon_vert,2021.1.2,Win32,59.78715772,,,,,,,,,,,,,,,,,,,,,left,1,1.5194,47,FALSE,FALSE,11,2,46,2,1,,,,,,,
,,,,,,0,2.29372548,#f3af84,"[""0"",""-0.25""]",up_orange.png,up,,,,,,,,right,right_blue.png,up_orange.png,up,left,down,60fd6a2e013bff4b729c6dec,2021-09-08_11h21.26.509,arrow_simon_vert,2021.1.2,Win32,59.78715772,,,,,,,,,,,,,,,,,,,,,down,0,1.6212,48,TRUE,FALSE,11,3,47,0,1,,,,,,,
,,,,,,0,1.694243303,#a3d0fb,"[""0.25"",""0""]",left_blue.png,left,,,,,,,,left,left_blue.png,down_orange.png,down,right,up,60fd6a2e013bff4b729c6dec,2021-09-08_11h21.26.509,arrow_simon_vert,2021.1.2,Win32,59.78715772,,,,,,,,,,,,,,,,,,,,,left,1,1.4503,49,FALSE,FALSE,12,0,48,3,1,,,,,,,
,,,,,,0,1.817387374,#f3af84,"[""0"",""0.25""]",up_orange.png,up,,,,,,,,right,right_blue.png,up_orange.png,up,right,up,60fd6a2e013bff4b729c6dec,2021-09-08_11h21.26.509,arrow_simon_vert,2021.1.2,Win32,59.78715772,,,,,,,,,,,,,,,,,,,,,up,1,1.4798,50,FALSE,FALSE,12,1,49,1,1,,,,,,,
,,,,,,0,2.264980164,#a3d0fb,"[""-0.25"",""0""]",right_blue.png,right,,,,,,,,right,right_blue.png,up_orange.png,up,left,down,60fd6a2e013bff4b729c6dec,2021-09-08_11h21.26.509,arrow_simon_vert,2021.1.2,Win32,59.78715772,,,,,,,,,,,,,,,,,,,,,right,1,1.8293,51,TRUE,FALSE,12,2,50,0,1,,,,,,,
,,,,,,0,1.57177552,#f3af84,"[""0"",""0.25""]",up_orange.png,up,,,,,,,,right,right_blue.png,up_orange.png,up,right,up,60fd6a2e013bff4b729c6dec,2021-09-08_11h21.26.509,arrow_simon_vert,2021.1.2,Win32,59.78715772,,,,,,,,,,,,,,,,,,,,,up,1,1.5525,52,FALSE,FALSE,12,3,51,1,1,,,,,,,
,,,,,,0,1.77468588,#a3d0fb,"[""-0.25"",""0""]",right_blue.png,right,,,,,,,,right,right_blue.png,up_orange.png,up,left,down,60fd6a2e013bff4b729c6dec,2021-09-08_11h21.26.509,arrow_simon_vert,2021.1.2,Win32,59.78715772,,,,,,,,,,,,,,,,,,,,,right,1,1.4358,53,FALSE,FALSE,13,0,52,0,1,,,,,,,
,,,,,,0,2.251370754,#f3af84,"[""0"",""0.25""]",up_orange.png,up,,,,,,,,right,right_blue.png,up_orange.png,up,right,up,60fd6a2e013bff4b729c6dec,2021-09-08_11h21.26.509,arrow_simon_vert,2021.1.2,Win32,59.78715772,,,,,,,,,,,,,,,,,,,,,up,1,1.6187,54,TRUE,FALSE,13,1,53,1,1,,,,,,,
,,,,,,0,2.467679456,#a3d0fb,"[""0.25"",""0""]",left_blue.png,left,,,,,,,,left,left_blue.png,down_orange.png,down,right,up,60fd6a2e013bff4b729c6dec,2021-09-08_11h21.26.509,arrow_simon_vert,2021.1.2,Win32,59.78715772,,,,,,,,,,,,,,,,,,,,,right,0,1.7944,55,TRUE,FALSE,13,2,54,3,1,,,,,,,
,,,,,,0,1.913192453,#f3af84,"[""0"",""0.25""]",up_orange.png,up,,,,,,,,right,right_blue.png,up_orange.png,up,right,up,60fd6a2e013bff4b729c6dec,2021-09-08_11h21.26.509,arrow_simon_vert,2021.1.2,Win32,59.78715772,,,,,,,,,,,,,,,,,,,,,up,1,1.5218,56,FALSE,FALSE,13,3,55,1,1,,,,,,,
,,,,,,0,2.494391797,#a3d0fb,"[""0.25"",""0""]",left_blue.png,left,,,,,,,,left,left_blue.png,down_orange.png,down,right,up,60fd6a2e013bff4b729c6dec,2021-09-08_11h21.26.509,arrow_simon_vert,2021.1.2,Win32,59.78715772,,,,,,,,,,,,,,,,,,,,,left,1,1.968,57,TRUE,FALSE,14,0,56,3,1,,,,,,,
,,,,,,0,1.570297913,#f3af84,"[""0"",""-0.25""]",up_orange.png,up,,,,,,,,right,right_blue.png,up_orange.png,up,left,down,60fd6a2e013bff4b729c6dec,2021-09-08_11h21.26.509,arrow_simon_vert,2021.1.2,Win32,59.78715772,,,,,,,,,,,,,,,,,,,,,up,1,1.4886,58,FALSE,FALSE,14,1,57,0,1,,,,,,,
,,,,,,0,1.865934081,#a3d0fb,"[""0.25"",""0""]",left_blue.png,left,,,,,,,,left,left_blue.png,down_orange.png,down,right,up,60fd6a2e013bff4b729c6dec,2021-09-08_11h21.26.509,arrow_simon_vert,2021.1.2,Win32,59.78715772,,,,,,,,,,,,,,,,,,,,,left,1,1.4709,59,FALSE,FALSE,14,2,58,3,1,,,,,,,
,,,,,,0,1.618947272,#f3af84,"[""0"",""-0.25""]",down_orange.png,down,,,,,,,,left,left_blue.png,down_orange.png,down,left,down,60fd6a2e013bff4b729c6dec,2021-09-08_11h21.26.509,arrow_simon_vert,2021.1.2,Win32,59.78715772,,,,,,,,,,,,,,,,,,,,,down,1,1.6199,60,TRUE,FALSE,14,3,59,2,1,,,,,,,
,,,,,,,,,,,,,,,,,,,,,,,,,60fd6a2e013bff4b729c6dec,2021-09-08_11h21.26.509,arrow_simon_vert,2021.1.2,Win32,59.78715772,,,,,,,,,,,,,,,,,,,,,,,,,,,,,,,,space,11.5054,1,0,1,0,1
,,,,,,0,2.281025133,#a3d0fb,"[""-0.25"",""0""]",left_blue.png,left,,,,,,,,left,left_blue.png,down_orange.png,down,left,down,60fd6a2e013bff4b729c6dec,2021-09-08_11h21.26.509,arrow_simon_vert,2021.1.2,Win32,59.78715772,,,,,,,,,,,,,,,,,,,,,left,1,1.7066,1,TRUE,FALSE,0,0,0,2,1,,,,,,,
,,,,,,0,2.235747005,#f3af84,"[""0"",""0.25""]",up_orange.png,up,,,,,,,,right,right_blue.png,up_orange.png,up,right,up,60fd6a2e013bff4b729c6dec,2021-09-08_11h21.26.509,arrow_simon_vert,2021.1.2,Win32,59.78715772,,,,,,,,,,,,,,,,,,,,,up,1,1.606,2,TRUE,FALSE,0,1,1,1,1,,,,,,,
,,,,,,0,1.965995701,#a3d0fb,"[""-0.25"",""0""]",right_blue.png,right,,,,,,,,right,right_blue.png,up_orange.png,up,left,down,60fd6a2e013bff4b729c6dec,2021-09-08_11h21.26.509,arrow_simon_vert,2021.1.2,Win32,59.78715772,,,,,,,,,,,,,,,,,,,,,right,1,1.5274,3,FALSE,FALSE,0,2,2,0,1,,,,,,,
,,,,,,0,1.894555081,#f3af84,"[""0"",""-0.25""]",up_orange.png,up,,,,,,,,right,right_blue.png,up_orange.png,up,left,down,60fd6a2e013bff4b729c6dec,2021-09-08_11h21.26.509,arrow_simon_vert,2021.1.2,Win32,59.78715772,,,,,,,,,,,,,,,,,,,,,up,1,1.6285,4,TRUE,FALSE,0,3,3,0,1,,,,,,,
,,,,,,0,1.70543479,#a3d0fb,"[""0.25"",""0""]",left_blue.png,left,,,,,,,,left,left_blue.png,down_orange.png,down,right,up,60fd6a2e013bff4b729c6dec,2021-09-08_11h21.26.509,arrow_simon_vert,2021.1.2,Win32,59.78715772,,,,,,,,,,,,,,,,,,,,,left,1,1.3376,5,FALSE,TRUE,1,0,4,3,1,,,,,,,
,,,,,,0,2.186979336,#f3af84,"[""0"",""0.25""]",up_orange.png,up,,,,,,,,right,right_blue.png,up_orange.png,up,right,up,60fd6a2e013bff4b729c6dec,2021-09-08_11h21.26.509,arrow_simon_vert,2021.1.2,Win32,59.78715772,,,,,,,,,,,,,,,,,,,,,up,1,1.6553,6,TRUE,FALSE,1,1,5,1,1,,,,,,,
,,,,,,0,1.670474045,#a3d0fb,"[""0.25"",""0""]",right_blue.png,right,,,,,,,,right,right_blue.png,up_orange.png,up,right,up,60fd6a2e013bff4b729c6dec,2021-09-08_11h21.26.509,arrow_simon_vert,2021.1.2,Win32,59.78715772,,,,,,,,,,,,,,,,,,,,,right,1,1.1673,7,FALSE,TRUE,1,2,6,1,1,,,,,,,
,,,,,,0,1.536302708,#f3af84,"[""0"",""-0.25""]",up_orange.png,up,,,,,,,,right,right_blue.png,up_orange.png,up,left,down,60fd6a2e013bff4b729c6dec,2021-09-08_11h21.26.509,arrow_simon_vert,2021.1.2,Win32,59.78715772,,,,,,,,,,,,,,,,,,,,,up,1,1.5604,8,FALSE,FALSE,1,3,7,0,1,,,,,,,
,,,,,,0,1.99012228,#a3d0fb,"[""-0.25"",""0""]",right_blue.png,right,,,,,,,,right,right_blue.png,up_orange.png,up,left,down,60fd6a2e013bff4b729c6dec,2021-09-08_11h21.26.509,arrow_simon_vert,2021.1.2,Win32,59.78715772,,,,,,,,,,,,,,,,,,,,,left,0,1.3945,9,FALSE,TRUE,2,0,8,0,1,,,,,,,
,,,,,,0,1.551402717,#f3af84,"[""0"",""0.25""]",up_orange.png,up,,,,,,,,right,right_blue.png,up_orange.png,up,right,up,60fd6a2e013bff4b729c6dec,2021-09-08_11h21.26.509,arrow_simon_vert,2021.1.2,Win32,59.78715772,,,,,,,,,,,,,,,,,,,,,up,1,1.5605,10,FALSE,FALSE,2,1,9,1,1,,,,,,,
,,,,,,0,2.032509171,#a3d0fb,"[""-0.25"",""0""]",right_blue.png,right,,,,,,,,right,right_blue.png,up_orange.png,up,left,down,60fd6a2e013bff4b729c6dec,2021-09-08_11h21.26.509,arrow_simon_vert,2021.1.2,Win32,59.78715772,,,,,,,,,,,,,,,,,,,,,right,1,1.5425,11,FALSE,FALSE,2,2,10,0,1,,,,,,,
,,,,,,0,2.400956215,#f3af84,"[""0"",""0.25""]",down_orange.png,down,,,,,,,,left,left_blue.png,down_orange.png,down,right,up,60fd6a2e013bff4b729c6dec,2021-09-08_11h21.26.509,arrow_simon_vert,2021.1.2,Win32,59.78715772,,,,,,,,,,,,,,,,,,,,,up,0,1.6897,12,TRUE,FALSE,2,3,11,3,1,,,,,,,
,,,,,,0,2.24311605,#a3d0fb,"[""-0.25"",""0""]",left_blue.png,left,,,,,,,,left,left_blue.png,down_orange.png,down,left,down,60fd6a2e013bff4b729c6dec,2021-09-08_11h21.26.509,arrow_simon_vert,2021.1.2,Win32,59.78715772,,,,,,,,,,,,,,,,,,,,,left,1,1.6863,13,TRUE,FALSE,3,0,12,2,1,,,,,,,
,,,,,,0,1.687937129,#f3af84,"[""0"",""-0.25""]",down_orange.png,down,,,,,,,,left,left_blue.png,down_orange.png,down,left,down,60fd6a2e013bff4b729c6dec,2021-09-08_11h21.26.509,arrow_simon_vert,2021.1.2,Win32,59.78715772,,,,,,,,,,,,,,,,,,,,,down,1,1.5239,14,FALSE,FALSE,3,1,13,2,1,,,,,,,
,,,,,,0,1.910411361,#a3d0fb,"[""0.25"",""0""]",left_blue.png,left,,,,,,,,left,left_blue.png,down_orange.png,down,right,up,60fd6a2e013bff4b729c6dec,2021-09-08_11h21.26.509,arrow_simon_vert,2021.1.2,Win32,59.78715772,,,,,,,,,,,,,,,,,,,,,left,1,1.4883,15,FALSE,FALSE,3,2,14,3,1,,,,,,,
,,,,,,0,2.32361625,#f3af84,"[""0"",""0.25""]",down_orange.png,down,,,,,,,,left,left_blue.png,down_orange.png,down,right,up,60fd6a2e013bff4b729c6dec,2021-09-08_11h21.26.509,arrow_simon_vert,2021.1.2,Win32,59.78715772,,,,,,,,,,,,,,,,,,,,,up,0,1.785,16,TRUE,FALSE,3,3,15,3,1,,,,,,,
,,,,,,0,2.439948207,#a3d0fb,"[""-0.25"",""0""]",left_blue.png,left,,,,,,,,left,left_blue.png,down_orange.png,down,left,down,60fd6a2e013bff4b729c6dec,2021-09-08_11h21.26.509,arrow_simon_vert,2021.1.2,Win32,59.78715772,,,,,,,,,,,,,,,,,,,,,left,1,1.9085,17,TRUE,FALSE,4,0,16,2,1,,,,,,,
,,,,,,0,1.523414798,#f3af84,"[""0"",""0.25""]",down_orange.png,down,,,,,,,,left,left_blue.png,down_orange.png,down,right,up,60fd6a2e013bff4b729c6dec,2021-09-08_11h21.26.509,arrow_simon_vert,2021.1.2,Win32,59.78715772,,,,,,,,,,,,,,,,,,,,,down,1,1.504,18,FALSE,FALSE,4,1,17,3,1,,,,,,,
,,,,,,0,1.855790161,#a3d0fb,"[""-0.25"",""0""]",left_blue.png,left,,,,,,,,left,left_blue.png,down_orange.png,down,left,down,60fd6a2e013bff4b729c6dec,2021-09-08_11h21.26.509,arrow_simon_vert,2021.1.2,Win32,59.78715772,,,,,,,,,,,,,,,,,,,,,left,1,1.4731,19,FALSE,FALSE,4,2,18,2,1,,,,,,,
,,,,,,0,2.288449745,#f3af84,"[""0"",""0.25""]",up_orange.png,up,,,,,,,,right,right_blue.png,up_orange.png,up,right,up,60fd6a2e013bff4b729c6dec,2021-09-08_11h21.26.509,arrow_simon_vert,2021.1.2,Win32,59.78715772,,,,,,,,,,,,,,,,,,,,,up,1,1.6541,20,TRUE,FALSE,4,3,19,1,1,,,,,,,
,,,,,,0,2.39884433,#a3d0fb,"[""-0.25"",""0""]",right_blue.png,right,,,,,,,,right,right_blue.png,up_orange.png,up,left,down,60fd6a2e013bff4b729c6dec,2021-09-08_11h21.26.509,arrow_simon_vert,2021.1.2,Win32,59.78715772,,,,,,,,,,,,,,,,,,,,,left,0,1.6036,21,TRUE,FALSE,5,0,20,0,1,,,,,,,
,,,,,,0,2.440328454,#f3af84,"[""0"",""-0.25""]",up_orange.png,up,,,,,,,,right,right_blue.png,up_orange.png,up,left,down,60fd6a2e013bff4b729c6dec,2021-09-08_11h21.26.509,arrow_simon_vert,2021.1.2,Win32,59.78715772,,,,,,,,,,,,,,,,,,,,,down,0,1.7377,22,TRUE,FALSE,5,1,21,0,1,,,,,,,
,,,,,,0,2.02421498,#a3d0fb,"[""-0.25"",""0""]",right_blue.png,right,,,,,,,,right,right_blue.png,up_orange.png,up,left,down,60fd6a2e013bff4b729c6dec,2021-09-08_11h21.26.509,arrow_simon_vert,2021.1.2,Win32,59.78715772,,,,,,,,,,,,,,,,,,,,,right,1,1.7507,23,TRUE,FALSE,5,2,22,0,1,,,,,,,
,,,,,,0,2.448189372,#f3af84,"[""0"",""-0.25""]",down_orange.png,down,,,,,,,,left,left_blue.png,down_orange.png,down,left,down,60fd6a2e013bff4b729c6dec,2021-09-08_11h21.26.509,arrow_simon_vert,2021.1.2,Win32,59.78715772,,,,,,,,,,,,,,,,,,,,,down,1,1.8708,24,TRUE,FALSE,5,3,23,2,1,,,,,,,
,,,,,,0,1.523931745,#a3d0fb,"[""-0.25"",""0""]",left_blue.png,left,,,,,,,,left,left_blue.png,down_orange.png,down,left,down,60fd6a2e013bff4b729c6dec,2021-09-08_11h21.26.509,arrow_simon_vert,2021.1.2,Win32,59.78715772,,,,,,,,,,,,,,,,,,,,,left,1,1.4577,25,FALSE,FALSE,6,0,24,2,1,,,,,,,
,,,,,,0,1.752748164,#f3af84,"[""0"",""-0.25""]",up_orange.png,up,,,,,,,,right,right_blue.png,up_orange.png,up,left,down,60fd6a2e013bff4b729c6dec,2021-09-08_11h21.26.509,arrow_simon_vert,2021.1.2,Win32,59.78715772,,,,,,,,,,,,,,,,,,,,,up,1,1.3862,26,FALSE,TRUE,6,1,25,0,1,,,,,,,
,,,,,,0,1.820735832,#a3d0fb,"[""-0.25"",""0""]",left_blue.png,left,,,,,,,,left,left_blue.png,down_orange.png,down,left,down,60fd6a2e013bff4b729c6dec,2021-09-08_11h21.26.509,arrow_simon_vert,2021.1.2,Win32,59.78715772,,,,,,,,,,,,,,,,,,,,,left,1,1.4214,27,FALSE,FALSE,6,2,26,2,1,,,,,,,
,,,,,,0,2.051896892,#f3af84,"[""0"",""0.25""]",up_orange.png,up,,,,,,,,right,right_blue.png,up_orange.png,up,right,up,60fd6a2e013bff4b729c6dec,2021-09-08_11h21.26.509,arrow_simon_vert,2021.1.2,Win32,59.78715772,,,,,,,,,,,,,,,,,,,,,up,1,1.5369,28,FALSE,FALSE,6,3,27,1,1,,,,,,,
,,,,,,0,2.426489393,#a3d0fb,"[""0.25"",""0""]",right_blue.png,right,,,,,,,,right,right_blue.png,up_orange.png,up,right,up,60fd6a2e013bff4b729c6dec,2021-09-08_11h21.26.509,arrow_simon_vert,2021.1.2,Win32,59.78715772,,,,,,,,,,,,,,,,,,,,,left,0,1.7022,29,TRUE,FALSE,7,0,28,1,1,,,,,,,
,,,,,,0,2.439460152,#f3af84,"[""0"",""0.25""]",down_orange.png,down,,,,,,,,left,left_blue.png,down_orange.png,down,right,up,60fd6a2e013bff4b729c6dec,2021-09-08_11h21.26.509,arrow_simon_vert,2021.1.2,Win32,59.78715772,,,,,,,,,,,,,,,,,,,,,down,1,1.5606,30,FALSE,FALSE,7,1,29,3,1,,,,,,,
,,,,,,0,2.44735929,#a3d0fb,"[""0.25"",""0""]",right_blue.png,right,,,,,,,,right,right_blue.png,up_orange.png,up,right,up,60fd6a2e013bff4b729c6dec,2021-09-08_11h21.26.509,arrow_simon_vert,2021.1.2,Win32,59.78715772,,,,,,,,,,,,,,,,,,,,,left,0,1.6055,31,TRUE,FALSE,7,2,30,1,1,,,,,,,
,,,,,,0,2.463708279,#f3af84,"[""0"",""0.25""]",down_orange.png,down,,,,,,,,left,left_blue.png,down_orange.png,down,right,up,60fd6a2e013bff4b729c6dec,2021-09-08_11h21.26.509,arrow_simon_vert,2021.1.2,Win32,59.78715772,,,,,,,,,,,,,,,,,,,,,up,0,1.7528,32,TRUE,FALSE,7,3,31,3,1,,,,,,,
,,,,,,0,2.404202904,#a3d0fb,"[""-0.25"",""0""]",right_blue.png,right,,,,,,,,right,right_blue.png,up_orange.png,up,left,down,60fd6a2e013bff4b729c6dec,2021-09-08_11h21.26.509,arrow_simon_vert,2021.1.2,Win32,59.78715772,,,,,,,,,,,,,,,,,,,,,right,1,1.8879,33,TRUE,FALSE,8,0,32,0,1,,,,,,,
,,,,,,0,2.009912075,#f3af84,"[""0"",""-0.25""]",down_orange.png,down,,,,,,,,left,left_blue.png,down_orange.png,down,left,down,60fd6a2e013bff4b729c6dec,2021-09-08_11h21.26.509,arrow_simon_vert,2021.1.2,Win32,59.78715772,,,,,,,,,,,,,,,,,,,,,down,1,1.5378,34,FALSE,FALSE,8,1,33,2,1,,,,,,,
,,,,,,0,2.026513311,#a3d0fb,"[""-0.25"",""0""]",left_blue.png,left,,,,,,,,left,left_blue.png,down_orange.png,down,left,down,60fd6a2e013bff4b729c6dec,2021-09-08_11h21.26.509,arrow_simon_vert,2021.1.2,Win32,59.78715772,,,,,,,,,,,,,,,,,,,,,left,1,1.4904,35,FALSE,FALSE,8,2,34,2,1,,,,,,,
,,,,,,1,2.39581,#f3af84,"[""0"",""-0.25""]",down_orange.png,down,,,,,,,,left,left_blue.png,down_orange.png,down,left,down,60fd6a2e013bff4b729c6dec,2021-09-08_11h21.26.509,arrow_simon_vert,2021.1.2,Win32,59.78715772,,,,,,,,,,,,,,,,,,,,,up,0,1.5865,36,FALSE,FALSE,8,3,35,2,1,,,,,,,
,,,,,,1,1.693158701,#a3d0fb,"[""0.25"",""0""]",left_blue.png,left,,,,,,,,left,left_blue.png,down_orange.png,down,right,up,60fd6a2e013bff4b729c6dec,2021-09-08_11h21.26.509,arrow_simon_vert,2021.1.2,Win32,59.78715772,,,,,,,,,,,,,,,,,,,,,left,1,1.6241,37,TRUE,FALSE,9,0,36,3,1,,,,,,,
,,,,,,0,1.547071228,#f3af84,"[""0"",""0.25""]",up_orange.png,up,,,,,,,,right,right_blue.png,up_orange.png,up,right,up,60fd6a2e013bff4b729c6dec,2021-09-08_11h21.26.509,arrow_simon_vert,2021.1.2,Win32,59.78715772,,,,,,,,,,,,,,,,,,,,,up,1,1.4818,38,FALSE,FALSE,9,1,37,1,1,,,,,,,
,,,,,,0,2.356490193,#a3d0fb,"[""0.25"",""0""]",left_blue.png,left,,,,,,,,left,left_blue.png,down_orange.png,down,right,up,60fd6a2e013bff4b729c6dec,2021-09-08_11h21.26.509,arrow_simon_vert,2021.1.2,Win32,59.78715772,,,,,,,,,,,,,,,,,,,,,right,0,1.6693,39,TRUE,FALSE,9,2,38,3,1,,,,,,,
,,,,,,0,1.709935627,#f3af84,"[""0"",""-0.25""]",up_orange.png,up,,,,,,,,right,right_blue.png,up_orange.png,up,left,down,60fd6a2e013bff4b729c6dec,2021-09-08_11h21.26.509,arrow_simon_vert,2021.1.2,Win32,59.78715772,,,,,,,,,,,,,,,,,,,,,up,1,1.4112,40,FALSE,FALSE,9,3,39,0,1,,,,,,,
,,,,,,0,1.771632043,#a3d0fb,"[""0.25"",""0""]",right_blue.png,right,,,,,,,,right,right_blue.png,up_orange.png,up,right,up,60fd6a2e013bff4b729c6dec,2021-09-08_11h21.26.509,arrow_simon_vert,2021.1.2,Win32,59.78715772,,,,,,,,,,,,,,,,,,,,,right,1,1.5868,41,FALSE,FALSE,10,0,40,1,1,,,,,,,
,,,,,,0,1.997514605,#f3af84,"[""0"",""-0.25""]",down_orange.png,down,,,,,,,,left,left_blue.png,down_orange.png,down,left,down,60fd6a2e013bff4b729c6dec,2021-09-08_11h21.26.509,arrow_simon_vert,2021.1.2,Win32,59.78715772,,,,,,,,,,,,,,,,,,,,,down,1,1.591,42,FALSE,FALSE,10,1,41,2,1,,,,,,,
,,,,,,0,2.179964122,#a3d0fb,"[""-0.25"",""0""]",right_blue.png,right,,,,,,,,right,right_blue.png,up_orange.png,up,left,down,60fd6a2e013bff4b729c6dec,2021-09-08_11h21.26.509,arrow_simon_vert,2021.1.2,Win32,59.78715772,,,,,,,,,,,,,,,,,,,,,right,1,1.654,43,TRUE,FALSE,10,2,42,0,1,,,,,,,
,,,,,,0,2.277308289,#f3af84,"[""0"",""0.25""]",up_orange.png,up,,,,,,,,right,right_blue.png,up_orange.png,up,right,up,60fd6a2e013bff4b729c6dec,2021-09-08_11h21.26.509,arrow_simon_vert,2021.1.2,Win32,59.78715772,,,,,,,,,,,,,,,,,,,,,up,1,1.6008,44,TRUE,FALSE,10,3,43,1,1,,,,,,,
,,,,,,0,2.229352372,#a3d0fb,"[""-0.25"",""0""]",right_blue.png,right,,,,,,,,right,right_blue.png,up_orange.png,up,left,down,60fd6a2e013bff4b729c6dec,2021-09-08_11h21.26.509,arrow_simon_vert,2021.1.2,Win32,59.78715772,,,,,,,,,,,,,,,,,,,,,right,1,1.6996,45,TRUE,FALSE,11,0,44,0,1,,,,,,,
,,,,,,0,2.022556177,#f3af84,"[""0"",""0.25""]",up_orange.png,up,,,,,,,,right,right_blue.png,up_orange.png,up,right,up,60fd6a2e013bff4b729c6dec,2021-09-08_11h21.26.509,arrow_simon_vert,2021.1.2,Win32,59.78715772,,,,,,,,,,,,,,,,,,,,,up,1,1.4877,46,FALSE,FALSE,11,1,45,1,1,,,,,,,
,,,,,,0,2.102258171,#a3d0fb,"[""0.25"",""0""]",right_blue.png,right,,,,,,,,right,right_blue.png,up_orange.png,up,right,up,60fd6a2e013bff4b729c6dec,2021-09-08_11h21.26.509,arrow_simon_vert,2021.1.2,Win32,59.78715772,,,,,,,,,,,,,,,,,,,,,right,1,1.54,47,FALSE,FALSE,11,2,46,1,1,,,,,,,
,,,,,,0,2.402746595,#f3af84,"[""0"",""0.25""]",down_orange.png,down,,,,,,,,left,left_blue.png,down_orange.png,down,right,up,60fd6a2e013bff4b729c6dec,2021-09-08_11h21.26.509,arrow_simon_vert,2021.1.2,Win32,59.78715772,,,,,,,,,,,,,,,,,,,,,up,0,1.7375,48,TRUE,FALSE,11,3,47,3,1,,,,,,,
,,,,,,0,2.182355295,#a3d0fb,"[""0.25"",""0""]",left_blue.png,left,,,,,,,,left,left_blue.png,down_orange.png,down,right,up,60fd6a2e013bff4b729c6dec,2021-09-08_11h21.26.509,arrow_simon_vert,2021.1.2,Win32,59.78715772,,,,,,,,,,,,,,,,,,,,,left,1,1.6679,49,TRUE,FALSE,12,0,48,3,1,,,,,,,
,,,,,,1,2.35361367,#f3af84,"[""0"",""0.25""]",up_orange.png,up,,,,,,,,right,right_blue.png,up_orange.png,up,right,up,60fd6a2e013bff4b729c6dec,2021-09-08_11h21.26.509,arrow_simon_vert,2021.1.2,Win32,59.78715772,,,,,,,,,,,,,,,,,,,,,down,0,1.528,50,FALSE,FALSE,12,1,49,1,1,,,,,,,
,,,,,,1,1.794233211,#a3d0fb,"[""-0.25"",""0""]",left_blue.png,left,,,,,,,,left,left_blue.png,down_orange.png,down,left,down,60fd6a2e013bff4b729c6dec,2021-09-08_11h21.26.509,arrow_simon_vert,2021.1.2,Win32,59.78715772,,,,,,,,,,,,,,,,,,,,,left,1,1.3859,51,FALSE,TRUE,12,2,50,2,1,,,,,,,
,,,,,,0,2.122207418,#f3af84,"[""0"",""-0.25""]",down_orange.png,down,,,,,,,,left,left_blue.png,down_orange.png,down,left,down,60fd6a2e013bff4b729c6dec,2021-09-08_11h21.26.509,arrow_simon_vert,2021.1.2,Win32,59.78715772,,,,,,,,,,,,,,,,,,,,,down,1,1.5864,52,FALSE,FALSE,12,3,51,2,1,,,,,,,
,,,,,,1,2.299381323,#a3d0fb,"[""0.25"",""0""]",left_blue.png,left,,,,,,,,left,left_blue.png,down_orange.png,down,right,up,60fd6a2e013bff4b729c6dec,2021-09-08_11h21.26.509,arrow_simon_vert,2021.1.2,Win32,59.78715772,,,,,,,,,,,,,,,,,,,,,right,0,1.5859,53,FALSE,FALSE,13,0,52,3,1,,,,,,,
,,,,,,0,1.570318347,#f3af84,"[""0"",""0.25""]",down_orange.png,down,,,,,,,,left,left_blue.png,down_orange.png,down,right,up,60fd6a2e013bff4b729c6dec,2021-09-08_11h21.26.509,arrow_simon_vert,2021.1.2,Win32,59.78715772,,,,,,,,,,,,,,,,,,,,,down,1,1.5034,54,FALSE,FALSE,13,1,53,3,1,,,,,,,
,,,,,,0,1.801897731,#a3d0fb,"[""-0.25"",""0""]",right_blue.png,right,,,,,,,,right,right_blue.png,up_orange.png,up,left,down,60fd6a2e013bff4b729c6dec,2021-09-08_11h21.26.509,arrow_simon_vert,2021.1.2,Win32,59.78715772,,,,,,,,,,,,,,,,,,,,,right,1,1.4301,55,FALSE,FALSE,13,2,54,0,1,,,,,,,
,,,,,,0,1.823251773,#f3af84,"[""0"",""0.25""]",down_orange.png,down,,,,,,,,left,left_blue.png,down_orange.png,down,right,up,60fd6a2e013bff4b729c6dec,2021-09-08_11h21.26.509,arrow_simon_vert,2021.1.2,Win32,59.78715772,,,,,,,,,,,,,,,,,,,,,down,1,1.4511,56,FALSE,FALSE,13,3,55,3,1,,,,,,,
,,,,,,0,2.420760166,#a3d0fb,"[""-0.25"",""0""]",right_blue.png,right,,,,,,,,right,right_blue.png,up_orange.png,up,left,down,60fd6a2e013bff4b729c6dec,2021-09-08_11h21.26.509,arrow_simon_vert,2021.1.2,Win32,59.78715772,,,,,,,,,,,,,,,,,,,,,left,0,1.7548,57,TRUE,FALSE,14,0,56,0,1,,,,,,,
,,,,,,0,1.620329295,#f3af84,"[""0"",""-0.25""]",down_orange.png,down,,,,,,,,left,left_blue.png,down_orange.png,down,left,down,60fd6a2e013bff4b729c6dec,2021-09-08_11h21.26.509,arrow_simon_vert,2021.1.2,Win32,59.78715772,,,,,,,,,,,,,,,,,,,,,down,1,1.4695,58,FALSE,FALSE,14,1,57,2,1,,,,,,,
,,,,,,0,2.341395687,#a3d0fb,"[""0.25"",""0""]",left_blue.png,left,,,,,,,,left,left_blue.png,down_orange.png,down,right,up,60fd6a2e013bff4b729c6dec,2021-09-08_11h21.26.509,arrow_simon_vert,2021.1.2,Win32,59.78715772,,,,,,,,,,,,,,,,,,,,,right,0,1.6248,59,TRUE,FALSE,14,2,58,3,1,,,,,,,
,,,,,,0,2.082842965,#f3af84,"[""0"",""0.25""]",up_orange.png,up,,,,,,,,right,right_blue.png,up_orange.png,up,right,up,60fd6a2e013bff4b729c6dec,2021-09-08_11h21.26.509,arrow_simon_vert,2021.1.2,Win32,59.78715772,,,,,,,,,,,,,,,,,,,,,up,1,1.6036,60,TRUE,FALSE,14,3,59,1,1,,,,,,,
,,,,,,,,,,,,,,,,,,,,,,,,,60fd6a2e013bff4b729c6dec,2021-09-08_11h21.26.509,arrow_simon_vert,2021.1.2,Win32,59.78715772,,,,,,,,,,,,,,,,,,,,,,,,,,,,,,,,space,6.4309,2,0,2,0,1
,,,,,,1,2.257746292,#a3d0fb,"[""-0.25"",""0""]",right_blue.png,right,,,,,,,,right,right_blue.png,up_orange.png,up,left,down,60fd6a2e013bff4b729c6dec,2021-09-08_11h21.26.509,arrow_simon_vert,2021.1.2,Win32,59.78715772,,,,,,,,,,,,,,,,,,,,,up,0,1.5213,1,FALSE,FALSE,0,0,0,0,1,,,,,,,
,,,,,,1,1.605500791,#f3af84,"[""0"",""-0.25""]",down_orange.png,down,,,,,,,,left,left_blue.png,down_orange.png,down,left,down,60fd6a2e013bff4b729c6dec,2021-09-08_11h21.26.509,arrow_simon_vert,2021.1.2,Win32,59.78715772,,,,,,,,,,,,,,,,,,,,,down,1,1.3885,2,FALSE,TRUE,0,1,1,2,1,,,,,,,
,,,,,,1,2.258500011,#a3d0fb,"[""-0.25"",""0""]",left_blue.png,left,,,,,,,,left,left_blue.png,down_orange.png,down,left,down,60fd6a2e013bff4b729c6dec,2021-09-08_11h21.26.509,arrow_simon_vert,2021.1.2,Win32,59.78715772,,,,,,,,,,,,,,,,,,,,,left,1,1.7046,3,TRUE,FALSE,0,2,2,2,1,,,,,,,
,,,,,,1,2.183246507,#f3af84,"[""0"",""0.25""]",down_orange.png,down,,,,,,,,left,left_blue.png,down_orange.png,down,right,up,60fd6a2e013bff4b729c6dec,2021-09-08_11h21.26.509,arrow_simon_vert,2021.1.2,Win32,59.78715772,,,,,,,,,,,,,,,,,,,,,up,0,1.5946,4,FALSE,FALSE,0,3,3,3,1,,,,,,,
,,,,,,1,2.356229582,#a3d0fb,"[""-0.25"",""0""]",right_blue.png,right,,,,,,,,right,right_blue.png,up_orange.png,up,left,down,60fd6a2e013bff4b729c6dec,2021-09-08_11h21.26.509,arrow_simon_vert,2021.1.2,Win32,59.78715772,,,,,,,,,,,,,,,,,,,,,right,1,1.8176,5,TRUE,FALSE,1,0,4,0,1,,,,,,,
,,,,,,0,1.928018963,#f3af84,"[""0"",""0.25""]",down_orange.png,down,,,,,,,,left,left_blue.png,down_orange.png,down,right,up,60fd6a2e013bff4b729c6dec,2021-09-08_11h21.26.509,arrow_simon_vert,2021.1.2,Win32,59.78715772,,,,,,,,,,,,,,,,,,,,,down,1,1.561,6,FALSE,FALSE,1,1,5,3,1,,,,,,,
,,,,,,0,1.671800572,#a3d0fb,"[""-0.25"",""0""]",left_blue.png,left,,,,,,,,left,left_blue.png,down_orange.png,down,left,down,60fd6a2e013bff4b729c6dec,2021-09-08_11h21.26.509,arrow_simon_vert,2021.1.2,Win32,59.78715772,,,,,,,,,,,,,,,,,,,,,left,1,1.4218,7,FALSE,FALSE,1,2,6,2,1,,,,,,,
,,,,,,0,2.09187178,#f3af84,"[""0"",""-0.25""]",down_orange.png,down,,,,,,,,left,left_blue.png,down_orange.png,down,left,down,60fd6a2e013bff4b729c6dec,2021-09-08_11h21.26.509,arrow_simon_vert,2021.1.2,Win32,59.78715772,,,,,,,,,,,,,,,,,,,,,down,1,1.5039,8,FALSE,FALSE,1,3,7,2,1,,,,,,,
,,,,,,0,1.99436548,#a3d0fb,"[""-0.25"",""0""]",left_blue.png,left,,,,,,,,left,left_blue.png,down_orange.png,down,left,down,60fd6a2e013bff4b729c6dec,2021-09-08_11h21.26.509,arrow_simon_vert,2021.1.2,Win32,59.78715772,,,,,,,,,,,,,,,,,,,,,left,1,1.4678,9,FALSE,FALSE,2,0,8,2,1,,,,,,,
,,,,,,0,2.249460902,#f3af84,"[""0"",""0.25""]",up_orange.png,up,,,,,,,,right,right_blue.png,up_orange.png,up,right,up,60fd6a2e013bff4b729c6dec,2021-09-08_11h21.26.509,arrow_simon_vert,2021.1.2,Win32,59.78715772,,,,,,,,,,,,,,,,,,,,,up,1,1.604,10,TRUE,FALSE,2,1,9,1,1,,,,,,,
,,,,,,0,2.30347507,#a3d0fb,"[""0.25"",""0""]",right_blue.png,right,,,,,,,,right,right_blue.png,up_orange.png,up,right,up,60fd6a2e013bff4b729c6dec,2021-09-08_11h21.26.509,arrow_simon_vert,2021.1.2,Win32,59.78715772,,,,,,,,,,,,,,,,,,,,,right,1,1.513,11,FALSE,FALSE,2,2,10,1,1,,,,,,,
,,,,,,0,2.347449087,#f3af84,"[""0"",""0.25""]",up_orange.png,up,,,,,,,,right,right_blue.png,up_orange.png,up,right,up,60fd6a2e013bff4b729c6dec,2021-09-08_11h21.26.509,arrow_simon_vert,2021.1.2,Win32,59.78715772,,,,,,,,,,,,,,,,,,,,,up,1,1.7206,12,TRUE,FALSE,2,3,11,1,1,,,,,,,
,,,,,,0,2.191016586,#a3d0fb,"[""-0.25"",""0""]",right_blue.png,right,,,,,,,,right,right_blue.png,up_orange.png,up,left,down,60fd6a2e013bff4b729c6dec,2021-09-08_11h21.26.509,arrow_simon_vert,2021.1.2,Win32,59.78715772,,,,,,,,,,,,,,,,,,,,,left,0,1.7036,13,TRUE,FALSE,3,0,12,0,1,,,,,,,
,,,,,,1,2.06094568,#f3af84,"[""0"",""0.25""]",down_orange.png,down,,,,,,,,left,left_blue.png,down_orange.png,down,right,up,60fd6a2e013bff4b729c6dec,2021-09-08_11h21.26.509,arrow_simon_vert,2021.1.2,Win32,59.78715772,,,,,,,,,,,,,,,,,,,,,up,0,1.5349,14,FALSE,FALSE,3,1,13,3,1,,,,,,,
,,,,,,0,1.55061128,#a3d0fb,"[""-0.25"",""0""]",left_blue.png,left,,,,,,,,left,left_blue.png,down_orange.png,down,left,down,60fd6a2e013bff4b729c6dec,2021-09-08_11h21.26.509,arrow_simon_vert,2021.1.2,Win32,59.78715772,,,,,,,,,,,,,,,,,,,,,left,1,1.4566,15,FALSE,FALSE,3,2,14,2,1,,,,,,,
