instruct_resp_simon.keys,instruct_resp_simon.corr,instruct_resp_simon.rt,trial_resp_simon.keys,trial_resp_simon.corr,trial_resp_simon.rt,kerr,target_onset,target_color,target_pos,target_file,target_resp,trials_train_simon.thisRepN,trials_train_simon.thisTrialN,trials_train_simon.thisN,trials_train_simon.thisIndex,trials_train_simon.ran,odd_target_pos,even_target_pos,odd_target_resp,odd_target_file,even_target_file,even_target_resp,odd_target_side,even_target_side,participant,date,expName,psychopyVersion,OS,frameRate,train_block_note_resp.keys,train_block_note_resp.rt,blocks_train.thisRepN,blocks_train.thisTrialN,blocks_train.thisN,blocks_train.thisIndex,blocks_train.ran,instruct_resp_timing.keys,instruct_resp_timing.corr,instruct_resp_timing.rt,trial_resp_timing.keys,trial_resp_timing.rt,trials_train_timing.thisRepN,trials_train_timing.thisTrialN,trials_train_timing.thisN,trials_train_timing.thisIndex,trials_train_timing.ran,instruct_resp.keys,instruct_resp.corr,instruct_resp.rt,trial_resp.keys,trial_resp.corr,trial_resp.rt,trial_num,too_slow,too_soon,trials.thisRepN,trials.thisTrialN,trials.thisN,trials.thisIndex,trials.ran,block_note_resp.keys,block_note_resp.rt,blocks.thisRepN,blocks.thisTrialN,blocks.thisN,blocks.thisIndex,blocks.ran
space,0,113.6263,up,0,2.374700001,1,0.747268962,#a3d0fb,"[""-0.25"",""0""]",left_blue.png,left,0,0,0,2,1,,,left,left_blue.png,down_orange.png,down,left,down,6104a21eb93f2042e3d2a2bd,2021-09-11_14h43.02.022,arrow_simon_vert,2021.1.2,Win32,60.46314771,,,,,,,,,,,,,,,,,,,,,,,,,,,,,,,,,,,,,,
,,,up,1,1.685300001,0,0.274734191,#f3af84,"[""0"",""0.25""]",up_orange.png,up,0,1,1,1,1,,,right,right_blue.png,up_orange.png,up,right,up,6104a21eb93f2042e3d2a2bd,2021-09-11_14h43.02.022,arrow_simon_vert,2021.1.2,Win32,60.46314771,,,,,,,,,,,,,,,,,,,,,,,,,,,,,,,,,,,,,,
,,,left,1,2.9166,0,0.637360601,#a3d0fb,"[""0.25"",""0""]",left_blue.png,left,0,2,2,3,1,,,left,left_blue.png,down_orange.png,down,right,up,6104a21eb93f2042e3d2a2bd,2021-09-11_14h43.02.022,arrow_simon_vert,2021.1.2,Win32,60.46314771,,,,,,,,,,,,,,,,,,,,,,,,,,,,,,,,,,,,,,
,,,down,1,1.611300001,0,0.560067577,#f3af84,"[""0"",""0.25""]",down_orange.png,down,0,3,3,3,1,,,left,left_blue.png,down_orange.png,down,right,up,6104a21eb93f2042e3d2a2bd,2021-09-11_14h43.02.022,arrow_simon_vert,2021.1.2,Win32,60.46314771,,,,,,,,,,,,,,,,,,,,,,,,,,,,,,,,,,,,,,
,,,right,1,0.894299999,0,0.321920985,#a3d0fb,"[""0.25"",""0""]",right_blue.png,right,1,0,4,1,1,,,right,right_blue.png,up_orange.png,up,right,up,6104a21eb93f2042e3d2a2bd,2021-09-11_14h43.02.022,arrow_simon_vert,2021.1.2,Win32,60.46314771,,,,,,,,,,,,,,,,,,,,,,,,,,,,,,,,,,,,,,
,,,down,1,1.4615,0,0.147073484,#f3af84,"[""0"",""0.25""]",down_orange.png,down,1,1,5,3,1,,,left,left_blue.png,down_orange.png,down,right,up,6104a21eb93f2042e3d2a2bd,2021-09-11_14h43.02.022,arrow_simon_vert,2021.1.2,Win32,60.46314771,,,,,,,,,,,,,,,,,,,,,,,,,,,,,,,,,,,,,,
,,,left,1,1.611,0,0.534514884,#a3d0fb,"[""-0.25"",""0""]",left_blue.png,left,1,2,6,2,1,,,left,left_blue.png,down_orange.png,down,left,down,6104a21eb93f2042e3d2a2bd,2021-09-11_14h43.02.022,arrow_simon_vert,2021.1.2,Win32,60.46314771,,,,,,,,,,,,,,,,,,,,,,,,,,,,,,,,,,,,,,
,,,up,1,2.323799999,0,0.92322205,#f3af84,"[""0"",""-0.25""]",up_orange.png,up,1,3,7,0,1,,,right,right_blue.png,up_orange.png,up,left,down,6104a21eb93f2042e3d2a2bd,2021-09-11_14h43.02.022,arrow_simon_vert,2021.1.2,Win32,60.46314771,,,,,,,,,,,,,,,,,,,,,,,,,,,,,,,,,,,,,,
,,,left,1,1.292099998,0,0.473930387,#a3d0fb,"[""-0.25"",""0""]",left_blue.png,left,2,0,8,2,1,,,left,left_blue.png,down_orange.png,down,left,down,6104a21eb93f2042e3d2a2bd,2021-09-11_14h43.02.022,arrow_simon_vert,2021.1.2,Win32,60.46314771,,,,,,,,,,,,,,,,,,,,,,,,,,,,,,,,,,,,,,
,,,down,1,2.4294,0,0.90840525,#f3af84,"[""0"",""-0.25""]",down_orange.png,down,2,1,9,2,1,,,left,left_blue.png,down_orange.png,down,left,down,6104a21eb93f2042e3d2a2bd,2021-09-11_14h43.02.022,arrow_simon_vert,2021.1.2,Win32,60.46314771,,,,,,,,,,,,,,,,,,,,,,,,,,,,,,,,,,,,,,
,,,left,1,1.9119,0,0.371774889,#a3d0fb,"[""0.25"",""0""]",left_blue.png,left,2,2,10,3,1,,,left,left_blue.png,down_orange.png,down,right,up,6104a21eb93f2042e3d2a2bd,2021-09-11_14h43.02.022,arrow_simon_vert,2021.1.2,Win32,60.46314771,,,,,,,,,,,,,,,,,,,,,,,,,,,,,,,,,,,,,,
,,,up,1,1.9961,0,0.625473146,#f3af84,"[""0"",""0.25""]",up_orange.png,up,2,3,11,1,1,,,right,right_blue.png,up_orange.png,up,right,up,6104a21eb93f2042e3d2a2bd,2021-09-11_14h43.02.022,arrow_simon_vert,2021.1.2,Win32,60.46314771,,,,,,,,,,,,,,,,,,,,,,,,,,,,,,,,,,,,,,
,,,right,1,2.1106,0,0.17595724,#a3d0fb,"[""0.25"",""0""]",right_blue.png,right,3,0,12,1,1,,,right,right_blue.png,up_orange.png,up,right,up,6104a21eb93f2042e3d2a2bd,2021-09-11_14h43.02.022,arrow_simon_vert,2021.1.2,Win32,60.46314771,,,,,,,,,,,,,,,,,,,,,,,,,,,,,,,,,,,,,,
,,,down,1,2.090200001,0,0.332120115,#f3af84,"[""0"",""-0.25""]",down_orange.png,down,3,1,13,2,1,,,left,left_blue.png,down_orange.png,down,left,down,6104a21eb93f2042e3d2a2bd,2021-09-11_14h43.02.022,arrow_simon_vert,2021.1.2,Win32,60.46314771,,,,,,,,,,,,,,,,,,,,,,,,,,,,,,,,,,,,,,
,,,right,1,2.0761,0,0.935177996,#a3d0fb,"[""0.25"",""0""]",right_blue.png,right,3,2,14,1,1,,,right,right_blue.png,up_orange.png,up,right,up,6104a21eb93f2042e3d2a2bd,2021-09-11_14h43.02.022,arrow_simon_vert,2021.1.2,Win32,60.46314771,,,,,,,,,,,,,,,,,,,,,,,,,,,,,,,,,,,,,,
,,,down,1,1.4984,0,0.235746555,#f3af84,"[""0"",""-0.25""]",down_orange.png,down,3,3,15,2,1,,,left,left_blue.png,down_orange.png,down,left,down,6104a21eb93f2042e3d2a2bd,2021-09-11_14h43.02.022,arrow_simon_vert,2021.1.2,Win32,60.46314771,,,,,,,,,,,,,,,,,,,,,,,,,,,,,,,,,,,,,,
,,,right,1,2.169300001,0,0.91121667,#a3d0fb,"[""0.25"",""0""]",right_blue.png,right,4,0,16,1,1,,,right,right_blue.png,up_orange.png,up,right,up,6104a21eb93f2042e3d2a2bd,2021-09-11_14h43.02.022,arrow_simon_vert,2021.1.2,Win32,60.46314771,,,,,,,,,,,,,,,,,,,,,,,,,,,,,,,,,,,,,,
,,,down,1,1.641699999,0,0.358923666,#f3af84,"[""0"",""0.25""]",down_orange.png,down,4,1,17,3,1,,,left,left_blue.png,down_orange.png,down,right,up,6104a21eb93f2042e3d2a2bd,2021-09-11_14h43.02.022,arrow_simon_vert,2021.1.2,Win32,60.46314771,,,,,,,,,,,,,,,,,,,,,,,,,,,,,,,,,,,,,,
,,,left,1,1.7875,0,0.532776662,#a3d0fb,"[""-0.25"",""0""]",left_blue.png,left,4,2,18,2,1,,,left,left_blue.png,down_orange.png,down,left,down,6104a21eb93f2042e3d2a2bd,2021-09-11_14h43.02.022,arrow_simon_vert,2021.1.2,Win32,60.46314771,,,,,,,,,,,,,,,,,,,,,,,,,,,,,,,,,,,,,,
,,,up,1,1.310799999,0,0.266311298,#f3af84,"[""0"",""0.25""]",up_orange.png,up,4,3,19,1,1,,,right,right_blue.png,up_orange.png,up,right,up,6104a21eb93f2042e3d2a2bd,2021-09-11_14h43.02.022,arrow_simon_vert,2021.1.2,Win32,60.46314771,,,,,,,,,,,,,,,,,,,,,,,,,,,,,,,,,,,,,,
,,,right,1,1.378700001,0,0.330903011,#a3d0fb,"[""0.25"",""0""]",right_blue.png,right,5,0,20,1,1,,,right,right_blue.png,up_orange.png,up,right,up,6104a21eb93f2042e3d2a2bd,2021-09-11_14h43.02.022,arrow_simon_vert,2021.1.2,Win32,60.46314771,,,,,,,,,,,,,,,,,,,,,,,,,,,,,,,,,,,,,,
,,,up,1,2.152800001,0,0.79338782,#f3af84,"[""0"",""0.25""]",up_orange.png,up,5,1,21,1,1,,,right,right_blue.png,up_orange.png,up,right,up,6104a21eb93f2042e3d2a2bd,2021-09-11_14h43.02.022,arrow_simon_vert,2021.1.2,Win32,60.46314771,,,,,,,,,,,,,,,,,,,,,,,,,,,,,,,,,,,,,,
,,,left,1,1.8121,0,0.518290847,#a3d0fb,"[""-0.25"",""0""]",left_blue.png,left,5,2,22,2,1,,,left,left_blue.png,down_orange.png,down,left,down,6104a21eb93f2042e3d2a2bd,2021-09-11_14h43.02.022,arrow_simon_vert,2021.1.2,Win32,60.46314771,,,,,,,,,,,,,,,,,,,,,,,,,,,,,,,,,,,,,,
,,,up,1,2.047200001,0,0.92000216,#f3af84,"[""0"",""-0.25""]",up_orange.png,up,5,3,23,0,1,,,right,right_blue.png,up_orange.png,up,left,down,6104a21eb93f2042e3d2a2bd,2021-09-11_14h43.02.022,arrow_simon_vert,2021.1.2,Win32,60.46314771,,,,,,,,,,,,,,,,,,,,,,,,,,,,,,,,,,,,,,
,,,right,1,1.744299999,0,0.413398586,#a3d0fb,"[""-0.25"",""0""]",right_blue.png,right,6,0,24,0,1,,,right,right_blue.png,up_orange.png,up,left,down,6104a21eb93f2042e3d2a2bd,2021-09-11_14h43.02.022,arrow_simon_vert,2021.1.2,Win32,60.46314771,,,,,,,,,,,,,,,,,,,,,,,,,,,,,,,,,,,,,,
,,,down,1,1.398200001,0,0.217180197,#f3af84,"[""0"",""-0.25""]",down_orange.png,down,6,1,25,2,1,,,left,left_blue.png,down_orange.png,down,left,down,6104a21eb93f2042e3d2a2bd,2021-09-11_14h43.02.022,arrow_simon_vert,2021.1.2,Win32,60.46314771,,,,,,,,,,,,,,,,,,,,,,,,,,,,,,,,,,,,,,
,,,right,1,1.510700001,0,0.423971205,#a3d0fb,"[""-0.25"",""0""]",right_blue.png,right,6,2,26,0,1,,,right,right_blue.png,up_orange.png,up,left,down,6104a21eb93f2042e3d2a2bd,2021-09-11_14h43.02.022,arrow_simon_vert,2021.1.2,Win32,60.46314771,,,,,,,,,,,,,,,,,,,,,,,,,,,,,,,,,,,,,,
,,,up,1,2.046400002,0,0.964564756,#f3af84,"[""0"",""-0.25""]",up_orange.png,up,6,3,27,0,1,,,right,right_blue.png,up_orange.png,up,left,down,6104a21eb93f2042e3d2a2bd,2021-09-11_14h43.02.022,arrow_simon_vert,2021.1.2,Win32,60.46314771,,,,,,,,,,,,,,,,,,,,,,,,,,,,,,,,,,,,,,
,,,right,1,1.5175,0,0.369849954,#a3d0fb,"[""-0.25"",""0""]",right_blue.png,right,7,0,28,0,1,,,right,right_blue.png,up_orange.png,up,left,down,6104a21eb93f2042e3d2a2bd,2021-09-11_14h43.02.022,arrow_simon_vert,2021.1.2,Win32,60.46314771,,,,,,,,,,,,,,,,,,,,,,,,,,,,,,,,,,,,,,
,,,down,1,1.693699999,0,0.409048054,#f3af84,"[""0"",""0.25""]",down_orange.png,down,7,1,29,3,1,,,left,left_blue.png,down_orange.png,down,right,up,6104a21eb93f2042e3d2a2bd,2021-09-11_14h43.02.022,arrow_simon_vert,2021.1.2,Win32,60.46314771,,,,,,,,,,,,,,,,,,,,,,,,,,,,,,,,,,,,,,
,,,left,1,1.4176,0,0.444653677,#a3d0fb,"[""-0.25"",""0""]",left_blue.png,left,7,2,30,2,1,,,left,left_blue.png,down_orange.png,down,left,down,6104a21eb93f2042e3d2a2bd,2021-09-11_14h43.02.022,arrow_simon_vert,2021.1.2,Win32,60.46314771,,,,,,,,,,,,,,,,,,,,,,,,,,,,,,,,,,,,,,
,,,up,1,1.6189,0,0.462304329,#f3af84,"[""0"",""-0.25""]",up_orange.png,up,7,3,31,0,1,,,right,right_blue.png,up_orange.png,up,left,down,6104a21eb93f2042e3d2a2bd,2021-09-11_14h43.02.022,arrow_simon_vert,2021.1.2,Win32,60.46314771,,,,,,,,,,,,,,,,,,,,,,,,,,,,,,,,,,,,,,
,,,right,1,1.352599998,0,0.061276883,#a3d0fb,"[""0.25"",""0""]",right_blue.png,right,8,0,32,1,1,,,right,right_blue.png,up_orange.png,up,right,up,6104a21eb93f2042e3d2a2bd,2021-09-11_14h43.02.022,arrow_simon_vert,2021.1.2,Win32,60.46314771,,,,,,,,,,,,,,,,,,,,,,,,,,,,,,,,,,,,,,
,,,up,1,1.196099998,0,0.093009911,#f3af84,"[""0"",""-0.25""]",up_orange.png,up,8,1,33,0,1,,,right,right_blue.png,up_orange.png,up,left,down,6104a21eb93f2042e3d2a2bd,2021-09-11_14h43.02.022,arrow_simon_vert,2021.1.2,Win32,60.46314771,,,,,,,,,,,,,,,,,,,,,,,,,,,,,,,,,,,,,,
,,,left,1,1.469200001,0,0.517248773,#a3d0fb,"[""0.25"",""0""]",left_blue.png,left,8,2,34,3,1,,,left,left_blue.png,down_orange.png,down,right,up,6104a21eb93f2042e3d2a2bd,2021-09-11_14h43.02.022,arrow_simon_vert,2021.1.2,Win32,60.46314771,,,,,,,,,,,,,,,,,,,,,,,,,,,,,,,,,,,,,,
,,,up,1,1.397699999,0,0.467241297,#f3af84,"[""0"",""-0.25""]",up_orange.png,up,8,3,35,0,1,,,right,right_blue.png,up_orange.png,up,left,down,6104a21eb93f2042e3d2a2bd,2021-09-11_14h43.02.022,arrow_simon_vert,2021.1.2,Win32,60.46314771,,,,,,,,,,,,,,,,,,,,,,,,,,,,,,,,,,,,,,
,,,left,1,1.7154,0,0.677459249,#a3d0fb,"[""-0.25"",""0""]",left_blue.png,left,9,0,36,2,1,,,left,left_blue.png,down_orange.png,down,left,down,6104a21eb93f2042e3d2a2bd,2021-09-11_14h43.02.022,arrow_simon_vert,2021.1.2,Win32,60.46314771,,,,,,,,,,,,,,,,,,,,,,,,,,,,,,,,,,,,,,
,,,up,1,1.864,0,0.758488853,#f3af84,"[""0"",""-0.25""]",up_orange.png,up,9,1,37,0,1,,,right,right_blue.png,up_orange.png,up,left,down,6104a21eb93f2042e3d2a2bd,2021-09-11_14h43.02.022,arrow_simon_vert,2021.1.2,Win32,60.46314771,,,,,,,,,,,,,,,,,,,,,,,,,,,,,,,,,,,,,,
,,,left,1,1.203199999,0,0.084579338,#a3d0fb,"[""-0.25"",""0""]",left_blue.png,left,9,2,38,2,1,,,left,left_blue.png,down_orange.png,down,left,down,6104a21eb93f2042e3d2a2bd,2021-09-11_14h43.02.022,arrow_simon_vert,2021.1.2,Win32,60.46314771,,,,,,,,,,,,,,,,,,,,,,,,,,,,,,,,,,,,,,
,,,up,1,1.096700001,0,0.241912601,#f3af84,"[""0"",""-0.25""]",up_orange.png,up,9,3,39,0,1,,,right,right_blue.png,up_orange.png,up,left,down,6104a21eb93f2042e3d2a2bd,2021-09-11_14h43.02.022,arrow_simon_vert,2021.1.2,Win32,60.46314771,,,,,,,,,,,,,,,,,,,,,,,,,,,,,,,,,,,,,,
,,,right,1,1.6469,0,0.354325695,#a3d0fb,"[""-0.25"",""0""]",right_blue.png,right,10,0,40,0,1,,,right,right_blue.png,up_orange.png,up,left,down,6104a21eb93f2042e3d2a2bd,2021-09-11_14h43.02.022,arrow_simon_vert,2021.1.2,Win32,60.46314771,,,,,,,,,,,,,,,,,,,,,,,,,,,,,,,,,,,,,,
,,,up,1,2.140299999,0,0.944959146,#f3af84,"[""0"",""0.25""]",up_orange.png,up,10,1,41,1,1,,,right,right_blue.png,up_orange.png,up,right,up,6104a21eb93f2042e3d2a2bd,2021-09-11_14h43.02.022,arrow_simon_vert,2021.1.2,Win32,60.46314771,,,,,,,,,,,,,,,,,,,,,,,,,,,,,,,,,,,,,,
,,,right,1,1.7771,0,0.662191171,#a3d0fb,"[""0.25"",""0""]",right_blue.png,right,10,2,42,1,1,,,right,right_blue.png,up_orange.png,up,right,up,6104a21eb93f2042e3d2a2bd,2021-09-11_14h43.02.022,arrow_simon_vert,2021.1.2,Win32,60.46314771,,,,,,,,,,,,,,,,,,,,,,,,,,,,,,,,,,,,,,
,,,up,1,1.225700001,0,0.06610181,#f3af84,"[""0"",""0.25""]",up_orange.png,up,10,3,43,1,1,,,right,right_blue.png,up_orange.png,up,right,up,6104a21eb93f2042e3d2a2bd,2021-09-11_14h43.02.022,arrow_simon_vert,2021.1.2,Win32,60.46314771,,,,,,,,,,,,,,,,,,,,,,,,,,,,,,,,,,,,,,
,,,right,1,1.928,0,0.614430901,#a3d0fb,"[""-0.25"",""0""]",right_blue.png,right,11,0,44,0,1,,,right,right_blue.png,up_orange.png,up,left,down,6104a21eb93f2042e3d2a2bd,2021-09-11_14h43.02.022,arrow_simon_vert,2021.1.2,Win32,60.46314771,,,,,,,,,,,,,,,,,,,,,,,,,,,,,,,,,,,,,,
,,,up,1,1.682800001,0,0.662489631,#f3af84,"[""0"",""-0.25""]",up_orange.png,up,11,1,45,0,1,,,right,right_blue.png,up_orange.png,up,left,down,6104a21eb93f2042e3d2a2bd,2021-09-11_14h43.02.022,arrow_simon_vert,2021.1.2,Win32,60.46314771,,,,,,,,,,,,,,,,,,,,,,,,,,,,,,,,,,,,,,
,,,left,1,1.9466,0,0.925821732,#a3d0fb,"[""-0.25"",""0""]",left_blue.png,left,11,2,46,2,1,,,left,left_blue.png,down_orange.png,down,left,down,6104a21eb93f2042e3d2a2bd,2021-09-11_14h43.02.022,arrow_simon_vert,2021.1.2,Win32,60.46314771,,,,,,,,,,,,,,,,,,,,,,,,,,,,,,,,,,,,,,
,,,down,1,1.6989,0,0.566664779,#f3af84,"[""0"",""0.25""]",down_orange.png,down,11,3,47,3,1,,,left,left_blue.png,down_orange.png,down,right,up,6104a21eb93f2042e3d2a2bd,2021-09-11_14h43.02.022,arrow_simon_vert,2021.1.2,Win32,60.46314771,,,,,,,,,,,,,,,,,,,,,,,,,,,,,,,,,,,,,,
,,,left,1,1.2609,0,0.279424543,#a3d0fb,"[""-0.25"",""0""]",left_blue.png,left,12,0,48,2,1,,,left,left_blue.png,down_orange.png,down,left,down,6104a21eb93f2042e3d2a2bd,2021-09-11_14h43.02.022,arrow_simon_vert,2021.1.2,Win32,60.46314771,,,,,,,,,,,,,,,,,,,,,,,,,,,,,,,,,,,,,,
,,,up,1,2.0629,0,0.922411335,#f3af84,"[""0"",""-0.25""]",up_orange.png,up,12,1,49,0,1,,,right,right_blue.png,up_orange.png,up,left,down,6104a21eb93f2042e3d2a2bd,2021-09-11_14h43.02.022,arrow_simon_vert,2021.1.2,Win32,60.46314771,,,,,,,,,,,,,,,,,,,,,,,,,,,,,,,,,,,,,,
,,,right,1,1.8659,0,0.681337865,#a3d0fb,"[""0.25"",""0""]",right_blue.png,right,12,2,50,1,1,,,right,right_blue.png,up_orange.png,up,right,up,6104a21eb93f2042e3d2a2bd,2021-09-11_14h43.02.022,arrow_simon_vert,2021.1.2,Win32,60.46314771,,,,,,,,,,,,,,,,,,,,,,,,,,,,,,,,,,,,,,
,,,down,1,1.996,0,0.64403863,#f3af84,"[""0"",""-0.25""]",down_orange.png,down,12,3,51,2,1,,,left,left_blue.png,down_orange.png,down,left,down,6104a21eb93f2042e3d2a2bd,2021-09-11_14h43.02.022,arrow_simon_vert,2021.1.2,Win32,60.46314771,,,,,,,,,,,,,,,,,,,,,,,,,,,,,,,,,,,,,,
,,,left,1,1.3995,0,0.201670368,#a3d0fb,"[""0.25"",""0""]",left_blue.png,left,13,0,52,3,1,,,left,left_blue.png,down_orange.png,down,right,up,6104a21eb93f2042e3d2a2bd,2021-09-11_14h43.02.022,arrow_simon_vert,2021.1.2,Win32,60.46314771,,,,,,,,,,,,,,,,,,,,,,,,,,,,,,,,,,,,,,
,,,down,1,1.766700001,0,0.390661213,#f3af84,"[""0"",""0.25""]",down_orange.png,down,13,1,53,3,1,,,left,left_blue.png,down_orange.png,down,right,up,6104a21eb93f2042e3d2a2bd,2021-09-11_14h43.02.022,arrow_simon_vert,2021.1.2,Win32,60.46314771,,,,,,,,,,,,,,,,,,,,,,,,,,,,,,,,,,,,,,
,,,left,1,1.6945,0,0.686701114,#a3d0fb,"[""0.25"",""0""]",left_blue.png,left,13,2,54,3,1,,,left,left_blue.png,down_orange.png,down,right,up,6104a21eb93f2042e3d2a2bd,2021-09-11_14h43.02.022,arrow_simon_vert,2021.1.2,Win32,60.46314771,,,,,,,,,,,,,,,,,,,,,,,,,,,,,,,,,,,,,,
,,,down,1,2.1106,0,0.999948765,#f3af84,"[""0"",""0.25""]",down_orange.png,down,13,3,55,3,1,,,left,left_blue.png,down_orange.png,down,right,up,6104a21eb93f2042e3d2a2bd,2021-09-11_14h43.02.022,arrow_simon_vert,2021.1.2,Win32,60.46314771,,,,,,,,,,,,,,,,,,,,,,,,,,,,,,,,,,,,,,
,,,left,1,1.274400002,0,0.358858712,#a3d0fb,"[""0.25"",""0""]",left_blue.png,left,14,0,56,3,1,,,left,left_blue.png,down_orange.png,down,right,up,6104a21eb93f2042e3d2a2bd,2021-09-11_14h43.02.022,arrow_simon_vert,2021.1.2,Win32,60.46314771,,,,,,,,,,,,,,,,,,,,,,,,,,,,,,,,,,,,,,
,,,down,1,1.3305,0,0.267882838,#f3af84,"[""0"",""0.25""]",down_orange.png,down,14,1,57,3,1,,,left,left_blue.png,down_orange.png,down,right,up,6104a21eb93f2042e3d2a2bd,2021-09-11_14h43.02.022,arrow_simon_vert,2021.1.2,Win32,60.46314771,,,,,,,,,,,,,,,,,,,,,,,,,,,,,,,,,,,,,,
,,,right,1,1.254799999,0,0.375194866,#a3d0fb,"[""0.25"",""0""]",right_blue.png,right,14,2,58,1,1,,,right,right_blue.png,up_orange.png,up,right,up,6104a21eb93f2042e3d2a2bd,2021-09-11_14h43.02.022,arrow_simon_vert,2021.1.2,Win32,60.46314771,,,,,,,,,,,,,,,,,,,,,,,,,,,,,,,,,,,,,,
,,,down,1,1.7675,0,0.601507924,#f3af84,"[""0"",""0.25""]",down_orange.png,down,14,3,59,3,1,,,left,left_blue.png,down_orange.png,down,right,up,6104a21eb93f2042e3d2a2bd,2021-09-11_14h43.02.022,arrow_simon_vert,2021.1.2,Win32,60.46314771,,,,,,,,,,,,,,,,,,,,,,,,,,,,,,,,,,,,,,
,,,,,,,,,,,,,,,,,,,,,,,,,6104a21eb93f2042e3d2a2bd,2021-09-11_14h43.02.022,arrow_simon_vert,2021.1.2,Win32,60.46314771,space,49.0424,0,0,0,0,1,,,,,,,,,,,,,,,,,,,,,,,,,,,,,,,
,,,left,1,1.3199,0,0.213850562,#a3d0fb,"[""-0.25"",""0""]",left_blue.png,left,0,0,0,2,1,,,left,left_blue.png,down_orange.png,down,left,down,6104a21eb93f2042e3d2a2bd,2021-09-11_14h43.02.022,arrow_simon_vert,2021.1.2,Win32,60.46314771,,,,,,,,,,,,,,,,,,,,,,,,,,,,,,,,,,,,,,
,,,down,1,1.5964,0,0.54892282,#f3af84,"[""0"",""-0.25""]",down_orange.png,down,0,1,1,2,1,,,left,left_blue.png,down_orange.png,down,left,down,6104a21eb93f2042e3d2a2bd,2021-09-11_14h43.02.022,arrow_simon_vert,2021.1.2,Win32,60.46314771,,,,,,,,,,,,,,,,,,,,,,,,,,,,,,,,,,,,,,
,,,right,1,1.1761,0,0.342984952,#a3d0fb,"[""0.25"",""0""]",right_blue.png,right,0,2,2,1,1,,,right,right_blue.png,up_orange.png,up,right,up,6104a21eb93f2042e3d2a2bd,2021-09-11_14h43.02.022,arrow_simon_vert,2021.1.2,Win32,60.46314771,,,,,,,,,,,,,,,,,,,,,,,,,,,,,,,,,,,,,,
,,,down,1,1.079,0,0.054491163,#f3af84,"[""0"",""0.25""]",down_orange.png,down,0,3,3,3,1,,,left,left_blue.png,down_orange.png,down,right,up,6104a21eb93f2042e3d2a2bd,2021-09-11_14h43.02.022,arrow_simon_vert,2021.1.2,Win32,60.46314771,,,,,,,,,,,,,,,,,,,,,,,,,,,,,,,,,,,,,,
,,,left,1,1.419,0,0.555646698,#a3d0fb,"[""0.25"",""0""]",left_blue.png,left,1,0,4,3,1,,,left,left_blue.png,down_orange.png,down,right,up,6104a21eb93f2042e3d2a2bd,2021-09-11_14h43.02.022,arrow_simon_vert,2021.1.2,Win32,60.46314771,,,,,,,,,,,,,,,,,,,,,,,,,,,,,,,,,,,,,,
,,,up,1,1.246799999,0,0.368461643,#f3af84,"[""0"",""0.25""]",up_orange.png,up,1,1,5,1,1,,,right,right_blue.png,up_orange.png,up,right,up,6104a21eb93f2042e3d2a2bd,2021-09-11_14h43.02.022,arrow_simon_vert,2021.1.2,Win32,60.46314771,,,,,,,,,,,,,,,,,,,,,,,,,,,,,,,,,,,,,,
,,,left,1,1.820099998,0,0.96633693,#a3d0fb,"[""-0.25"",""0""]",left_blue.png,left,1,2,6,2,1,,,left,left_blue.png,down_orange.png,down,left,down,6104a21eb93f2042e3d2a2bd,2021-09-11_14h43.02.022,arrow_simon_vert,2021.1.2,Win32,60.46314771,,,,,,,,,,,,,,,,,,,,,,,,,,,,,,,,,,,,,,
,,,down,1,1.7321,0,0.95616189,#f3af84,"[""0"",""-0.25""]",down_orange.png,down,1,3,7,2,1,,,left,left_blue.png,down_orange.png,down,left,down,6104a21eb93f2042e3d2a2bd,2021-09-11_14h43.02.022,arrow_simon_vert,2021.1.2,Win32,60.46314771,,,,,,,,,,,,,,,,,,,,,,,,,,,,,,,,,,,,,,
,,,right,1,1.322700001,0,0.533741264,#a3d0fb,"[""0.25"",""0""]",right_blue.png,right,2,0,8,1,1,,,right,right_blue.png,up_orange.png,up,right,up,6104a21eb93f2042e3d2a2bd,2021-09-11_14h43.02.022,arrow_simon_vert,2021.1.2,Win32,60.46314771,,,,,,,,,,,,,,,,,,,,,,,,,,,,,,,,,,,,,,
,,,down,1,1.530299999,0,0.399561469,#f3af84,"[""0"",""0.25""]",down_orange.png,down,2,1,9,3,1,,,left,left_blue.png,down_orange.png,down,right,up,6104a21eb93f2042e3d2a2bd,2021-09-11_14h43.02.022,arrow_simon_vert,2021.1.2,Win32,60.46314771,,,,,,,,,,,,,,,,,,,,,,,,,,,,,,,,,,,,,,
,,,left,1,1.7249,0,0.865506194,#a3d0fb,"[""0.25"",""0""]",left_blue.png,left,2,2,10,3,1,,,left,left_blue.png,down_orange.png,down,right,up,6104a21eb93f2042e3d2a2bd,2021-09-11_14h43.02.022,arrow_simon_vert,2021.1.2,Win32,60.46314771,,,,,,,,,,,,,,,,,,,,,,,,,,,,,,,,,,,,,,
,,,up,1,1.857,0,0.772274074,#f3af84,"[""0"",""-0.25""]",up_orange.png,up,2,3,11,0,1,,,right,right_blue.png,up_orange.png,up,left,down,6104a21eb93f2042e3d2a2bd,2021-09-11_14h43.02.022,arrow_simon_vert,2021.1.2,Win32,60.46314771,,,,,,,,,,,,,,,,,,,,,,,,,,,,,,,,,,,,,,
,,,right,1,1.771,0,0.454018955,#a3d0fb,"[""-0.25"",""0""]",right_blue.png,right,3,0,12,0,1,,,right,right_blue.png,up_orange.png,up,left,down,6104a21eb93f2042e3d2a2bd,2021-09-11_14h43.02.022,arrow_simon_vert,2021.1.2,Win32,60.46314771,,,,,,,,,,,,,,,,,,,,,,,,,,,,,,,,,,,,,,
,,,down,1,1.1666,0,0.322576789,#f3af84,"[""0"",""0.25""]",down_orange.png,down,3,1,13,3,1,,,left,left_blue.png,down_orange.png,down,right,up,6104a21eb93f2042e3d2a2bd,2021-09-11_14h43.02.022,arrow_simon_vert,2021.1.2,Win32,60.46314771,,,,,,,,,,,,,,,,,,,,,,,,,,,,,,,,,,,,,,
,,,right,1,2.2291,0,0.504114532,#a3d0fb,"[""-0.25"",""0""]",right_blue.png,right,3,2,14,0,1,,,right,right_blue.png,up_orange.png,up,left,down,6104a21eb93f2042e3d2a2bd,2021-09-11_14h43.02.022,arrow_simon_vert,2021.1.2,Win32,60.46314771,,,,,,,,,,,,,,,,,,,,,,,,,,,,,,,,,,,,,,
,,,down,1,1.662299999,0,0.752479167,#f3af84,"[""0"",""0.25""]",down_orange.png,down,3,3,15,3,1,,,left,left_blue.png,down_orange.png,down,right,up,6104a21eb93f2042e3d2a2bd,2021-09-11_14h43.02.022,arrow_simon_vert,2021.1.2,Win32,60.46314771,,,,,,,,,,,,,,,,,,,,,,,,,,,,,,,,,,,,,,
,,,right,1,1.2781,0,0.323813795,#a3d0fb,"[""-0.25"",""0""]",right_blue.png,right,4,0,16,0,1,,,right,right_blue.png,up_orange.png,up,left,down,6104a21eb93f2042e3d2a2bd,2021-09-11_14h43.02.022,arrow_simon_vert,2021.1.2,Win32,60.46314771,,,,,,,,,,,,,,,,,,,,,,,,,,,,,,,,,,,,,,
,,,up,1,2.147699999,0,0.810374708,#f3af84,"[""0"",""-0.25""]",up_orange.png,up,4,1,17,0,1,,,right,right_blue.png,up_orange.png,up,left,down,6104a21eb93f2042e3d2a2bd,2021-09-11_14h43.02.022,arrow_simon_vert,2021.1.2,Win32,60.46314771,,,,,,,,,,,,,,,,,,,,,,,,,,,,,,,,,,,,,,
,,,right,1,1.015599998,0,0.126358717,#a3d0fb,"[""0.25"",""0""]",right_blue.png,right,4,2,18,1,1,,,right,right_blue.png,up_orange.png,up,right,up,6104a21eb93f2042e3d2a2bd,2021-09-11_14h43.02.022,arrow_simon_vert,2021.1.2,Win32,60.46314771,,,,,,,,,,,,,,,,,,,,,,,,,,,,,,,,,,,,,,
,,,up,1,1.4081,0,0.494794402,#f3af84,"[""0"",""-0.25""]",up_orange.png,up,4,3,19,0,1,,,right,right_blue.png,up_orange.png,up,left,down,6104a21eb93f2042e3d2a2bd,2021-09-11_14h43.02.022,arrow_simon_vert,2021.1.2,Win32,60.46314771,,,,,,,,,,,,,,,,,,,,,,,,,,,,,,,,,,,,,,
,,,right,1,0.8761,0,0.06048403,#a3d0fb,"[""0.25"",""0""]",right_blue.png,right,5,0,20,1,1,,,right,right_blue.png,up_orange.png,up,right,up,6104a21eb93f2042e3d2a2bd,2021-09-11_14h43.02.022,arrow_simon_vert,2021.1.2,Win32,60.46314771,,,,,,,,,,,,,,,,,,,,,,,,,,,,,,,,,,,,,,
,,,down,1,1.139,0,0.325607896,#f3af84,"[""0"",""-0.25""]",down_orange.png,down,5,1,21,2,1,,,left,left_blue.png,down_orange.png,down,left,down,6104a21eb93f2042e3d2a2bd,2021-09-11_14h43.02.022,arrow_simon_vert,2021.1.2,Win32,60.46314771,,,,,,,,,,,,,,,,,,,,,,,,,,,,,,,,,,,,,,
,,,left,1,1.499,0,0.693280813,#a3d0fb,"[""-0.25"",""0""]",left_blue.png,left,5,2,22,2,1,,,left,left_blue.png,down_orange.png,down,left,down,6104a21eb93f2042e3d2a2bd,2021-09-11_14h43.02.022,arrow_simon_vert,2021.1.2,Win32,60.46314771,,,,,,,,,,,,,,,,,,,,,,,,,,,,,,,,,,,,,,
,,,up,1,1.8965,0,0.888570154,#f3af84,"[""0"",""-0.25""]",up_orange.png,up,5,3,23,0,1,,,right,right_blue.png,up_orange.png,up,left,down,6104a21eb93f2042e3d2a2bd,2021-09-11_14h43.02.022,arrow_simon_vert,2021.1.2,Win32,60.46314771,,,,,,,,,,,,,,,,,,,,,,,,,,,,,,,,,,,,,,
,,,right,1,2.0675,0,0.934219219,#a3d0fb,"[""-0.25"",""0""]",right_blue.png,right,6,0,24,0,1,,,right,right_blue.png,up_orange.png,up,left,down,6104a21eb93f2042e3d2a2bd,2021-09-11_14h43.02.022,arrow_simon_vert,2021.1.2,Win32,60.46314771,,,,,,,,,,,,,,,,,,,,,,,,,,,,,,,,,,,,,,
,,,up,1,1.748699999,0,0.71586806,#f3af84,"[""0"",""0.25""]",up_orange.png,up,6,1,25,1,1,,,right,right_blue.png,up_orange.png,up,right,up,6104a21eb93f2042e3d2a2bd,2021-09-11_14h43.02.022,arrow_simon_vert,2021.1.2,Win32,60.46314771,,,,,,,,,,,,,,,,,,,,,,,,,,,,,,,,,,,,,,
,,,right,1,1.5974,0,0.816869538,#a3d0fb,"[""0.25"",""0""]",right_blue.png,right,6,2,26,1,1,,,right,right_blue.png,up_orange.png,up,right,up,6104a21eb93f2042e3d2a2bd,2021-09-11_14h43.02.022,arrow_simon_vert,2021.1.2,Win32,60.46314771,,,,,,,,,,,,,,,,,,,,,,,,,,,,,,,,,,,,,,
,,,up,1,1.800299999,0,0.782113314,#f3af84,"[""0"",""0.25""]",up_orange.png,up,6,3,27,1,1,,,right,right_blue.png,up_orange.png,up,right,up,6104a21eb93f2042e3d2a2bd,2021-09-11_14h43.02.022,arrow_simon_vert,2021.1.2,Win32,60.46314771,,,,,,,,,,,,,,,,,,,,,,,,,,,,,,,,,,,,,,
,,,left,1,1.5835,0,0.775744147,#a3d0fb,"[""-0.25"",""0""]",left_blue.png,left,7,0,28,2,1,,,left,left_blue.png,down_orange.png,down,left,down,6104a21eb93f2042e3d2a2bd,2021-09-11_14h43.02.022,arrow_simon_vert,2021.1.2,Win32,60.46314771,,,,,,,,,,,,,,,,,,,,,,,,,,,,,,,,,,,,,,
,,,up,1,1.674,0,0.795587558,#f3af84,"[""0"",""0.25""]",up_orange.png,up,7,1,29,1,1,,,right,right_blue.png,up_orange.png,up,right,up,6104a21eb93f2042e3d2a2bd,2021-09-11_14h43.02.022,arrow_simon_vert,2021.1.2,Win32,60.46314771,,,,,,,,,,,,,,,,,,,,,,,,,,,,,,,,,,,,,,
,,,right,1,1.414400002,0,0.094984757,#a3d0fb,"[""-0.25"",""0""]",right_blue.png,right,7,2,30,0,1,,,right,right_blue.png,up_orange.png,up,left,down,6104a21eb93f2042e3d2a2bd,2021-09-11_14h43.02.022,arrow_simon_vert,2021.1.2,Win32,60.46314771,,,,,,,,,,,,,,,,,,,,,,,,,,,,,,,,,,,,,,
,,,down,1,1.7164,0,0.358406415,#f3af84,"[""0"",""0.25""]",down_orange.png,down,7,3,31,3,1,,,left,left_blue.png,down_orange.png,down,right,up,6104a21eb93f2042e3d2a2bd,2021-09-11_14h43.02.022,arrow_simon_vert,2021.1.2,Win32,60.46314771,,,,,,,,,,,,,,,,,,,,,,,,,,,,,,,,,,,,,,
,,,right,1,1.168300001,0,0.170857083,#a3d0fb,"[""0.25"",""0""]",right_blue.png,right,8,0,32,1,1,,,right,right_blue.png,up_orange.png,up,right,up,6104a21eb93f2042e3d2a2bd,2021-09-11_14h43.02.022,arrow_simon_vert,2021.1.2,Win32,60.46314771,,,,,,,,,,,,,,,,,,,,,,,,,,,,,,,,,,,,,,
,,,up,1,2.611299999,0,0.877002624,#f3af84,"[""0"",""0.25""]",up_orange.png,up,8,1,33,1,1,,,right,right_blue.png,up_orange.png,up,right,up,6104a21eb93f2042e3d2a2bd,2021-09-11_14h43.02.022,arrow_simon_vert,2021.1.2,Win32,60.46314771,,,,,,,,,,,,,,,,,,,,,,,,,,,,,,,,,,,,,,
,,,left,1,1.662700001,0,0.149748185,#a3d0fb,"[""-0.25"",""0""]",left_blue.png,left,8,2,34,2,1,,,left,left_blue.png,down_orange.png,down,left,down,6104a21eb93f2042e3d2a2bd,2021-09-11_14h43.02.022,arrow_simon_vert,2021.1.2,Win32,60.46314771,,,,,,,,,,,,,,,,,,,,,,,,,,,,,,,,,,,,,,
,,,up,1,1.732300001,0,0.517181169,#f3af84,"[""0"",""-0.25""]",up_orange.png,up,8,3,35,0,1,,,right,right_blue.png,up_orange.png,up,left,down,6104a21eb93f2042e3d2a2bd,2021-09-11_14h43.02.022,arrow_simon_vert,2021.1.2,Win32,60.46314771,,,,,,,,,,,,,,,,,,,,,,,,,,,,,,,,,,,,,,
,,,right,1,1.887900002,0,0.850751038,#a3d0fb,"[""0.25"",""0""]",right_blue.png,right,9,0,36,1,1,,,right,right_blue.png,up_orange.png,up,right,up,6104a21eb93f2042e3d2a2bd,2021-09-11_14h43.02.022,arrow_simon_vert,2021.1.2,Win32,60.46314771,,,,,,,,,,,,,,,,,,,,,,,,,,,,,,,,,,,,,,
,,,up,1,1.3966,0,0.462841671,#f3af84,"[""0"",""0.25""]",up_orange.png,up,9,1,37,1,1,,,right,right_blue.png,up_orange.png,up,right,up,6104a21eb93f2042e3d2a2bd,2021-09-11_14h43.02.022,arrow_simon_vert,2021.1.2,Win32,60.46314771,,,,,,,,,,,,,,,,,,,,,,,,,,,,,,,,,,,,,,
,,,left,1,1.210800001,0,0.294369655,#a3d0fb,"[""-0.25"",""0""]",left_blue.png,left,9,2,38,2,1,,,left,left_blue.png,down_orange.png,down,left,down,6104a21eb93f2042e3d2a2bd,2021-09-11_14h43.02.022,arrow_simon_vert,2021.1.2,Win32,60.46314771,,,,,,,,,,,,,,,,,,,,,,,,,,,,,,,,,,,,,,
,,,down,1,2.7245,0,0.908931493,#f3af84,"[""0"",""0.25""]",down_orange.png,down,9,3,39,3,1,,,left,left_blue.png,down_orange.png,down,right,up,6104a21eb93f2042e3d2a2bd,2021-09-11_14h43.02.022,arrow_simon_vert,2021.1.2,Win32,60.46314771,,,,,,,,,,,,,,,,,,,,,,,,,,,,,,,,,,,,,,
,,,right,1,0.749099998,0,0.08786147,#a3d0fb,"[""0.25"",""0""]",right_blue.png,right,10,0,40,1,1,,,right,right_blue.png,up_orange.png,up,right,up,6104a21eb93f2042e3d2a2bd,2021-09-11_14h43.02.022,arrow_simon_vert,2021.1.2,Win32,60.46314771,,,,,,,,,,,,,,,,,,,,,,,,,,,,,,,,,,,,,,
,,,down,1,1.0074,0,0.123839695,#f3af84,"[""0"",""0.25""]",down_orange.png,down,10,1,41,3,1,,,left,left_blue.png,down_orange.png,down,right,up,6104a21eb93f2042e3d2a2bd,2021-09-11_14h43.02.022,arrow_simon_vert,2021.1.2,Win32,60.46314771,,,,,,,,,,,,,,,,,,,,,,,,,,,,,,,,,,,,,,
,,,right,1,1.3479,0,0.08500114,#a3d0fb,"[""-0.25"",""0""]",right_blue.png,right,10,2,42,0,1,,,right,right_blue.png,up_orange.png,up,left,down,6104a21eb93f2042e3d2a2bd,2021-09-11_14h43.02.022,arrow_simon_vert,2021.1.2,Win32,60.46314771,,,,,,,,,,,,,,,,,,,,,,,,,,,,,,,,,,,,,,
,,,down,1,1.311,0,0.544074366,#f3af84,"[""0"",""-0.25""]",down_orange.png,down,10,3,43,2,1,,,left,left_blue.png,down_orange.png,down,left,down,6104a21eb93f2042e3d2a2bd,2021-09-11_14h43.02.022,arrow_simon_vert,2021.1.2,Win32,60.46314771,,,,,,,,,,,,,,,,,,,,,,,,,,,,,,,,,,,,,,
,,,left,1,1.3876,0,0.350926961,#a3d0fb,"[""-0.25"",""0""]",left_blue.png,left,11,0,44,2,1,,,left,left_blue.png,down_orange.png,down,left,down,6104a21eb93f2042e3d2a2bd,2021-09-11_14h43.02.022,arrow_simon_vert,2021.1.2,Win32,60.46314771,,,,,,,,,,,,,,,,,,,,,,,,,,,,,,,,,,,,,,
,,,down,1,1.2819,0,0.339330239,#f3af84,"[""0"",""-0.25""]",down_orange.png,down,11,1,45,2,1,,,left,left_blue.png,down_orange.png,down,left,down,6104a21eb93f2042e3d2a2bd,2021-09-11_14h43.02.022,arrow_simon_vert,2021.1.2,Win32,60.46314771,,,,,,,,,,,,,,,,,,,,,,,,,,,,,,,,,,,,,,
,,,left,1,1.3299,0,0.345710182,#a3d0fb,"[""-0.25"",""0""]",left_blue.png,left,11,2,46,2,1,,,left,left_blue.png,down_orange.png,down,left,down,6104a21eb93f2042e3d2a2bd,2021-09-11_14h43.02.022,arrow_simon_vert,2021.1.2,Win32,60.46314771,,,,,,,,,,,,,,,,,,,,,,,,,,,,,,,,,,,,,,
,,,down,1,1.663799999,0,0.801551885,#f3af84,"[""0"",""-0.25""]",down_orange.png,down,11,3,47,2,1,,,left,left_blue.png,down_orange.png,down,left,down,6104a21eb93f2042e3d2a2bd,2021-09-11_14h43.02.022,arrow_simon_vert,2021.1.2,Win32,60.46314771,,,,,,,,,,,,,,,,,,,,,,,,,,,,,,,,,,,,,,
,,,right,1,1.885,0,0.74468573,#a3d0fb,"[""-0.25"",""0""]",right_blue.png,right,12,0,48,0,1,,,right,right_blue.png,up_orange.png,up,left,down,6104a21eb93f2042e3d2a2bd,2021-09-11_14h43.02.022,arrow_simon_vert,2021.1.2,Win32,60.46314771,,,,,,,,,,,,,,,,,,,,,,,,,,,,,,,,,,,,,,
,,,down,1,1.265,0,0.496212697,#f3af84,"[""0"",""0.25""]",down_orange.png,down,12,1,49,3,1,,,left,left_blue.png,down_orange.png,down,right,up,6104a21eb93f2042e3d2a2bd,2021-09-11_14h43.02.022,arrow_simon_vert,2021.1.2,Win32,60.46314771,,,,,,,,,,,,,,,,,,,,,,,,,,,,,,,,,,,,,,
,,,left,1,1.9461,0,0.946996231,#a3d0fb,"[""0.25"",""0""]",left_blue.png,left,12,2,50,3,1,,,left,left_blue.png,down_orange.png,down,right,up,6104a21eb93f2042e3d2a2bd,2021-09-11_14h43.02.022,arrow_simon_vert,2021.1.2,Win32,60.46314771,,,,,,,,,,,,,,,,,,,,,,,,,,,,,,,,,,,,,,
,,,up,1,2.1116,0,0.721972995,#f3af84,"[""0"",""-0.25""]",up_orange.png,up,12,3,51,0,1,,,right,right_blue.png,up_orange.png,up,left,down,6104a21eb93f2042e3d2a2bd,2021-09-11_14h43.02.022,arrow_simon_vert,2021.1.2,Win32,60.46314771,,,,,,,,,,,,,,,,,,,,,,,,,,,,,,,,,,,,,,
,,,left,1,2.182299999,0,0.929967459,#a3d0fb,"[""0.25"",""0""]",left_blue.png,left,13,0,52,3,1,,,left,left_blue.png,down_orange.png,down,right,up,6104a21eb93f2042e3d2a2bd,2021-09-11_14h43.02.022,arrow_simon_vert,2021.1.2,Win32,60.46314771,,,,,,,,,,,,,,,,,,,,,,,,,,,,,,,,,,,,,,
,,,down,1,1.464900002,0,0.566090231,#f3af84,"[""0"",""0.25""]",down_orange.png,down,13,1,53,3,1,,,left,left_blue.png,down_orange.png,down,right,up,6104a21eb93f2042e3d2a2bd,2021-09-11_14h43.02.022,arrow_simon_vert,2021.1.2,Win32,60.46314771,,,,,,,,,,,,,,,,,,,,,,,,,,,,,,,,,,,,,,
,,,right,1,1.328900002,0,0.469870693,#a3d0fb,"[""0.25"",""0""]",right_blue.png,right,13,2,54,1,1,,,right,right_blue.png,up_orange.png,up,right,up,6104a21eb93f2042e3d2a2bd,2021-09-11_14h43.02.022,arrow_simon_vert,2021.1.2,Win32,60.46314771,,,,,,,,,,,,,,,,,,,,,,,,,,,,,,,,,,,,,,
,,,up,1,1.417,0,0.579389019,#f3af84,"[""0"",""-0.25""]",up_orange.png,up,13,3,55,0,1,,,right,right_blue.png,up_orange.png,up,left,down,6104a21eb93f2042e3d2a2bd,2021-09-11_14h43.02.022,arrow_simon_vert,2021.1.2,Win32,60.46314771,,,,,,,,,,,,,,,,,,,,,,,,,,,,,,,,,,,,,,
,,,left,1,1.3124,0,0.327065234,#a3d0fb,"[""0.25"",""0""]",left_blue.png,left,14,0,56,3,1,,,left,left_blue.png,down_orange.png,down,right,up,6104a21eb93f2042e3d2a2bd,2021-09-11_14h43.02.022,arrow_simon_vert,2021.1.2,Win32,60.46314771,,,,,,,,,,,,,,,,,,,,,,,,,,,,,,,,,,,,,,
,,,down,1,1.567799999,0,0.737024822,#f3af84,"[""0"",""-0.25""]",down_orange.png,down,14,1,57,2,1,,,left,left_blue.png,down_orange.png,down,left,down,6104a21eb93f2042e3d2a2bd,2021-09-11_14h43.02.022,arrow_simon_vert,2021.1.2,Win32,60.46314771,,,,,,,,,,,,,,,,,,,,,,,,,,,,,,,,,,,,,,
,,,left,1,1.684699999,0,0.862485265,#a3d0fb,"[""0.25"",""0""]",left_blue.png,left,14,2,58,3,1,,,left,left_blue.png,down_orange.png,down,right,up,6104a21eb93f2042e3d2a2bd,2021-09-11_14h43.02.022,arrow_simon_vert,2021.1.2,Win32,60.46314771,,,,,,,,,,,,,,,,,,,,,,,,,,,,,,,,,,,,,,
,,,up,1,1.6925,0,0.43737591,#f3af84,"[""0"",""-0.25""]",up_orange.png,up,14,3,59,0,1,,,right,right_blue.png,up_orange.png,up,left,down,6104a21eb93f2042e3d2a2bd,2021-09-11_14h43.02.022,arrow_simon_vert,2021.1.2,Win32,60.46314771,,,,,,,,,,,,,,,,,,,,,,,,,,,,,,,,,,,,,,
,,,,,,,,,,,,,,,,,,,,,,,,,6104a21eb93f2042e3d2a2bd,2021-09-11_14h43.02.022,arrow_simon_vert,2021.1.2,Win32,60.46314771,space,10.6486,1,0,1,0,1,,,,,,,,,,,,,,,,,,,,,,,,,,,,,,,
,,,,,,,,,,,,,,,,,,,,,,,,,6104a21eb93f2042e3d2a2bd,2021-09-11_14h43.02.022,arrow_simon_vert,2021.1.2,Win32,60.46314771,,,,,,,,space,0,134.6187,right,4.1305,0,0,0,0,1,,,,,,,,,,,,,,,,,,,,,
,,,,,,,,,,,,,,,,,,,,,,,,,6104a21eb93f2042e3d2a2bd,2021-09-11_14h43.02.022,arrow_simon_vert,2021.1.2,Win32,60.46314771,,,,,,,,,,,down,3.233800001,1,0,1,0,1,,,,,,,,,,,,,,,,,,,,,
,,,,,,,,,,,,,,,,,,,,,,,,,6104a21eb93f2042e3d2a2bd,2021-09-11_14h43.02.022,arrow_simon_vert,2021.1.2,Win32,60.46314771,,,,,,,,,,,left,2.213,2,0,2,0,1,,,,,,,,,,,,,,,,,,,,,
,,,,,,,,,,,,,,,,,,,,,,,,,6104a21eb93f2042e3d2a2bd,2021-09-11_14h43.02.022,arrow_simon_vert,2021.1.2,Win32,60.46314771,,,,,,,,,,,down,2.9525,3,0,3,0,1,,,,,,,,,,,,,,,,,,,,,
,,,,,,,,,,,,,,,,,,,,,,,,,6104a21eb93f2042e3d2a2bd,2021-09-11_14h43.02.022,arrow_simon_vert,2021.1.2,Win32,60.46314771,,,,,,,,,,,right,2.3941,4,0,4,0,1,,,,,,,,,,,,,,,,,,,,,
,,,,,,,,,,,,,,,,,,,,,,,,,6104a21eb93f2042e3d2a2bd,2021-09-11_14h43.02.022,arrow_simon_vert,2021.1.2,Win32,60.46314771,,,,,,,,,,,up,2.4456,5,0,5,0,1,,,,,,,,,,,,,,,,,,,,,
,,,,,,,,,,,,,,,,,,,,,,,,,6104a21eb93f2042e3d2a2bd,2021-09-11_14h43.02.022,arrow_simon_vert,2021.1.2,Win32,60.46314771,,,,,,,,,,,left,2.1796,6,0,6,0,1,,,,,,,,,,,,,,,,,,,,,
,,,,,,,,,,,,,,,,,,,,,,,,,6104a21eb93f2042e3d2a2bd,2021-09-11_14h43.02.022,arrow_simon_vert,2021.1.2,Win32,60.46314771,,,,,,,,,,,right,2.551200001,7,0,7,0,1,,,,,,,,,,,,,,,,,,,,,
,,,,,,,,,,,,,,,,,,,,,,,,,6104a21eb93f2042e3d2a2bd,2021-09-11_14h43.02.022,arrow_simon_vert,2021.1.2,Win32,60.46314771,,,,,,,,,,,down,2.430200001,8,0,8,0,1,,,,,,,,,,,,,,,,,,,,,
,,,,,,,,,,,,,,,,,,,,,,,,,6104a21eb93f2042e3d2a2bd,2021-09-11_14h43.02.022,arrow_simon_vert,2021.1.2,Win32,60.46314771,,,,,,,,,,,left,2.734599998,9,0,9,0,1,,,,,,,,,,,,,,,,,,,,,
,,,,,,,,,,,,,,,,,,,,,,,,,6104a21eb93f2042e3d2a2bd,2021-09-11_14h43.02.022,arrow_simon_vert,2021.1.2,Win32,60.46314771,,,,,,,,,,,up,2.513800001,10,0,10,0,1,,,,,,,,,,,,,,,,,,,,,
,,,,,,,,,,,,,,,,,,,,,,,,,6104a21eb93f2042e3d2a2bd,2021-09-11_14h43.02.022,arrow_simon_vert,2021.1.2,Win32,60.46314771,,,,,,,,,,,up,2.414200001,11,0,11,0,1,,,,,,,,,,,,,,,,,,,,,
,,,,,,,,,,,,,,,,,,,,,,,,,6104a21eb93f2042e3d2a2bd,2021-09-11_14h43.02.022,arrow_simon_vert,2021.1.2,Win32,60.46314771,,,,,,,,,,,left,2.4629,12,0,12,0,1,,,,,,,,,,,,,,,,,,,,,
,,,,,,,,,,,,,,,,,,,,,,,,,6104a21eb93f2042e3d2a2bd,2021-09-11_14h43.02.022,arrow_simon_vert,2021.1.2,Win32,60.46314771,,,,,,,,,,,up,2.7145,13,0,13,0,1,,,,,,,,,,,,,,,,,,,,,
,,,,,,,,,,,,,,,,,,,,,,,,,6104a21eb93f2042e3d2a2bd,2021-09-11_14h43.02.022,arrow_simon_vert,2021.1.2,Win32,60.46314771,,,,,,,,,,,down,2.528,14,0,14,0,1,,,,,,,,,,,,,,,,,,,,,
,,,,,,,,,,,,,,,,,,,,,,,,,6104a21eb93f2042e3d2a2bd,2021-09-11_14h43.02.022,arrow_simon_vert,2021.1.2,Win32,60.46314771,,,,,,,,,,,up,2.428700001,15,0,15,0,1,,,,,,,,,,,,,,,,,,,,,
,,,,,,,,,,,,,,,,,,,,,,,,,6104a21eb93f2042e3d2a2bd,2021-09-11_14h43.02.022,arrow_simon_vert,2021.1.2,Win32,60.46314771,,,,,,,,,,,left,2.414300001,16,0,16,0,1,,,,,,,,,,,,,,,,,,,,,
,,,,,,,,,,,,,,,,,,,,,,,,,6104a21eb93f2042e3d2a2bd,2021-09-11_14h43.02.022,arrow_simon_vert,2021.1.2,Win32,60.46314771,,,,,,,,,,,down,2.565400002,17,0,17,0,1,,,,,,,,,,,,,,,,,,,,,
,,,,,,,,,,,,,,,,,,,,,,,,,6104a21eb93f2042e3d2a2bd,2021-09-11_14h43.02.022,arrow_simon_vert,2021.1.2,Win32,60.46314771,,,,,,,,,,,right,2.504699999,18,0,18,0,1,,,,,,,,,,,,,,,,,,,,,
,,,,,,,,,,,,,,,,,,,,,,,,,6104a21eb93f2042e3d2a2bd,2021-09-11_14h43.02.022,arrow_simon_vert,2021.1.2,Win32,60.46314771,,,,,,,,,,,up,2.596199999,19,0,19,0,1,,,,,,,,,,,,,,,,,,,,,
,,,,,,,,,,,,,,,,,,,,,,,,,6104a21eb93f2042e3d2a2bd,2021-09-11_14h43.02.022,arrow_simon_vert,2021.1.2,Win32,60.46314771,,,,,,,,,,,left,2.489200001,20,0,20,0,1,,,,,,,,,,,,,,,,,,,,,
,,,,,,,,,,,,,,,,,,,,,,,,,6104a21eb93f2042e3d2a2bd,2021-09-11_14h43.02.022,arrow_simon_vert,2021.1.2,Win32,60.46314771,,,,,,,,,,,down,2.3665,21,0,21,0,1,,,,,,,,,,,,,,,,,,,,,
,,,,,,,,,,,,,,,,,,,,,,,,,6104a21eb93f2042e3d2a2bd,2021-09-11_14h43.02.022,arrow_simon_vert,2021.1.2,Win32,60.46314771,,,,,,,,,,,left,2.4044,22,0,22,0,1,,,,,,,,,,,,,,,,,,,,,
,,,,,,,,,,,,,,,,,,,,,,,,,6104a21eb93f2042e3d2a2bd,2021-09-11_14h43.02.022,arrow_simon_vert,2021.1.2,Win32,60.46314771,,,,,,,,,,,up,2.3475,23,0,23,0,1,,,,,,,,,,,,,,,,,,,,,
,,,,,,,,,,,,,,,,,,,,,,,,,6104a21eb93f2042e3d2a2bd,2021-09-11_14h43.02.022,arrow_simon_vert,2021.1.2,Win32,60.46314771,,,,,,,,,,,left,2.3991,24,0,24,0,1,,,,,,,,,,,,,,,,,,,,,
,,,,,,,,,,,,,,,,,,,,,,,,,6104a21eb93f2042e3d2a2bd,2021-09-11_14h43.02.022,arrow_simon_vert,2021.1.2,Win32,60.46314771,,,,,,,,,,,down,2.402199999,25,0,25,0,1,,,,,,,,,,,,,,,,,,,,,
,,,,,,,,,,,,,,,,,,,,,,,,,6104a21eb93f2042e3d2a2bd,2021-09-11_14h43.02.022,arrow_simon_vert,2021.1.2,Win32,60.46314771,,,,,,,,,,,left,2.407900002,26,0,26,0,1,,,,,,,,,,,,,,,,,,,,,
,,,,,,,,,,,,,,,,,,,,,,,,,6104a21eb93f2042e3d2a2bd,2021-09-11_14h43.02.022,arrow_simon_vert,2021.1.2,Win32,60.46314771,,,,,,,,,,,up,2.296800001,27,0,27,0,1,,,,,,,,,,,,,,,,,,,,,
,,,,,,,,,,,,,,,,,,,,,,,,,6104a21eb93f2042e3d2a2bd,2021-09-11_14h43.02.022,arrow_simon_vert,2021.1.2,Win32,60.46314771,,,,,,,,,,,left,2.435200001,28,0,28,0,1,,,,,,,,,,,,,,,,,,,,,
,,,,,,,,,,,,,,,,,,,,,,,,,6104a21eb93f2042e3d2a2bd,2021-09-11_14h43.02.022,arrow_simon_vert,2021.1.2,Win32,60.46314771,,,,,,,,,,,down,2.5971,29,0,29,0,1,,,,,,,,,,,,,,,,,,,,,
,,,,,,,,,,,,,,,,,,,,,,,,,6104a21eb93f2042e3d2a2bd,2021-09-11_14h43.02.022,arrow_simon_vert,2021.1.2,Win32,60.46314771,,,,,,,,,,,left,2.567,30,0,30,0,1,,,,,,,,,,,,,,,,,,,,,
,,,,,,,,,,,,,,,,,,,,,,,,,6104a21eb93f2042e3d2a2bd,2021-09-11_14h43.02.022,arrow_simon_vert,2021.1.2,Win32,60.46314771,,,,,,,,,,,up,2.5296,31,0,31,0,1,,,,,,,,,,,,,,,,,,,,,
,,,,,,,,,,,,,,,,,,,,,,,,,6104a21eb93f2042e3d2a2bd,2021-09-11_14h43.02.022,arrow_simon_vert,2021.1.2,Win32,60.46314771,,,,,,,,,,,right,2.493200001,32,0,32,0,1,,,,,,,,,,,,,,,,,,,,,
,,,,,,,,,,,,,,,,,,,,,,,,,6104a21eb93f2042e3d2a2bd,2021-09-11_14h43.02.022,arrow_simon_vert,2021.1.2,Win32,60.46314771,,,,,,,,,,,down,2.6236,33,0,33,0,1,,,,,,,,,,,,,,,,,,,,,
,,,,,,,,,,,,,,,,,,,,,,,,,6104a21eb93f2042e3d2a2bd,2021-09-11_14h43.02.022,arrow_simon_vert,2021.1.2,Win32,60.46314771,,,,,,,,,,,left,2.396300001,34,0,34,0,1,,,,,,,,,,,,,,,,,,,,,
,,,,,,,,,,,,,,,,,,,,,,,,,6104a21eb93f2042e3d2a2bd,2021-09-11_14h43.02.022,arrow_simon_vert,2021.1.2,Win32,60.46314771,,,,,,,,,,,up,2.3695,35,0,35,0,1,,,,,,,,,,,,,,,,,,,,,
,,,,,,,,,,,,,,,,,,,,,,,,,6104a21eb93f2042e3d2a2bd,2021-09-11_14h43.02.022,arrow_simon_vert,2021.1.2,Win32,60.46314771,,,,,,,,,,,right,2.3315,36,0,36,0,1,,,,,,,,,,,,,,,,,,,,,
,,,,,,,,,,,,,,,,,,,,,,,,,6104a21eb93f2042e3d2a2bd,2021-09-11_14h43.02.022,arrow_simon_vert,2021.1.2,Win32,60.46314771,,,,,,,,,,,down,2.379300001,37,0,37,0,1,,,,,,,,,,,,,,,,,,,,,
,,,,,,,,,,,,,,,,,,,,,,,,,6104a21eb93f2042e3d2a2bd,2021-09-11_14h43.02.022,arrow_simon_vert,2021.1.2,Win32,60.46314771,,,,,,,,,,,left,2.383099998,38,0,38,0,1,,,,,,,,,,,,,,,,,,,,,
,,,,,,,,,,,,,,,,,,,,,,,,,6104a21eb93f2042e3d2a2bd,2021-09-11_14h43.02.022,arrow_simon_vert,2021.1.2,Win32,60.46314771,,,,,,,,,,,up,2.700799999,39,0,39,0,1,,,,,,,,,,,,,,,,,,,,,
,,,,,,,,,,,,,,,,,,,,,,,,,6104a21eb93f2042e3d2a2bd,2021-09-11_14h43.02.022,arrow_simon_vert,2021.1.2,Win32,60.46314771,,,,,,,,,,,right,2.3801,40,0,40,0,1,,,,,,,,,,,,,,,,,,,,,
,,,,,,,,,,,,,,,,,,,,,,,,,6104a21eb93f2042e3d2a2bd,2021-09-11_14h43.02.022,arrow_simon_vert,2021.1.2,Win32,60.46314771,,,,,,,,,,,down,2.187799999,41,0,41,0,1,,,,,,,,,,,,,,,,,,,,,
,,,,,,,,,,,,,,,,,,,,,,,,,6104a21eb93f2042e3d2a2bd,2021-09-11_14h43.02.022,arrow_simon_vert,2021.1.2,Win32,60.46314771,,,,,,,,,,,left,2.340199999,42,0,42,0,1,,,,,,,,,,,,,,,,,,,,,
,,,,,,,,,,,,,,,,,,,,,,,,,6104a21eb93f2042e3d2a2bd,2021-09-11_14h43.02.022,arrow_simon_vert,2021.1.2,Win32,60.46314771,,,,,,,,,,,down,2.5016,43,0,43,0,1,,,,,,,,,,,,,,,,,,,,,
,,,,,,,,,,,,,,,,,,,,,,,,,6104a21eb93f2042e3d2a2bd,2021-09-11_14h43.02.022,arrow_simon_vert,2021.1.2,Win32,60.46314771,,,,,,,,,,,right,2.530199999,44,0,44,0,1,,,,,,,,,,,,,,,,,,,,,
,,,,,,,,,,,,,,,,,,,,,,,,,6104a21eb93f2042e3d2a2bd,2021-09-11_14h43.02.022,arrow_simon_vert,2021.1.2,Win32,60.46314771,,,,,,,,,,,up,2.439800001,45,0,45,0,1,,,,,,,,,,,,,,,,,,,,,
,,,,,,,,,,,,,,,,,,,,,,,,,6104a21eb93f2042e3d2a2bd,2021-09-11_14h43.02.022,arrow_simon_vert,2021.1.2,Win32,60.46314771,,,,,,,,,,,left,2.3855,46,0,46,0,1,,,,,,,,,,,,,,,,,,,,,
,,,,,,,,,,,,,,,,,,,,,,,,,6104a21eb93f2042e3d2a2bd,2021-09-11_14h43.02.022,arrow_simon_vert,2021.1.2,Win32,60.46314771,,,,,,,,,,,up,2.408199999,47,0,47,0,1,,,,,,,,,,,,,,,,,,,,,
,,,,,,,,,,,,,,,,,,,,,,,,,6104a21eb93f2042e3d2a2bd,2021-09-11_14h43.02.022,arrow_simon_vert,2021.1.2,Win32,60.46314771,,,,,,,,,,,down,2.413,48,0,48,0,1,,,,,,,,,,,,,,,,,,,,,
,,,,,,,,,,,,,,,,,,,,,,,,,6104a21eb93f2042e3d2a2bd,2021-09-11_14h43.02.022,arrow_simon_vert,2021.1.2,Win32,60.46314771,,,,,,,,,,,down,2.2666,49,0,49,0,1,,,,,,,,,,,,,,,,,,,,,
,,,,,,,,,,,,,,,,,,,,,,,,,6104a21eb93f2042e3d2a2bd,2021-09-11_14h43.02.022,arrow_simon_vert,2021.1.2,Win32,60.46314771,,,,,,,,,,,left,2.5825,50,0,50,0,1,,,,,,,,,,,,,,,,,,,,,
,,,,,,,,,,,,,,,,,,,,,,,,,6104a21eb93f2042e3d2a2bd,2021-09-11_14h43.02.022,arrow_simon_vert,2021.1.2,Win32,60.46314771,,,,,,,,,,,up,2.5661,51,0,51,0,1,,,,,,,,,,,,,,,,,,,,,
,,,,,,,,,,,,,,,,,,,,,,,,,6104a21eb93f2042e3d2a2bd,2021-09-11_14h43.02.022,arrow_simon_vert,2021.1.2,Win32,60.46314771,,,,,,,,,,,right,2.4019,52,0,52,0,1,,,,,,,,,,,,,,,,,,,,,
,,,,,,,,,,,,,,,,,,,,,,,,,6104a21eb93f2042e3d2a2bd,2021-09-11_14h43.02.022,arrow_simon_vert,2021.1.2,Win32,60.46314771,,,,,,,,,,,down,2.7471,53,0,53,0,1,,,,,,,,,,,,,,,,,,,,,
,,,,,,,,,,,,,,,,,,,,,,,,,6104a21eb93f2042e3d2a2bd,2021-09-11_14h43.02.022,arrow_simon_vert,2021.1.2,Win32,60.46314771,,,,,,,,,,,left,2.537800001,54,0,54,0,1,,,,,,,,,,,,,,,,,,,,,
,,,,,,,,,,,,,,,,,,,,,,,,,6104a21eb93f2042e3d2a2bd,2021-09-11_14h43.02.022,arrow_simon_vert,2021.1.2,Win32,60.46314771,,,,,,,,,,,up,2.4645,55,0,55,0,1,,,,,,,,,,,,,,,,,,,,,
,,,,,,,,,,,,,,,,,,,,,,,,,6104a21eb93f2042e3d2a2bd,2021-09-11_14h43.02.022,arrow_simon_vert,2021.1.2,Win32,60.46314771,,,,,,,,,,,right,2.49,56,0,56,0,1,,,,,,,,,,,,,,,,,,,,,
,,,,,,,,,,,,,,,,,,,,,,,,,6104a21eb93f2042e3d2a2bd,2021-09-11_14h43.02.022,arrow_simon_vert,2021.1.2,Win32,60.46314771,,,,,,,,,,,down,2.511199999,57,0,57,0,1,,,,,,,,,,,,,,,,,,,,,
,,,,,,,,,,,,,,,,,,,,,,,,,6104a21eb93f2042e3d2a2bd,2021-09-11_14h43.02.022,arrow_simon_vert,2021.1.2,Win32,60.46314771,,,,,,,,,,,left,2.5251,58,0,58,0,1,,,,,,,,,,,,,,,,,,,,,
,,,,,,,,,,,,,,,,,,,,,,,,,6104a21eb93f2042e3d2a2bd,2021-09-11_14h43.02.022,arrow_simon_vert,2021.1.2,Win32,60.46314771,,,,,,,,,,,up,2.4439,59,0,59,0,1,,,,,,,,,,,,,,,,,,,,,
,,,,,,0,1.968121983,#a3d0fb,"[""-0.25"",""0""]",right_blue.png,right,,,,,,,,right,right_blue.png,up_orange.png,up,left,down,6104a21eb93f2042e3d2a2bd,2021-09-11_14h43.02.022,arrow_simon_vert,2021.1.2,Win32,60.46314771,,,,,,,,,,,,,,,,,,space,0,76.6467,right,1,1.6769,1,TRUE,FALSE,0,0,0,0,1,,,,,,,
,,,,,,0,2.259388665,#f3af84,"[""0"",""0.25""]",up_orange.png,up,,,,,,,,right,right_blue.png,up_orange.png,up,right,up,6104a21eb93f2042e3d2a2bd,2021-09-11_14h43.02.022,arrow_simon_vert,2021.1.2,Win32,60.46314771,,,,,,,,,,,,,,,,,,,,,up,1,1.959800001,2,TRUE,FALSE,0,1,1,1,1,,,,,,,
,,,,,,0,1.787317125,#a3d0fb,"[""-0.25"",""0""]",left_blue.png,left,,,,,,,,left,left_blue.png,down_orange.png,down,left,down,6104a21eb93f2042e3d2a2bd,2021-09-11_14h43.02.022,arrow_simon_vert,2021.1.2,Win32,60.46314771,,,,,,,,,,,,,,,,,,,,,left,1,1.268,3,FALSE,TRUE,0,2,2,2,1,,,,,,,
,,,,,,0,2.176899676,#f3af84,"[""0"",""-0.25""]",up_orange.png,up,,,,,,,,right,right_blue.png,up_orange.png,up,left,down,6104a21eb93f2042e3d2a2bd,2021-09-11_14h43.02.022,arrow_simon_vert,2021.1.2,Win32,60.46314771,,,,,,,,,,,,,,,,,,,,,up,1,1.6579,4,TRUE,FALSE,0,3,3,0,1,,,,,,,
,,,,,,0,1.955627017,#a3d0fb,"[""-0.25"",""0""]",left_blue.png,left,,,,,,,,left,left_blue.png,down_orange.png,down,left,down,6104a21eb93f2042e3d2a2bd,2021-09-11_14h43.02.022,arrow_simon_vert,2021.1.2,Win32,60.46314771,,,,,,,,,,,,,,,,,,,,,left,1,1.3071,5,FALSE,TRUE,1,0,4,2,1,,,,,,,
,,,,,,0,2.075208774,#f3af84,"[""0"",""-0.25""]",up_orange.png,up,,,,,,,,right,right_blue.png,up_orange.png,up,left,down,6104a21eb93f2042e3d2a2bd,2021-09-11_14h43.02.022,arrow_simon_vert,2021.1.2,Win32,60.46314771,,,,,,,,,,,,,,,,,,,,,up,1,1.488799999,6,FALSE,FALSE,1,1,5,0,1,,,,,,,
,,,,,,0,1.706545044,#a3d0fb,"[""-0.25"",""0""]",right_blue.png,right,,,,,,,,right,right_blue.png,up_orange.png,up,left,down,6104a21eb93f2042e3d2a2bd,2021-09-11_14h43.02.022,arrow_simon_vert,2021.1.2,Win32,60.46314771,,,,,,,,,,,,,,,,,,,,,left,0,1.169900002,7,FALSE,TRUE,1,2,6,0,1,,,,,,,
,,,,,,0,2.028917145,#f3af84,"[""0"",""-0.25""]",down_orange.png,down,,,,,,,,left,left_blue.png,down_orange.png,down,left,down,6104a21eb93f2042e3d2a2bd,2021-09-11_14h43.02.022,arrow_simon_vert,2021.1.2,Win32,60.46314771,,,,,,,,,,,,,,,,,,,,,down,1,1.437400002,8,FALSE,FALSE,1,3,7,2,1,,,,,,,
,,,,,,0,2.074321698,#a3d0fb,"[""-0.25"",""0""]",left_blue.png,left,,,,,,,,left,left_blue.png,down_orange.png,down,left,down,6104a21eb93f2042e3d2a2bd,2021-09-11_14h43.02.022,arrow_simon_vert,2021.1.2,Win32,60.46314771,,,,,,,,,,,,,,,,,,,,,left,1,1.3454,9,FALSE,TRUE,2,0,8,2,1,,,,,,,
,,,,,,0,2.090126112,#f3af84,"[""0"",""-0.25""]",up_orange.png,up,,,,,,,,right,right_blue.png,up_orange.png,up,left,down,6104a21eb93f2042e3d2a2bd,2021-09-11_14h43.02.022,arrow_simon_vert,2021.1.2,Win32,60.46314771,,,,,,,,,,,,,,,,,,,,,up,1,1.604700001,10,TRUE,FALSE,2,1,9,0,1,,,,,,,
,,,,,,0,1.777916136,#a3d0fb,"[""0.25"",""0""]",left_blue.png,left,,,,,,,,left,left_blue.png,down_orange.png,down,right,up,6104a21eb93f2042e3d2a2bd,2021-09-11_14h43.02.022,arrow_simon_vert,2021.1.2,Win32,60.46314771,,,,,,,,,,,,,,,,,,,,,right,0,1.223199999,11,FALSE,TRUE,2,2,10,3,1,,,,,,,
,,,,,,0,1.767159178,#f3af84,"[""0"",""0.25""]",down_orange.png,down,,,,,,,,left,left_blue.png,down_orange.png,down,right,up,6104a21eb93f2042e3d2a2bd,2021-09-11_14h43.02.022,arrow_simon_vert,2021.1.2,Win32,60.46314771,,,,,,,,,,,,,,,,,,,,,down,1,1.2349,12,FALSE,TRUE,2,3,11,3,1,,,,,,,
,,,,,,0,1.814632104,#a3d0fb,"[""0.25"",""0""]",right_blue.png,right,,,,,,,,right,right_blue.png,up_orange.png,up,right,up,6104a21eb93f2042e3d2a2bd,2021-09-11_14h43.02.022,arrow_simon_vert,2021.1.2,Win32,60.46314771,,,,,,,,,,,,,,,,,,,,,right,1,1.834800001,13,TRUE,FALSE,3,0,12,1,1,,,,,,,
,,,,,,0,2.457694769,#f3af84,"[""0"",""0.25""]",down_orange.png,down,,,,,,,,left,left_blue.png,down_orange.png,down,right,up,6104a21eb93f2042e3d2a2bd,2021-09-11_14h43.02.022,arrow_simon_vert,2021.1.2,Win32,60.46314771,,,,,,,,,,,,,,,,,,,,,down,1,1.9341,14,TRUE,FALSE,3,1,13,3,1,,,,,,,
,,,,,,0,1.615976033,#a3d0fb,"[""0.25"",""0""]",left_blue.png,left,,,,,,,,left,left_blue.png,down_orange.png,down,right,up,6104a21eb93f2042e3d2a2bd,2021-09-11_14h43.02.022,arrow_simon_vert,2021.1.2,Win32,60.46314771,,,,,,,,,,,,,,,,,,,,,left,1,1.2909,15,FALSE,TRUE,3,2,14,3,1,,,,,,,
,,,,,,0,1.980090636,#f3af84,"[""0"",""-0.25""]",down_orange.png,down,,,,,,,,left,left_blue.png,down_orange.png,down,left,down,6104a21eb93f2042e3d2a2bd,2021-09-11_14h43.02.022,arrow_simon_vert,2021.1.2,Win32,60.46314771,,,,,,,,,,,,,,,,,,,,,down,1,1.568200001,16,FALSE,FALSE,3,3,15,2,1,,,,,,,
,,,,,,0,2.391243003,#a3d0fb,"[""0.25"",""0""]",right_blue.png,right,,,,,,,,right,right_blue.png,up_orange.png,up,right,up,6104a21eb93f2042e3d2a2bd,2021-09-11_14h43.02.022,arrow_simon_vert,2021.1.2,Win32,60.46314771,,,,,,,,,,,,,,,,,,,,,right,1,1.8131,17,TRUE,FALSE,4,0,16,1,1,,,,,,,
,,,,,,0,2.229025453,#f3af84,"[""0"",""0.25""]",up_orange.png,up,,,,,,,,right,right_blue.png,up_orange.png,up,right,up,6104a21eb93f2042e3d2a2bd,2021-09-11_14h43.02.022,arrow_simon_vert,2021.1.2,Win32,60.46314771,,,,,,,,,,,,,,,,,,,,,up,1,1.7345,18,TRUE,FALSE,4,1,17,1,1,,,,,,,
,,,,,,0,1.698288575,#a3d0fb,"[""-0.25"",""0""]",left_blue.png,left,,,,,,,,left,left_blue.png,down_orange.png,down,left,down,6104a21eb93f2042e3d2a2bd,2021-09-11_14h43.02.022,arrow_simon_vert,2021.1.2,Win32,60.46314771,,,,,,,,,,,,,,,,,,,,,left,1,1.389699999,19,FALSE,TRUE,4,2,18,2,1,,,,,,,
,,,,,,0,1.587988142,#f3af84,"[""0"",""-0.25""]",up_orange.png,up,,,,,,,,right,right_blue.png,up_orange.png,up,left,down,6104a21eb93f2042e3d2a2bd,2021-09-11_14h43.02.022,arrow_simon_vert,2021.1.2,Win32,60.46314771,,,,,,,,,,,,,,,,,,,,,up,1,1.8679,20,TRUE,FALSE,4,3,19,0,1,,,,,,,
,,,,,,0,2.218717543,#a3d0fb,"[""-0.25"",""0""]",right_blue.png,right,,,,,,,,right,right_blue.png,up_orange.png,up,left,down,6104a21eb93f2042e3d2a2bd,2021-09-11_14h43.02.022,arrow_simon_vert,2021.1.2,Win32,60.46314771,,,,,,,,,,,,,,,,,,,,,left,0,1.711,21,TRUE,FALSE,5,0,20,0,1,,,,,,,
,,,,,,0,1.828979932,#f3af84,"[""0"",""0.25""]",down_orange.png,down,,,,,,,,left,left_blue.png,down_orange.png,down,right,up,6104a21eb93f2042e3d2a2bd,2021-09-11_14h43.02.022,arrow_simon_vert,2021.1.2,Win32,60.46314771,,,,,,,,,,,,,,,,,,,,,down,1,1.669,22,TRUE,FALSE,5,1,21,3,1,,,,,,,
,,,,,,0,2.15286731,#a3d0fb,"[""0.25"",""0""]",left_blue.png,left,,,,,,,,left,left_blue.png,down_orange.png,down,right,up,6104a21eb93f2042e3d2a2bd,2021-09-11_14h43.02.022,arrow_simon_vert,2021.1.2,Win32,60.46314771,,,,,,,,,,,,,,,,,,,,,left,1,1.7355,23,TRUE,FALSE,5,2,22,3,1,,,,,,,
,,,,,,0,2.156910831,#f3af84,"[""0"",""0.25""]",up_orange.png,up,,,,,,,,right,right_blue.png,up_orange.png,up,right,up,6104a21eb93f2042e3d2a2bd,2021-09-11_14h43.02.022,arrow_simon_vert,2021.1.2,Win32,60.46314771,,,,,,,,,,,,,,,,,,,,,up,1,1.675300001,24,TRUE,FALSE,5,3,23,1,1,,,,,,,
,,,,,,0,1.821630585,#a3d0fb,"[""0.25"",""0""]",left_blue.png,left,,,,,,,,left,left_blue.png,down_orange.png,down,right,up,6104a21eb93f2042e3d2a2bd,2021-09-11_14h43.02.022,arrow_simon_vert,2021.1.2,Win32,60.46314771,,,,,,,,,,,,,,,,,,,,,left,1,1.386299999,25,FALSE,TRUE,6,0,24,3,1,,,,,,,
,,,,,,0,2.052563227,#f3af84,"[""0"",""-0.25""]",down_orange.png,down,,,,,,,,left,left_blue.png,down_orange.png,down,left,down,6104a21eb93f2042e3d2a2bd,2021-09-11_14h43.02.022,arrow_simon_vert,2021.1.2,Win32,60.46314771,,,,,,,,,,,,,,,,,,,,,down,1,1.519099998,26,FALSE,FALSE,6,1,25,2,1,,,,,,,
,,,,,,0,2.300126933,#a3d0fb,"[""0.25"",""0""]",right_blue.png,right,,,,,,,,right,right_blue.png,up_orange.png,up,right,up,6104a21eb93f2042e3d2a2bd,2021-09-11_14h43.02.022,arrow_simon_vert,2021.1.2,Win32,60.46314771,,,,,,,,,,,,,,,,,,,,,right,1,1.690300001,27,TRUE,FALSE,6,2,26,1,1,,,,,,,
,,,,,,0,1.85376123,#f3af84,"[""0"",""0.25""]",down_orange.png,down,,,,,,,,left,left_blue.png,down_orange.png,down,right,up,6104a21eb93f2042e3d2a2bd,2021-09-11_14h43.02.022,arrow_simon_vert,2021.1.2,Win32,60.46314771,,,,,,,,,,,,,,,,,,,,,down,1,1.4705,28,FALSE,FALSE,6,3,27,3,1,,,,,,,
,,,,,,0,2.000527278,#a3d0fb,"[""-0.25"",""0""]",left_blue.png,left,,,,,,,,left,left_blue.png,down_orange.png,down,left,down,6104a21eb93f2042e3d2a2bd,2021-09-11_14h43.02.022,arrow_simon_vert,2021.1.2,Win32,60.46314771,,,,,,,,,,,,,,,,,,,,,left,1,1.434900002,29,FALSE,FALSE,7,0,28,2,1,,,,,,,
,,,,,,0,2.03273841,#f3af84,"[""0"",""0.25""]",up_orange.png,up,,,,,,,,right,right_blue.png,up_orange.png,up,right,up,6104a21eb93f2042e3d2a2bd,2021-09-11_14h43.02.022,arrow_simon_vert,2021.1.2,Win32,60.46314771,,,,,,,,,,,,,,,,,,,,,up,1,1.556299999,30,FALSE,FALSE,7,1,29,1,1,,,,,,,
,,,,,,0,1.779375618,#a3d0fb,"[""0.25"",""0""]",left_blue.png,left,,,,,,,,left,left_blue.png,down_orange.png,down,right,up,6104a21eb93f2042e3d2a2bd,2021-09-11_14h43.02.022,arrow_simon_vert,2021.1.2,Win32,60.46314771,,,,,,,,,,,,,,,,,,,,,left,1,1.402799999,31,FALSE,FALSE,7,2,30,3,1,,,,,,,
,,,,,,0,1.62430951,#f3af84,"[""0"",""0.25""]",down_orange.png,down,,,,,,,,left,left_blue.png,down_orange.png,down,right,up,6104a21eb93f2042e3d2a2bd,2021-09-11_14h43.02.022,arrow_simon_vert,2021.1.2,Win32,60.46314771,,,,,,,,,,,,,,,,,,,,,down,1,2.1526,32,TRUE,FALSE,7,3,31,3,1,,,,,,,
,,,,,,0,1.879674875,#a3d0fb,"[""0.25"",""0""]",right_blue.png,right,,,,,,,,right,right_blue.png,up_orange.png,up,right,up,6104a21eb93f2042e3d2a2bd,2021-09-11_14h43.02.022,arrow_simon_vert,2021.1.2,Win32,60.46314771,,,,,,,,,,,,,,,,,,,,,right,1,1.6384,33,TRUE,FALSE,8,0,32,1,1,,,,,,,
,,,,,,0,2.33373873,#f3af84,"[""0"",""-0.25""]",down_orange.png,down,,,,,,,,left,left_blue.png,down_orange.png,down,left,down,6104a21eb93f2042e3d2a2bd,2021-09-11_14h43.02.022,arrow_simon_vert,2021.1.2,Win32,60.46314771,,,,,,,,,,,,,,,,,,,,,down,1,1.7181,34,TRUE,FALSE,8,1,33,2,1,,,,,,,
,,,,,,0,1.57089557,#a3d0fb,"[""0.25"",""0""]",right_blue.png,right,,,,,,,,right,right_blue.png,up_orange.png,up,right,up,6104a21eb93f2042e3d2a2bd,2021-09-11_14h43.02.022,arrow_simon_vert,2021.1.2,Win32,60.46314771,,,,,,,,,,,,,,,,,,,,,right,1,1.3016,35,FALSE,TRUE,8,2,34,1,1,,,,,,,
,,,,,,0,1.73441521,#f3af84,"[""0"",""-0.25""]",down_orange.png,down,,,,,,,,left,left_blue.png,down_orange.png,down,left,down,6104a21eb93f2042e3d2a2bd,2021-09-11_14h43.02.022,arrow_simon_vert,2021.1.2,Win32,60.46314771,,,,,,,,,,,,,,,,,,,,,down,1,1.5021,36,FALSE,FALSE,8,3,35,2,1,,,,,,,
,,,,,,0,2.193025716,#a3d0fb,"[""0.25"",""0""]",left_blue.png,left,,,,,,,,left,left_blue.png,down_orange.png,down,right,up,6104a21eb93f2042e3d2a2bd,2021-09-11_14h43.02.022,arrow_simon_vert,2021.1.2,Win32,60.46314771,,,,,,,,,,,,,,,,,,,,,left,1,1.5859,37,FALSE,FALSE,9,0,36,3,1,,,,,,,
,,,,,,0,2.246781436,#f3af84,"[""0"",""0.25""]",up_orange.png,up,,,,,,,,right,right_blue.png,up_orange.png,up,right,up,6104a21eb93f2042e3d2a2bd,2021-09-11_14h43.02.022,arrow_simon_vert,2021.1.2,Win32,60.46314771,,,,,,,,,,,,,,,,,,,,,up,1,1.685699999,38,TRUE,FALSE,9,1,37,1,1,,,,,,,
,,,,,,0,1.928253453,#a3d0fb,"[""-0.25"",""0""]",right_blue.png,right,,,,,,,,right,right_blue.png,up_orange.png,up,left,down,6104a21eb93f2042e3d2a2bd,2021-09-11_14h43.02.022,arrow_simon_vert,2021.1.2,Win32,60.46314771,,,,,,,,,,,,,,,,,,,,,right,1,1.784799999,39,TRUE,FALSE,9,2,38,0,1,,,,,,,
,,,,,,0,1.961431277,#f3af84,"[""0"",""-0.25""]",up_orange.png,up,,,,,,,,right,right_blue.png,up_orange.png,up,left,down,6104a21eb93f2042e3d2a2bd,2021-09-11_14h43.02.022,arrow_simon_vert,2021.1.2,Win32,60.46314771,,,,,,,,,,,,,,,,,,,,,up,1,1.5396,40,FALSE,FALSE,9,3,39,0,1,,,,,,,
,,,,,,0,1.654147459,#a3d0fb,"[""0.25"",""0""]",right_blue.png,right,,,,,,,,right,right_blue.png,up_orange.png,up,right,up,6104a21eb93f2042e3d2a2bd,2021-09-11_14h43.02.022,arrow_simon_vert,2021.1.2,Win32,60.46314771,,,,,,,,,,,,,,,,,,,,,right,1,1.061299999,41,FALSE,TRUE,10,0,40,1,1,,,,,,,
,,,,,,0,2.126404268,#f3af84,"[""0"",""-0.25""]",up_orange.png,up,,,,,,,,right,right_blue.png,up_orange.png,up,left,down,6104a21eb93f2042e3d2a2bd,2021-09-11_14h43.02.022,arrow_simon_vert,2021.1.2,Win32,60.46314771,,,,,,,,,,,,,,,,,,,,,up,1,1.735300001,42,TRUE,FALSE,10,1,41,0,1,,,,,,,
,,,,,,0,1.907793877,#a3d0fb,"[""0.25"",""0""]",left_blue.png,left,,,,,,,,left,left_blue.png,down_orange.png,down,right,up,6104a21eb93f2042e3d2a2bd,2021-09-11_14h43.02.022,arrow_simon_vert,2021.1.2,Win32,60.46314771,,,,,,,,,,,,,,,,,,,,,left,1,1.3855,43,FALSE,TRUE,10,2,42,3,1,,,,,,,
,,,,,,0,1.616413549,#f3af84,"[""0"",""-0.25""]",down_orange.png,down,,,,,,,,left,left_blue.png,down_orange.png,down,left,down,6104a21eb93f2042e3d2a2bd,2021-09-11_14h43.02.022,arrow_simon_vert,2021.1.2,Win32,60.46314771,,,,,,,,,,,,,,,,,,,,,down,1,1.268400002,44,FALSE,TRUE,10,3,43,2,1,,,,,,,
,,,,,,0,2.054331712,#a3d0fb,"[""-0.25"",""0""]",left_blue.png,left,,,,,,,,left,left_blue.png,down_orange.png,down,left,down,6104a21eb93f2042e3d2a2bd,2021-09-11_14h43.02.022,arrow_simon_vert,2021.1.2,Win32,60.46314771,,,,,,,,,,,,,,,,,,,,,left,1,1.636200001,45,TRUE,FALSE,11,0,44,2,1,,,,,,,
,,,,,,0,2.43566602,#f3af84,"[""0"",""-0.25""]",up_orange.png,up,,,,,,,,right,right_blue.png,up_orange.png,up,left,down,6104a21eb93f2042e3d2a2bd,2021-09-11_14h43.02.022,arrow_simon_vert,2021.1.2,Win32,60.46314771,,,,,,,,,,,,,,,,,,,,,up,1,1.8876,46,TRUE,FALSE,11,1,45,0,1,,,,,,,
,,,,,,0,2.110153412,#a3d0fb,"[""-0.25"",""0""]",left_blue.png,left,,,,,,,,left,left_blue.png,down_orange.png,down,left,down,6104a21eb93f2042e3d2a2bd,2021-09-11_14h43.02.022,arrow_simon_vert,2021.1.2,Win32,60.46314771,,,,,,,,,,,,,,,,,,,,,left,1,1.4709,47,FALSE,FALSE,11,2,46,2,1,,,,,,,
,,,,,,0,2.260499183,#f3af84,"[""0"",""0.25""]",up_orange.png,up,,,,,,,,right,right_blue.png,up_orange.png,up,right,up,6104a21eb93f2042e3d2a2bd,2021-09-11_14h43.02.022,arrow_simon_vert,2021.1.2,Win32,60.46314771,,,,,,,,,,,,,,,,,,,,,up,1,1.606799999,48,TRUE,FALSE,11,3,47,1,1,,,,,,,
,,,,,,0,1.844276676,#a3d0fb,"[""0.25"",""0""]",right_blue.png,right,,,,,,,,right,right_blue.png,up_orange.png,up,right,up,6104a21eb93f2042e3d2a2bd,2021-09-11_14h43.02.022,arrow_simon_vert,2021.1.2,Win32,60.46314771,,,,,,,,,,,,,,,,,,,,,right,1,1.4555,49,FALSE,FALSE,12,0,48,1,1,,,,,,,
,,,,,,0,2.296742672,#f3af84,"[""0"",""-0.25""]",up_orange.png,up,,,,,,,,right,right_blue.png,up_orange.png,up,left,down,6104a21eb93f2042e3d2a2bd,2021-09-11_14h43.02.022,arrow_simon_vert,2021.1.2,Win32,60.46314771,,,,,,,,,,,,,,,,,,,,,up,1,1.7284,50,TRUE,FALSE,12,1,49,0,1,,,,,,,
,,,,,,0,2.136721776,#a3d0fb,"[""-0.25"",""0""]",left_blue.png,left,,,,,,,,left,left_blue.png,down_orange.png,down,left,down,6104a21eb93f2042e3d2a2bd,2021-09-11_14h43.02.022,arrow_simon_vert,2021.1.2,Win32,60.46314771,,,,,,,,,,,,,,,,,,,,,left,1,1.6021,51,TRUE,FALSE,12,2,50,2,1,,,,,,,
,,,,,,0,2.095852953,#f3af84,"[""0"",""-0.25""]",down_orange.png,down,,,,,,,,left,left_blue.png,down_orange.png,down,left,down,6104a21eb93f2042e3d2a2bd,2021-09-11_14h43.02.022,arrow_simon_vert,2021.1.2,Win32,60.46314771,,,,,,,,,,,,,,,,,,,,,down,1,1.5606,52,FALSE,FALSE,12,3,51,2,1,,,,,,,
,,,,,,0,2.048592333,#a3d0fb,"[""0.25"",""0""]",right_blue.png,right,,,,,,,,right,right_blue.png,up_orange.png,up,right,up,6104a21eb93f2042e3d2a2bd,2021-09-11_14h43.02.022,arrow_simon_vert,2021.1.2,Win32,60.46314771,,,,,,,,,,,,,,,,,,,,,right,1,1.435,53,FALSE,FALSE,13,0,52,1,1,,,,,,,
,,,,,,1,2.167417555,#f3af84,"[""0"",""0.25""]",down_orange.png,down,,,,,,,,left,left_blue.png,down_orange.png,down,right,up,6104a21eb93f2042e3d2a2bd,2021-09-11_14h43.02.022,arrow_simon_vert,2021.1.2,Win32,60.46314771,,,,,,,,,,,,,,,,,,,,,up,0,1.4129,54,FALSE,FALSE,13,1,53,3,1,,,,,,,
,,,,,,1,2.223330251,#a3d0fb,"[""-0.25"",""0""]",right_blue.png,right,,,,,,,,right,right_blue.png,up_orange.png,up,left,down,6104a21eb93f2042e3d2a2bd,2021-09-11_14h43.02.022,arrow_simon_vert,2021.1.2,Win32,60.46314771,,,,,,,,,,,,,,,,,,,,,right,1,1.636400002,55,TRUE,FALSE,13,2,54,0,1,,,,,,,
,,,,,,1,1.530068493,#f3af84,"[""0"",""0.25""]",down_orange.png,down,,,,,,,,left,left_blue.png,down_orange.png,down,right,up,6104a21eb93f2042e3d2a2bd,2021-09-11_14h43.02.022,arrow_simon_vert,2021.1.2,Win32,60.46314771,,,,,,,,,,,,,,,,,,,,,down,1,1.369200001,56,FALSE,TRUE,13,3,55,3,1,,,,,,,
,,,,,,1,2.177638415,#a3d0fb,"[""-0.25"",""0""]",right_blue.png,right,,,,,,,,right,right_blue.png,up_orange.png,up,left,down,6104a21eb93f2042e3d2a2bd,2021-09-11_14h43.02.022,arrow_simon_vert,2021.1.2,Win32,60.46314771,,,,,,,,,,,,,,,,,,,,,right,1,1.801,57,TRUE,FALSE,14,0,56,0,1,,,,,,,
,,,,,,0,1.908780339,#f3af84,"[""0"",""0.25""]",down_orange.png,down,,,,,,,,left,left_blue.png,down_orange.png,down,right,up,6104a21eb93f2042e3d2a2bd,2021-09-11_14h43.02.022,arrow_simon_vert,2021.1.2,Win32,60.46314771,,,,,,,,,,,,,,,,,,,,,down,1,1.5071,58,FALSE,FALSE,14,1,57,3,1,,,,,,,
,,,,,,0,2.072143952,#a3d0fb,"[""-0.25"",""0""]",right_blue.png,right,,,,,,,,right,right_blue.png,up_orange.png,up,left,down,6104a21eb93f2042e3d2a2bd,2021-09-11_14h43.02.022,arrow_simon_vert,2021.1.2,Win32,60.46314771,,,,,,,,,,,,,,,,,,,,,left,0,1.685300001,59,TRUE,FALSE,14,2,58,0,1,,,,,,,
,,,,,,0,1.650013597,#f3af84,"[""0"",""0.25""]",up_orange.png,up,,,,,,,,right,right_blue.png,up_orange.png,up,right,up,6104a21eb93f2042e3d2a2bd,2021-09-11_14h43.02.022,arrow_simon_vert,2021.1.2,Win32,60.46314771,,,,,,,,,,,,,,,,,,,,,up,1,1.0675,60,FALSE,TRUE,14,3,59,1,1,,,,,,,
,,,,,,,,,,,,,,,,,,,,,,,,,6104a21eb93f2042e3d2a2bd,2021-09-11_14h43.02.022,arrow_simon_vert,2021.1.2,Win32,60.46314771,,,,,,,,,,,,,,,,,,,,,,,,,,,,,,,,space,21.6693,0,0,0,0,1
,,,,,,0,2.268291213,#a3d0fb,"[""0.25"",""0""]",right_blue.png,right,,,,,,,,right,right_blue.png,up_orange.png,up,right,up,6104a21eb93f2042e3d2a2bd,2021-09-11_14h43.02.022,arrow_simon_vert,2021.1.2,Win32,60.46314771,,,,,,,,,,,,,,,,,,,,,right,1,1.6844,1,TRUE,FALSE,0,0,0,1,1,,,,,,,
,,,,,,0,2.238821337,#f3af84,"[""0"",""0.25""]",up_orange.png,up,,,,,,,,right,right_blue.png,up_orange.png,up,right,up,6104a21eb93f2042e3d2a2bd,2021-09-11_14h43.02.022,arrow_simon_vert,2021.1.2,Win32,60.46314771,,,,,,,,,,,,,,,,,,,,,up,1,1.7405,2,TRUE,FALSE,0,1,1,1,1,,,,,,,
,,,,,,0,2.317306818,#a3d0fb,"[""-0.25"",""0""]",left_blue.png,left,,,,,,,,left,left_blue.png,down_orange.png,down,left,down,6104a21eb93f2042e3d2a2bd,2021-09-11_14h43.02.022,arrow_simon_vert,2021.1.2,Win32,60.46314771,,,,,,,,,,,,,,,,,,,,,left,1,1.6195,3,TRUE,FALSE,0,2,2,2,1,,,,,,,
,,,,,,0,1.658455681,#f3af84,"[""0"",""-0.25""]",down_orange.png,down,,,,,,,,left,left_blue.png,down_orange.png,down,left,down,6104a21eb93f2042e3d2a2bd,2021-09-11_14h43.02.022,arrow_simon_vert,2021.1.2,Win32,60.46314771,,,,,,,,,,,,,,,,,,,,,down,1,1.069,4,FALSE,TRUE,0,3,3,2,1,,,,,,,
,,,,,,0,2.146824513,#a3d0fb,"[""-0.25"",""0""]",right_blue.png,right,,,,,,,,right,right_blue.png,up_orange.png,up,left,down,6104a21eb93f2042e3d2a2bd,2021-09-11_14h43.02.022,arrow_simon_vert,2021.1.2,Win32,60.46314771,,,,,,,,,,,,,,,,,,,,,right,1,1.5845,5,FALSE,FALSE,1,0,4,0,1,,,,,,,
,,,,,,0,2.298444726,#f3af84,"[""0"",""0.25""]",down_orange.png,down,,,,,,,,left,left_blue.png,down_orange.png,down,right,up,6104a21eb93f2042e3d2a2bd,2021-09-11_14h43.02.022,arrow_simon_vert,2021.1.2,Win32,60.46314771,,,,,,,,,,,,,,,,,,,,,up,0,1.653,6,TRUE,FALSE,1,1,5,3,1,,,,,,,
,,,,,,0,2.298850363,#a3d0fb,"[""0.25"",""0""]",right_blue.png,right,,,,,,,,right,right_blue.png,up_orange.png,up,right,up,6104a21eb93f2042e3d2a2bd,2021-09-11_14h43.02.022,arrow_simon_vert,2021.1.2,Win32,60.46314771,,,,,,,,,,,,,,,,,,,,,right,1,1.585,7,FALSE,FALSE,1,2,6,1,1,,,,,,,
,,,,,,0,1.873117213,#f3af84,"[""0"",""-0.25""]",down_orange.png,down,,,,,,,,left,left_blue.png,down_orange.png,down,left,down,6104a21eb93f2042e3d2a2bd,2021-09-11_14h43.02.022,arrow_simon_vert,2021.1.2,Win32,60.46314771,,,,,,,,,,,,,,,,,,,,,down,1,1.2521,8,FALSE,TRUE,1,3,7,2,1,,,,,,,
,,,,,,0,1.644047299,#a3d0fb,"[""-0.25"",""0""]",right_blue.png,right,,,,,,,,right,right_blue.png,up_orange.png,up,left,down,6104a21eb93f2042e3d2a2bd,2021-09-11_14h43.02.022,arrow_simon_vert,2021.1.2,Win32,60.46314771,,,,,,,,,,,,,,,,,,,,,right,1,1.152299999,9,FALSE,TRUE,2,0,8,0,1,,,,,,,
,,,,,,0,1.824533166,#f3af84,"[""0"",""0.25""]",up_orange.png,up,,,,,,,,right,right_blue.png,up_orange.png,up,right,up,6104a21eb93f2042e3d2a2bd,2021-09-11_14h43.02.022,arrow_simon_vert,2021.1.2,Win32,60.46314771,,,,,,,,,,,,,,,,,,,,,up,1,1.268299999,10,FALSE,TRUE,2,1,9,1,1,,,,,,,
,,,,,,0,1.574812609,#a3d0fb,"[""-0.25"",""0""]",left_blue.png,left,,,,,,,,left,left_blue.png,down_orange.png,down,left,down,6104a21eb93f2042e3d2a2bd,2021-09-11_14h43.02.022,arrow_simon_vert,2021.1.2,Win32,60.46314771,,,,,,,,,,,,,,,,,,,,,left,1,1.3265,11,FALSE,TRUE,2,2,10,2,1,,,,,,,
,,,,,,0,1.95734451,#f3af84,"[""0"",""0.25""]",down_orange.png,down,,,,,,,,left,left_blue.png,down_orange.png,down,right,up,6104a21eb93f2042e3d2a2bd,2021-09-11_14h43.02.022,arrow_simon_vert,2021.1.2,Win32,60.46314771,,,,,,,,,,,,,,,,,,,,,down,1,1.5364,12,FALSE,FALSE,2,3,11,3,1,,,,,,,
,,,,,,0,2.049234904,#a3d0fb,"[""-0.25"",""0""]",left_blue.png,left,,,,,,,,left,left_blue.png,down_orange.png,down,left,down,6104a21eb93f2042e3d2a2bd,2021-09-11_14h43.02.022,arrow_simon_vert,2021.1.2,Win32,60.46314771,,,,,,,,,,,,,,,,,,,,,left,1,1.536299999,13,FALSE,FALSE,3,0,12,2,1,,,,,,,
,,,,,,0,1.671385769,#f3af84,"[""0"",""0.25""]",down_orange.png,down,,,,,,,,left,left_blue.png,down_orange.png,down,right,up,6104a21eb93f2042e3d2a2bd,2021-09-11_14h43.02.022,arrow_simon_vert,2021.1.2,Win32,60.46314771,,,,,,,,,,,,,,,,,,,,,down,1,1.319300001,14,FALSE,TRUE,3,1,13,3,1,,,,,,,
,,,,,,0,1.956283306,#a3d0fb,"[""-0.25"",""0""]",left_blue.png,left,,,,,,,,left,left_blue.png,down_orange.png,down,left,down,6104a21eb93f2042e3d2a2bd,2021-09-11_14h43.02.022,arrow_simon_vert,2021.1.2,Win32,60.46314771,,,,,,,,,,,,,,,,,,,,,left,1,1.551,15,FALSE,FALSE,3,2,14,2,1,,,,,,,
,,,,,,0,2.023628632,#f3af84,"[""0"",""-0.25""]",down_orange.png,down,,,,,,,,left,left_blue.png,down_orange.png,down,left,down,6104a21eb93f2042e3d2a2bd,2021-09-11_14h43.02.022,arrow_simon_vert,2021.1.2,Win32,60.46314771,,,,,,,,,,,,,,,,,,,,,down,1,1.7691,16,TRUE,FALSE,3,3,15,2,1,,,,,,,
,,,,,,0,2.490185273,#a3d0fb,"[""0.25"",""0""]",left_blue.png,left,,,,,,,,left,left_blue.png,down_orange.png,down,right,up,6104a21eb93f2042e3d2a2bd,2021-09-11_14h43.02.022,arrow_simon_vert,2021.1.2,Win32,60.46314771,,,,,,,,,,,,,,,,,,,,,left,1,1.7591,17,TRUE,FALSE,4,0,16,3,1,,,,,,,
,,,,,,0,1.800291601,#f3af84,"[""0"",""0.25""]",up_orange.png,up,,,,,,,,right,right_blue.png,up_orange.png,up,right,up,6104a21eb93f2042e3d2a2bd,2021-09-11_14h43.02.022,arrow_simon_vert,2021.1.2,Win32,60.46314771,,,,,,,,,,,,,,,,,,,,,up,1,1.3021,18,FALSE,TRUE,4,1,17,1,1,,,,,,,
,,,,,,0,1.702365588,#a3d0fb,"[""-0.25"",""0""]",right_blue.png,right,,,,,,,,right,right_blue.png,up_orange.png,up,left,down,6104a21eb93f2042e3d2a2bd,2021-09-11_14h43.02.022,arrow_simon_vert,2021.1.2,Win32,60.46314771,,,,,,,,,,,,,,,,,,,,,right,1,1.1795,19,FALSE,TRUE,4,2,18,0,1,,,,,,,
,,,,,,0,1.518239439,#f3af84,"[""0"",""0.25""]",up_orange.png,up,,,,,,,,right,right_blue.png,up_orange.png,up,right,up,6104a21eb93f2042e3d2a2bd,2021-09-11_14h43.02.022,arrow_simon_vert,2021.1.2,Win32,60.46314771,,,,,,,,,,,,,,,,,,,,,up,1,1.4016,20,FALSE,FALSE,4,3,19,1,1,,,,,,,
,,,,,,0,2.276029272,#a3d0fb,"[""-0.25"",""0""]",left_blue.png,left,,,,,,,,left,left_blue.png,down_orange.png,down,left,down,6104a21eb93f2042e3d2a2bd,2021-09-11_14h43.02.022,arrow_simon_vert,2021.1.2,Win32,60.46314771,,,,,,,,,,,,,,,,,,,,,left,1,1.9235,21,TRUE,FALSE,5,0,20,2,1,,,,,,,
,,,,,,0,1.915285292,#f3af84,"[""0"",""-0.25""]",up_orange.png,up,,,,,,,,right,right_blue.png,up_orange.png,up,left,down,6104a21eb93f2042e3d2a2bd,2021-09-11_14h43.02.022,arrow_simon_vert,2021.1.2,Win32,60.46314771,,,,,,,,,,,,,,,,,,,,,up,1,1.3575,22,FALSE,TRUE,5,1,21,0,1,,,,,,,
,,,,,,0,2.168264425,#a3d0fb,"[""0.25"",""0""]",right_blue.png,right,,,,,,,,right,right_blue.png,up_orange.png,up,right,up,6104a21eb93f2042e3d2a2bd,2021-09-11_14h43.02.022,arrow_simon_vert,2021.1.2,Win32,60.46314771,,,,,,,,,,,,,,,,,,,,,right,1,1.734700001,23,TRUE,FALSE,5,2,22,1,1,,,,,,,
,,,,,,0,2.281651567,#f3af84,"[""0"",""-0.25""]",up_orange.png,up,,,,,,,,right,right_blue.png,up_orange.png,up,left,down,6104a21eb93f2042e3d2a2bd,2021-09-11_14h43.02.022,arrow_simon_vert,2021.1.2,Win32,60.46314771,,,,,,,,,,,,,,,,,,,,,up,1,1.9189,24,TRUE,FALSE,5,3,23,0,1,,,,,,,
,,,,,,0,1.911073244,#a3d0fb,"[""-0.25"",""0""]",right_blue.png,right,,,,,,,,right,right_blue.png,up_orange.png,up,left,down,6104a21eb93f2042e3d2a2bd,2021-09-11_14h43.02.022,arrow_simon_vert,2021.1.2,Win32,60.46314771,,,,,,,,,,,,,,,,,,,,,right,1,1.5859,25,FALSE,FALSE,6,0,24,0,1,,,,,,,
,,,,,,0,2.028658199,#f3af84,"[""0"",""0.25""]",down_orange.png,down,,,,,,,,left,left_blue.png,down_orange.png,down,right,up,6104a21eb93f2042e3d2a2bd,2021-09-11_14h43.02.022,arrow_simon_vert,2021.1.2,Win32,60.46314771,,,,,,,,,,,,,,,,,,,,,down,1,1.7356,26,TRUE,FALSE,6,1,25,3,1,,,,,,,
,,,,,,0,1.710087868,#a3d0fb,"[""0.25"",""0""]",right_blue.png,right,,,,,,,,right,right_blue.png,up_orange.png,up,right,up,6104a21eb93f2042e3d2a2bd,2021-09-11_14h43.02.022,arrow_simon_vert,2021.1.2,Win32,60.46314771,,,,,,,,,,,,,,,,,,,,,right,1,1.541299999,27,FALSE,FALSE,6,2,26,1,1,,,,,,,
,,,,,,0,2.244340139,#f3af84,"[""0"",""0.25""]",up_orange.png,up,,,,,,,,right,right_blue.png,up_orange.png,up,right,up,6104a21eb93f2042e3d2a2bd,2021-09-11_14h43.02.022,arrow_simon_vert,2021.1.2,Win32,60.46314771,,,,,,,,,,,,,,,,,,,,,up,1,2.042699999,28,TRUE,FALSE,6,3,27,1,1,,,,,,,
,,,,,,0,2.076888665,#a3d0fb,"[""0.25"",""0""]",left_blue.png,left,,,,,,,,left,left_blue.png,down_orange.png,down,right,up,6104a21eb93f2042e3d2a2bd,2021-09-11_14h43.02.022,arrow_simon_vert,2021.1.2,Win32,60.46314771,,,,,,,,,,,,,,,,,,,,,left,1,1.854300001,29,TRUE,FALSE,7,0,28,3,1,,,,,,,
,,,,,,0,1.811637345,#f3af84,"[""0"",""0.25""]",down_orange.png,down,,,,,,,,left,left_blue.png,down_orange.png,down,right,up,6104a21eb93f2042e3d2a2bd,2021-09-11_14h43.02.022,arrow_simon_vert,2021.1.2,Win32,60.46314771,,,,,,,,,,,,,,,,,,,,,down,1,1.2626,30,FALSE,TRUE,7,1,29,3,1,,,,,,,
,,,,,,0,1.512271825,#a3d0fb,"[""-0.25"",""0""]",right_blue.png,right,,,,,,,,right,right_blue.png,up_orange.png,up,left,down,6104a21eb93f2042e3d2a2bd,2021-09-11_14h43.02.022,arrow_simon_vert,2021.1.2,Win32,60.46314771,,,,,,,,,,,,,,,,,,,,,right,1,1.586,31,FALSE,FALSE,7,2,30,0,1,,,,,,,
,,,,,,0,2.104757459,#f3af84,"[""0"",""-0.25""]",down_orange.png,down,,,,,,,,left,left_blue.png,down_orange.png,down,left,down,6104a21eb93f2042e3d2a2bd,2021-09-11_14h43.02.022,arrow_simon_vert,2021.1.2,Win32,60.46314771,,,,,,,,,,,,,,,,,,,,,down,1,1.596,32,FALSE,FALSE,7,3,31,2,1,,,,,,,
,,,,,,0,1.713475805,#a3d0fb,"[""-0.25"",""0""]",right_blue.png,right,,,,,,,,right,right_blue.png,up_orange.png,up,left,down,6104a21eb93f2042e3d2a2bd,2021-09-11_14h43.02.022,arrow_simon_vert,2021.1.2,Win32,60.46314771,,,,,,,,,,,,,,,,,,,,,right,1,1.5034,33,FALSE,FALSE,8,0,32,0,1,,,,,,,
,,,,,,0,1.760345413,#f3af84,"[""0"",""0.25""]",down_orange.png,down,,,,,,,,left,left_blue.png,down_orange.png,down,right,up,6104a21eb93f2042e3d2a2bd,2021-09-11_14h43.02.022,arrow_simon_vert,2021.1.2,Win32,60.46314771,,,,,,,,,,,,,,,,,,,,,down,1,1.619200001,34,TRUE,FALSE,8,1,33,3,1,,,,,,,
,,,,,,0,2.031287857,#a3d0fb,"[""-0.25"",""0""]",right_blue.png,right,,,,,,,,right,right_blue.png,up_orange.png,up,left,down,6104a21eb93f2042e3d2a2bd,2021-09-11_14h43.02.022,arrow_simon_vert,2021.1.2,Win32,60.46314771,,,,,,,,,,,,,,,,,,,,,right,1,1.652099998,35,TRUE,FALSE,8,2,34,0,1,,,,,,,
,,,,,,0,1.757731039,#f3af84,"[""0"",""-0.25""]",up_orange.png,up,,,,,,,,right,right_blue.png,up_orange.png,up,left,down,6104a21eb93f2042e3d2a2bd,2021-09-11_14h43.02.022,arrow_simon_vert,2021.1.2,Win32,60.46314771,,,,,,,,,,,,,,,,,,,,,up,1,1.521099998,36,FALSE,FALSE,8,3,35,0,1,,,,,,,
,,,,,,0,2.218596344,#a3d0fb,"[""-0.25"",""0""]",left_blue.png,left,,,,,,,,left,left_blue.png,down_orange.png,down,left,down,6104a21eb93f2042e3d2a2bd,2021-09-11_14h43.02.022,arrow_simon_vert,2021.1.2,Win32,60.46314771,,,,,,,,,,,,,,,,,,,,,left,1,1.6079,37,TRUE,FALSE,9,0,36,2,1,,,,,,,
,,,,,,0,2.244414158,#f3af84,"[""0"",""0.25""]",down_orange.png,down,,,,,,,,left,left_blue.png,down_orange.png,down,right,up,6104a21eb93f2042e3d2a2bd,2021-09-11_14h43.02.022,arrow_simon_vert,2021.1.2,Win32,60.46314771,,,,,,,,,,,,,,,,,,,,,down,1,1.823699999,38,TRUE,FALSE,9,1,37,3,1,,,,,,,
,,,,,,0,2.005297533,#a3d0fb,"[""0.25"",""0""]",left_blue.png,left,,,,,,,,left,left_blue.png,down_orange.png,down,right,up,6104a21eb93f2042e3d2a2bd,2021-09-11_14h43.02.022,arrow_simon_vert,2021.1.2,Win32,60.46314771,,,,,,,,,,,,,,,,,,,,,left,1,1.4929,39,FALSE,FALSE,9,2,38,3,1,,,,,,,
,,,,,,0,1.968761207,#f3af84,"[""0"",""-0.25""]",up_orange.png,up,,,,,,,,right,right_blue.png,up_orange.png,up,left,down,6104a21eb93f2042e3d2a2bd,2021-09-11_14h43.02.022,arrow_simon_vert,2021.1.2,Win32,60.46314771,,,,,,,,,,,,,,,,,,,,,down,0,1.318800001,40,FALSE,TRUE,9,3,39,0,1,,,,,,,
,,,,,,0,1.922837786,#a3d0fb,"[""0.25"",""0""]",right_blue.png,right,,,,,,,,right,right_blue.png,up_orange.png,up,right,up,6104a21eb93f2042e3d2a2bd,2021-09-11_14h43.02.022,arrow_simon_vert,2021.1.2,Win32,60.46314771,,,,,,,,,,,,,,,,,,,,,right,1,1.552800001,41,FALSE,FALSE,10,0,40,1,1,,,,,,,
,,,,,,0,2.096931252,#f3af84,"[""0"",""0.25""]",down_orange.png,down,,,,,,,,left,left_blue.png,down_orange.png,down,right,up,6104a21eb93f2042e3d2a2bd,2021-09-11_14h43.02.022,arrow_simon_vert,2021.1.2,Win32,60.46314771,,,,,,,,,,,,,,,,,,,,,down,1,1.720799999,42,TRUE,FALSE,10,1,41,3,1,,,,,,,
,,,,,,0,1.650501773,#a3d0fb,"[""0.25"",""0""]",left_blue.png,left,,,,,,,,left,left_blue.png,down_orange.png,down,right,up,6104a21eb93f2042e3d2a2bd,2021-09-11_14h43.02.022,arrow_simon_vert,2021.1.2,Win32,60.46314771,,,,,,,,,,,,,,,,,,,,,left,1,1.1095,43,FALSE,TRUE,10,2,42,3,1,,,,,,,
,,,,,,0,1.584729867,#f3af84,"[""0"",""0.25""]",up_orange.png,up,,,,,,,,right,right_blue.png,up_orange.png,up,right,up,6104a21eb93f2042e3d2a2bd,2021-09-11_14h43.02.022,arrow_simon_vert,2021.1.2,Win32,60.46314771,,,,,,,,,,,,,,,,,,,,,up,1,1.1856,44,FALSE,TRUE,10,3,43,1,1,,,,,,,
,,,,,,0,2.212086546,#a3d0fb,"[""-0.25"",""0""]",left_blue.png,left,,,,,,,,left,left_blue.png,down_orange.png,down,left,down,6104a21eb93f2042e3d2a2bd,2021-09-11_14h43.02.022,arrow_simon_vert,2021.1.2,Win32,60.46314771,,,,,,,,,,,,,,,,,,,,,left,1,1.5905,45,FALSE,FALSE,11,0,44,2,1,,,,,,,
,,,,,,0,2.046916156,#f3af84,"[""0"",""0.25""]",up_orange.png,up,,,,,,,,right,right_blue.png,up_orange.png,up,right,up,6104a21eb93f2042e3d2a2bd,2021-09-11_14h43.02.022,arrow_simon_vert,2021.1.2,Win32,60.46314771,,,,,,,,,,,,,,,,,,,,,up,1,1.585700001,46,FALSE,FALSE,11,1,45,1,1,,,,,,,
,,,,,,0,1.642940422,#a3d0fb,"[""0.25"",""0""]",right_blue.png,right,,,,,,,,right,right_blue.png,up_orange.png,up,right,up,6104a21eb93f2042e3d2a2bd,2021-09-11_14h43.02.022,arrow_simon_vert,2021.1.2,Win32,60.46314771,,,,,,,,,,,,,,,,,,,,,right,1,1.4851,47,FALSE,FALSE,11,2,46,1,1,,,,,,,
,,,,,,0,1.553994533,#f3af84,"[""0"",""-0.25""]",up_orange.png,up,,,,,,,,right,right_blue.png,up_orange.png,up,left,down,6104a21eb93f2042e3d2a2bd,2021-09-11_14h43.02.022,arrow_simon_vert,2021.1.2,Win32,60.46314771,,,,,,,,,,,,,,,,,,,,,up,1,1.435299999,48,FALSE,FALSE,11,3,47,0,1,,,,,,,
,,,,,,0,1.873541183,#a3d0fb,"[""-0.25"",""0""]",right_blue.png,right,,,,,,,,right,right_blue.png,up_orange.png,up,left,down,6104a21eb93f2042e3d2a2bd,2021-09-11_14h43.02.022,arrow_simon_vert,2021.1.2,Win32,60.46314771,,,,,,,,,,,,,,,,,,,,,right,1,1.5226,49,FALSE,FALSE,12,0,48,0,1,,,,,,,
,,,,,,0,2.477670396,#f3af84,"[""0"",""-0.25""]",down_orange.png,down,,,,,,,,left,left_blue.png,down_orange.png,down,left,down,6104a21eb93f2042e3d2a2bd,2021-09-11_14h43.02.022,arrow_simon_vert,2021.1.2,Win32,60.46314771,,,,,,,,,,,,,,,,,,,,,down,1,1.840800001,50,TRUE,FALSE,12,1,49,2,1,,,,,,,
,,,,,,0,1.758725074,#a3d0fb,"[""0.25"",""0""]",right_blue.png,right,,,,,,,,right,right_blue.png,up_orange.png,up,right,up,6104a21eb93f2042e3d2a2bd,2021-09-11_14h43.02.022,arrow_simon_vert,2021.1.2,Win32,60.46314771,,,,,,,,,,,,,,,,,,,,,right,1,1.137599998,51,FALSE,TRUE,12,2,50,1,1,,,,,,,
,,,,,,0,1.938881436,#f3af84,"[""0"",""0.25""]",down_orange.png,down,,,,,,,,left,left_blue.png,down_orange.png,down,right,up,6104a21eb93f2042e3d2a2bd,2021-09-11_14h43.02.022,arrow_simon_vert,2021.1.2,Win32,60.46314771,,,,,,,,,,,,,,,,,,,,,down,1,1.5196,52,FALSE,FALSE,12,3,51,3,1,,,,,,,
,,,,,,0,1.785516135,#a3d0fb,"[""-0.25"",""0""]",left_blue.png,left,,,,,,,,left,left_blue.png,down_orange.png,down,left,down,6104a21eb93f2042e3d2a2bd,2021-09-11_14h43.02.022,arrow_simon_vert,2021.1.2,Win32,60.46314771,,,,,,,,,,,,,,,,,,,,,left,1,1.676300001,53,TRUE,FALSE,13,0,52,2,1,,,,,,,
,,,,,,0,1.888776201,#f3af84,"[""0"",""0.25""]",down_orange.png,down,,,,,,,,left,left_blue.png,down_orange.png,down,right,up,6104a21eb93f2042e3d2a2bd,2021-09-11_14h43.02.022,arrow_simon_vert,2021.1.2,Win32,60.46314771,,,,,,,,,,,,,,,,,,,,,down,1,1.4735,54,FALSE,FALSE,13,1,53,3,1,,,,,,,
,,,,,,0,1.978565804,#a3d0fb,"[""0.25"",""0""]",left_blue.png,left,,,,,,,,left,left_blue.png,down_orange.png,down,right,up,6104a21eb93f2042e3d2a2bd,2021-09-11_14h43.02.022,arrow_simon_vert,2021.1.2,Win32,60.46314771,,,,,,,,,,,,,,,,,,,,,left,1,1.642299999,55,TRUE,FALSE,13,2,54,3,1,,,,,,,
,,,,,,0,1.976052312,#f3af84,"[""0"",""-0.25""]",down_orange.png,down,,,,,,,,left,left_blue.png,down_orange.png,down,left,down,6104a21eb93f2042e3d2a2bd,2021-09-11_14h43.02.022,arrow_simon_vert,2021.1.2,Win32,60.46314771,,,,,,,,,,,,,,,,,,,,,down,1,1.856699999,56,TRUE,FALSE,13,3,55,2,1,,,,,,,
,,,,,,0,1.546462486,#a3d0fb,"[""0.25"",""0""]",right_blue.png,right,,,,,,,,right,right_blue.png,up_orange.png,up,right,up,6104a21eb93f2042e3d2a2bd,2021-09-11_14h43.02.022,arrow_simon_vert,2021.1.2,Win32,60.46314771,,,,,,,,,,,,,,,,,,,,,right,1,1.285099998,57,FALSE,TRUE,14,0,56,1,1,,,,,,,
,,,,,,0,1.971478499,#f3af84,"[""0"",""-0.25""]",up_orange.png,up,,,,,,,,right,right_blue.png,up_orange.png,up,left,down,6104a21eb93f2042e3d2a2bd,2021-09-11_14h43.02.022,arrow_simon_vert,2021.1.2,Win32,60.46314771,,,,,,,,,,,,,,,,,,,,,up,1,1.662400002,58,TRUE,FALSE,14,1,57,0,1,,,,,,,
,,,,,,0,2.006480665,#a3d0fb,"[""-0.25"",""0""]",left_blue.png,left,,,,,,,,left,left_blue.png,down_orange.png,down,left,down,6104a21eb93f2042e3d2a2bd,2021-09-11_14h43.02.022,arrow_simon_vert,2021.1.2,Win32,60.46314771,,,,,,,,,,,,,,,,,,,,,left,1,1.4516,59,FALSE,FALSE,14,2,58,2,1,,,,,,,
,,,,,,0,1.637883153,#f3af84,"[""0"",""-0.25""]",up_orange.png,up,,,,,,,,right,right_blue.png,up_orange.png,up,left,down,6104a21eb93f2042e3d2a2bd,2021-09-11_14h43.02.022,arrow_simon_vert,2021.1.2,Win32,60.46314771,,,,,,,,,,,,,,,,,,,,,up,1,1.203799999,60,FALSE,TRUE,14,3,59,0,1,,,,,,,
,,,,,,,,,,,,,,,,,,,,,,,,,6104a21eb93f2042e3d2a2bd,2021-09-11_14h43.02.022,arrow_simon_vert,2021.1.2,Win32,60.46314771,,,,,,,,,,,,,,,,,,,,,,,,,,,,,,,,space,24.8518,1,0,1,0,1
,,,,,,0,1.516409139,#a3d0fb,"[""-0.25"",""0""]",right_blue.png,right,,,,,,,,right,right_blue.png,up_orange.png,up,left,down,6104a21eb93f2042e3d2a2bd,2021-09-11_14h43.02.022,arrow_simon_vert,2021.1.2,Win32,60.46314771,,,,,,,,,,,,,,,,,,,,,right,1,1.367199999,1,FALSE,TRUE,0,0,0,0,1,,,,,,,
,,,,,,0,1.624113312,#f3af84,"[""0"",""-0.25""]",up_orange.png,up,,,,,,,,right,right_blue.png,up_orange.png,up,left,down,6104a21eb93f2042e3d2a2bd,2021-09-11_14h43.02.022,arrow_simon_vert,2021.1.2,Win32,60.46314771,,,,,,,,,,,,,,,,,,,,,up,1,1.119400002,2,FALSE,TRUE,0,1,1,0,1,,,,,,,
,,,,,,0,2.292730711,#a3d0fb,"[""0.25"",""0""]",right_blue.png,right,,,,,,,,right,right_blue.png,up_orange.png,up,right,up,6104a21eb93f2042e3d2a2bd,2021-09-11_14h43.02.022,arrow_simon_vert,2021.1.2,Win32,60.46314771,,,,,,,,,,,,,,,,,,,,,right,1,1.5851,3,FALSE,FALSE,0,2,2,1,1,,,,,,,
,,,,,,0,1.617584643,#f3af84,"[""0"",""-0.25""]",down_orange.png,down,,,,,,,,left,left_blue.png,down_orange.png,down,left,down,6104a21eb93f2042e3d2a2bd,2021-09-11_14h43.02.022,arrow_simon_vert,2021.1.2,Win32,60.46314771,,,,,,,,,,,,,,,,,,,,,down,1,1.0705,4,FALSE,TRUE,0,3,3,2,1,,,,,,,
,,,,,,0,1.805288533,#a3d0fb,"[""0.25"",""0""]",right_blue.png,right,,,,,,,,right,right_blue.png,up_orange.png,up,right,up,6104a21eb93f2042e3d2a2bd,2021-09-11_14h43.02.022,arrow_simon_vert,2021.1.2,Win32,60.46314771,,,,,,,,,,,,,,,,,,,,,right,1,1.218400002,5,FALSE,TRUE,1,0,4,1,1,,,,,,,
,,,,,,0,2.445452613,#f3af84,"[""0"",""0.25""]",up_orange.png,up,,,,,,,,right,right_blue.png,up_orange.png,up,right,up,6104a21eb93f2042e3d2a2bd,2021-09-11_14h43.02.022,arrow_simon_vert,2021.1.2,Win32,60.46314771,,,,,,,,,,,,,,,,,,,,,up,1,1.7346,6,TRUE,FALSE,1,1,5,1,1,,,,,,,
,,,,,,0,1.945732354,#a3d0fb,"[""0.25"",""0""]",right_blue.png,right,,,,,,,,right,right_blue.png,up_orange.png,up,right,up,6104a21eb93f2042e3d2a2bd,2021-09-11_14h43.02.022,arrow_simon_vert,2021.1.2,Win32,60.46314771,,,,,,,,,,,,,,,,,,,,,right,1,1.3189,7,FALSE,TRUE,1,2,6,1,1,,,,,,,
,,,,,,0,2.342953424,#f3af84,"[""0"",""0.25""]",down_orange.png,down,,,,,,,,left,left_blue.png,down_orange.png,down,right,up,6104a21eb93f2042e3d2a2bd,2021-09-11_14h43.02.022,arrow_simon_vert,2021.1.2,Win32,60.46314771,,,,,,,,,,,,,,,,,,,,,down,1,1.869699999,8,TRUE,FALSE,1,3,7,3,1,,,,,,,
,,,,,,0,1.763444284,#a3d0fb,"[""0.25"",""0""]",right_blue.png,right,,,,,,,,right,right_blue.png,up_orange.png,up,right,up,6104a21eb93f2042e3d2a2bd,2021-09-11_14h43.02.022,arrow_simon_vert,2021.1.2,Win32,60.46314771,,,,,,,,,,,,,,,,,,,,,right,1,1.1236,9,FALSE,TRUE,2,0,8,1,1,,,,,,,
,,,,,,0,1.832183618,#f3af84,"[""0"",""-0.25""]",up_orange.png,up,,,,,,,,right,right_blue.png,up_orange.png,up,left,down,6104a21eb93f2042e3d2a2bd,2021-09-11_14h43.02.022,arrow_simon_vert,2021.1.2,Win32,60.46314771,,,,,,,,,,,,,,,,,,,,,up,1,1.5035,10,FALSE,FALSE,2,1,9,0,1,,,,,,,
,,,,,,0,1.970318543,#a3d0fb,"[""-0.25"",""0""]",left_blue.png,left,,,,,,,,left,left_blue.png,down_orange.png,down,left,down,6104a21eb93f2042e3d2a2bd,2021-09-11_14h43.02.022,arrow_simon_vert,2021.1.2,Win32,60.46314771,,,,,,,,,,,,,,,,,,,,,left,1,1.4744,11,FALSE,FALSE,2,2,10,2,1,,,,,,,
,,,,,,0,2.457526975,#f3af84,"[""0"",""-0.25""]",down_orange.png,down,,,,,,,,left,left_blue.png,down_orange.png,down,left,down,6104a21eb93f2042e3d2a2bd,2021-09-11_14h43.02.022,arrow_simon_vert,2021.1.2,Win32,60.46314771,,,,,,,,,,,,,,,,,,,,,down,1,1.9071,12,TRUE,FALSE,2,3,11,2,1,,,,,,,
,,,,,,0,2.127915296,#a3d0fb,"[""0.25"",""0""]",right_blue.png,right,,,,,,,,right,right_blue.png,up_orange.png,up,right,up,6104a21eb93f2042e3d2a2bd,2021-09-11_14h43.02.022,arrow_simon_vert,2021.1.2,Win32,60.46314771,,,,,,,,,,,,,,,,,,,,,right,1,1.471199999,13,FALSE,FALSE,3,0,12,1,1,,,,,,,
,,,,,,0,1.637917278,#f3af84,"[""0"",""-0.25""]",up_orange.png,up,,,,,,,,right,right_blue.png,up_orange.png,up,left,down,6104a21eb93f2042e3d2a2bd,2021-09-11_14h43.02.022,arrow_simon_vert,2021.1.2,Win32,60.46314771,,,,,,,,,,,,,,,,,,,,,up,1,1.1789,14,FALSE,TRUE,3,1,13,0,1,,,,,,,
,,,,,,0,2.228125206,#a3d0fb,"[""-0.25"",""0""]",left_blue.png,left,,,,,,,,left,left_blue.png,down_orange.png,down,left,down,6104a21eb93f2042e3d2a2bd,2021-09-11_14h43.02.022,arrow_simon_vert,2021.1.2,Win32,60.46314771,,,,,,,,,,,,,,,,,,,,,left,1,1.5695,15,FALSE,FALSE,3,2,14,2,1,,,,,,,
,,,,,,0,2.255363852,#f3af84,"[""0"",""-0.25""]",down_orange.png,down,,,,,,,,left,left_blue.png,down_orange.png,down,left,down,6104a21eb93f2042e3d2a2bd,2021-09-11_14h43.02.022,arrow_simon_vert,2021.1.2,Win32,60.46314771,,,,,,,,,,,,,,,,,,,,,down,1,1.824199999,16,TRUE,FALSE,3,3,15,2,1,,,,,,,
,,,,,,0,1.680603894,#a3d0fb,"[""0.25"",""0""]",left_blue.png,left,,,,,,,,left,left_blue.png,down_orange.png,down,right,up,6104a21eb93f2042e3d2a2bd,2021-09-11_14h43.02.022,arrow_simon_vert,2021.1.2,Win32,60.46314771,,,,,,,,,,,,,,,,,,,,,left,1,1.351599998,17,FALSE,TRUE,4,0,16,3,1,,,,,,,
,,,,,,0,2.020498213,#f3af84,"[""0"",""0.25""]",down_orange.png,down,,,,,,,,left,left_blue.png,down_orange.png,down,right,up,6104a21eb93f2042e3d2a2bd,2021-09-11_14h43.02.022,arrow_simon_vert,2021.1.2,Win32,60.46314771,,,,,,,,,,,,,,,,,,,,,down,1,1.672099998,18,TRUE,FALSE,4,1,17,3,1,,,,,,,
,,,,,,0,2.066312583,#a3d0fb,"[""0.25"",""0""]",right_blue.png,right,,,,,,,,right,right_blue.png,up_orange.png,up,right,up,6104a21eb93f2042e3d2a2bd,2021-09-11_14h43.02.022,arrow_simon_vert,2021.1.2,Win32,60.46314771,,,,,,,,,,,,,,,,,,,,,right,1,1.6409,19,TRUE,FALSE,4,2,18,1,1,,,,,,,
,,,,,,0,1.806489587,#f3af84,"[""0"",""-0.25""]",up_orange.png,up,,,,,,,,right,right_blue.png,up_orange.png,up,left,down,6104a21eb93f2042e3d2a2bd,2021-09-11_14h43.02.022,arrow_simon_vert,2021.1.2,Win32,60.46314771,,,,,,,,,,,,,,,,,,,,,up,1,1.5376,20,FALSE,FALSE,4,3,19,0,1,,,,,,,
,,,,,,0,1.869539132,#a3d0fb,"[""0.25"",""0""]",left_blue.png,left,,,,,,,,left,left_blue.png,down_orange.png,down,right,up,6104a21eb93f2042e3d2a2bd,2021-09-11_14h43.02.022,arrow_simon_vert,2021.1.2,Win32,60.46314771,,,,,,,,,,,,,,,,,,,,,left,1,1.503200001,21,FALSE,FALSE,5,0,20,3,1,,,,,,,
,,,,,,0,2.157570094,#f3af84,"[""0"",""0.25""]",down_orange.png,down,,,,,,,,left,left_blue.png,down_orange.png,down,right,up,6104a21eb93f2042e3d2a2bd,2021-09-11_14h43.02.022,arrow_simon_vert,2021.1.2,Win32,60.46314771,,,,,,,,,,,,,,,,,,,,,down,1,1.5355,22,FALSE,FALSE,5,1,21,3,1,,,,,,,
,,,,,,0,1.884523889,#a3d0fb,"[""-0.25"",""0""]",right_blue.png,right,,,,,,,,right,right_blue.png,up_orange.png,up,left,down,6104a21eb93f2042e3d2a2bd,2021-09-11_14h43.02.022,arrow_simon_vert,2021.1.2,Win32,60.46314771,,,,,,,,,,,,,,,,,,,,,right,1,1.394299999,23,FALSE,TRUE,5,2,22,0,1,,,,,,,
,,,,,,0,1.811115302,#f3af84,"[""0"",""-0.25""]",up_orange.png,up,,,,,,,,right,right_blue.png,up_orange.png,up,left,down,6104a21eb93f2042e3d2a2bd,2021-09-11_14h43.02.022,arrow_simon_vert,2021.1.2,Win32,60.46314771,,,,,,,,,,,,,,,,,,,,,up,1,1.5909,24,FALSE,FALSE,5,3,23,0,1,,,,,,,
,,,,,,0,1.907100423,#a3d0fb,"[""-0.25"",""0""]",right_blue.png,right,,,,,,,,right,right_blue.png,up_orange.png,up,left,down,6104a21eb93f2042e3d2a2bd,2021-09-11_14h43.02.022,arrow_simon_vert,2021.1.2,Win32,60.46314771,,,,,,,,,,,,,,,,,,,,,right,1,1.6685,25,TRUE,FALSE,6,0,24,0,1,,,,,,,
,,,,,,0,2.209053867,#f3af84,"[""0"",""-0.25""]",down_orange.png,down,,,,,,,,left,left_blue.png,down_orange.png,down,left,down,6104a21eb93f2042e3d2a2bd,2021-09-11_14h43.02.022,arrow_simon_vert,2021.1.2,Win32,60.46314771,,,,,,,,,,,,,,,,,,,,,down,1,1.726900002,26,TRUE,FALSE,6,1,25,2,1,,,,,,,
,,,,,,0,2.428350437,#a3d0fb,"[""0.25"",""0""]",right_blue.png,right,,,,,,,,right,right_blue.png,up_orange.png,up,right,up,6104a21eb93f2042e3d2a2bd,2021-09-11_14h43.02.022,arrow_simon_vert,2021.1.2,Win32,60.46314771,,,,,,,,,,,,,,,,,,,,,right,1,1.660699999,27,TRUE,FALSE,6,2,26,1,1,,,,,,,
,,,,,,0,1.732137904,#f3af84,"[""0"",""-0.25""]",down_orange.png,down,,,,,,,,left,left_blue.png,down_orange.png,down,left,down,6104a21eb93f2042e3d2a2bd,2021-09-11_14h43.02.022,arrow_simon_vert,2021.1.2,Win32,60.46314771,,,,,,,,,,,,,,,,,,,,,down,1,1.284700001,28,FALSE,TRUE,6,3,27,2,1,,,,,,,
,,,,,,0,2.207907385,#a3d0fb,"[""0.25"",""0""]",right_blue.png,right,,,,,,,,right,right_blue.png,up_orange.png,up,right,up,6104a21eb93f2042e3d2a2bd,2021-09-11_14h43.02.022,arrow_simon_vert,2021.1.2,Win32,60.46314771,,,,,,,,,,,,,,,,,,,,,right,1,1.5381,29,FALSE,FALSE,7,0,28,1,1,,,,,,,
,,,,,,0,1.621139435,#f3af84,"[""0"",""-0.25""]",down_orange.png,down,,,,,,,,left,left_blue.png,down_orange.png,down,left,down,6104a21eb93f2042e3d2a2bd,2021-09-11_14h43.02.022,arrow_simon_vert,2021.1.2,Win32,60.46314771,,,,,,,,,,,,,,,,,,,,,down,1,1.134599998,30,FALSE,TRUE,7,1,29,2,1,,,,,,,
,,,,,,0,2.039562937,#a3d0fb,"[""0.25"",""0""]",left_blue.png,left,,,,,,,,left,left_blue.png,down_orange.png,down,right,up,6104a21eb93f2042e3d2a2bd,2021-09-11_14h43.02.022,arrow_simon_vert,2021.1.2,Win32,60.46314771,,,,,,,,,,,,,,,,,,,,,right,0,1.6781,31,TRUE,FALSE,7,2,30,3,1,,,,,,,
,,,,,,0,2.074249773,#f3af84,"[""0"",""0.25""]",up_orange.png,up,,,,,,,,right,right_blue.png,up_orange.png,up,right,up,6104a21eb93f2042e3d2a2bd,2021-09-11_14h43.02.022,arrow_simon_vert,2021.1.2,Win32,60.46314771,,,,,,,,,,,,,,,,,,,,,up,1,1.785,32,TRUE,FALSE,7,3,31,1,1,,,,,,,
,,,,,,0,1.641089367,#a3d0fb,"[""0.25"",""0""]",left_blue.png,left,,,,,,,,left,left_blue.png,down_orange.png,down,right,up,6104a21eb93f2042e3d2a2bd,2021-09-11_14h43.02.022,arrow_simon_vert,2021.1.2,Win32,60.46314771,,,,,,,,,,,,,,,,,,,,,left,1,1.3545,33,FALSE,TRUE,8,0,32,3,1,,,,,,,
,,,,,,0,2.377504544,#f3af84,"[""0"",""0.25""]",up_orange.png,up,,,,,,,,right,right_blue.png,up_orange.png,up,right,up,6104a21eb93f2042e3d2a2bd,2021-09-11_14h43.02.022,arrow_simon_vert,2021.1.2,Win32,60.46314771,,,,,,,,,,,,,,,,,,,,,up,1,1.695200001,34,TRUE,FALSE,8,1,33,1,1,,,,,,,
,,,,,,0,1.990150745,#a3d0fb,"[""-0.25"",""0""]",right_blue.png,right,,,,,,,,right,right_blue.png,up_orange.png,up,left,down,6104a21eb93f2042e3d2a2bd,2021-09-11_14h43.02.022,arrow_simon_vert,2021.1.2,Win32,60.46314771,,,,,,,,,,,,,,,,,,,,,right,1,1.7179,35,TRUE,FALSE,8,2,34,0,1,,,,,,,
,,,,,,0,1.884241983,#f3af84,"[""0"",""0.25""]",down_orange.png,down,,,,,,,,left,left_blue.png,down_orange.png,down,right,up,6104a21eb93f2042e3d2a2bd,2021-09-11_14h43.02.022,arrow_simon_vert,2021.1.2,Win32,60.46314771,,,,,,,,,,,,,,,,,,,,,down,1,1.3849,36,FALSE,TRUE,8,3,35,3,1,,,,,,,
,,,,,,0,1.999779096,#a3d0fb,"[""-0.25"",""0""]",right_blue.png,right,,,,,,,,right,right_blue.png,up_orange.png,up,left,down,6104a21eb93f2042e3d2a2bd,2021-09-11_14h43.02.022,arrow_simon_vert,2021.1.2,Win32,60.46314771,,,,,,,,,,,,,,,,,,,,,right,1,1.5681,37,FALSE,FALSE,9,0,36,0,1,,,,,,,
,,,,,,0,2.404075766,#f3af84,"[""0"",""-0.25""]",down_orange.png,down,,,,,,,,left,left_blue.png,down_orange.png,down,left,down,6104a21eb93f2042e3d2a2bd,2021-09-11_14h43.02.022,arrow_simon_vert,2021.1.2,Win32,60.46314771,,,,,,,,,,,,,,,,,,,,,down,1,1.768300001,38,TRUE,FALSE,9,1,37,2,1,,,,,,,
,,,,,,0,2.345535867,#a3d0fb,"[""-0.25"",""0""]",left_blue.png,left,,,,,,,,left,left_blue.png,down_orange.png,down,left,down,6104a21eb93f2042e3d2a2bd,2021-09-11_14h43.02.022,arrow_simon_vert,2021.1.2,Win32,60.46314771,,,,,,,,,,,,,,,,,,,,,left,1,1.735300001,39,TRUE,FALSE,9,2,38,2,1,,,,,,,
,,,,,,0,1.748194506,#f3af84,"[""0"",""0.25""]",up_orange.png,up,,,,,,,,right,right_blue.png,up_orange.png,up,right,up,6104a21eb93f2042e3d2a2bd,2021-09-11_14h43.02.022,arrow_simon_vert,2021.1.2,Win32,60.46314771,,,,,,,,,,,,,,,,,,,,,up,1,1.418900002,40,FALSE,FALSE,9,3,39,1,1,,,,,,,
,,,,,,0,2.013397404,#a3d0fb,"[""-0.25"",""0""]",right_blue.png,right,,,,,,,,right,right_blue.png,up_orange.png,up,left,down,6104a21eb93f2042e3d2a2bd,2021-09-11_14h43.02.022,arrow_simon_vert,2021.1.2,Win32,60.46314771,,,,,,,,,,,,,,,,,,,,,right,1,1.618400002,41,TRUE,FALSE,10,0,40,0,1,,,,,,,
,,,,,,0,2.001927722,#f3af84,"[""0"",""-0.25""]",down_orange.png,down,,,,,,,,left,left_blue.png,down_orange.png,down,left,down,6104a21eb93f2042e3d2a2bd,2021-09-11_14h43.02.022,arrow_simon_vert,2021.1.2,Win32,60.46314771,,,,,,,,,,,,,,,,,,,,,down,1,1.435699999,42,FALSE,FALSE,10,1,41,2,1,,,,,,,
,,,,,,0,1.72717788,#a3d0fb,"[""-0.25"",""0""]",left_blue.png,left,,,,,,,,left,left_blue.png,down_orange.png,down,left,down,6104a21eb93f2042e3d2a2bd,2021-09-11_14h43.02.022,arrow_simon_vert,2021.1.2,Win32,60.46314771,,,,,,,,,,,,,,,,,,,,,left,1,1.1691,43,FALSE,TRUE,10,2,42,2,1,,,,,,,
,,,,,,0,1.765214744,#f3af84,"[""0"",""-0.25""]",up_orange.png,up,,,,,,,,right,right_blue.png,up_orange.png,up,left,down,6104a21eb93f2042e3d2a2bd,2021-09-11_14h43.02.022,arrow_simon_vert,2021.1.2,Win32,60.46314771,,,,,,,,,,,,,,,,,,,,,down,0,1.0865,44,FALSE,TRUE,10,3,43,0,1,,,,,,,
,,,,,,0,1.837763742,#a3d0fb,"[""0.25"",""0""]",left_blue.png,left,,,,,,,,left,left_blue.png,down_orange.png,down,right,up,6104a21eb93f2042e3d2a2bd,2021-09-11_14h43.02.022,arrow_simon_vert,2021.1.2,Win32,60.46314771,,,,,,,,,,,,,,,,,,,,,left,1,1.635,45,TRUE,FALSE,11,0,44,3,1,,,,,,,
,,,,,,0,2.411208939,#f3af84,"[""0"",""0.25""]",down_orange.png,down,,,,,,,,left,left_blue.png,down_orange.png,down,right,up,6104a21eb93f2042e3d2a2bd,2021-09-11_14h43.02.022,arrow_simon_vert,2021.1.2,Win32,60.46314771,,,,,,,,,,,,,,,,,,,,,down,1,1.851199999,46,TRUE,FALSE,11,1,45,3,1,,,,,,,
,,,,,,0,2.362219497,#a3d0fb,"[""0.25"",""0""]",left_blue.png,left,,,,,,,,left,left_blue.png,down_orange.png,down,right,up,6104a21eb93f2042e3d2a2bd,2021-09-11_14h43.02.022,arrow_simon_vert,2021.1.2,Win32,60.46314771,,,,,,,,,,,,,,,,,,,,,left,1,1.7175,47,TRUE,FALSE,11,2,46,3,1,,,,,,,
,,,,,,0,1.513721415,#f3af84,"[""0"",""-0.25""]",down_orange.png,down,,,,,,,,left,left_blue.png,down_orange.png,down,left,down,6104a21eb93f2042e3d2a2bd,2021-09-11_14h43.02.022,arrow_simon_vert,2021.1.2,Win32,60.46314771,,,,,,,,,,,,,,,,,,,,,down,1,1.1121,48,FALSE,TRUE,11,3,47,2,1,,,,,,,
,,,,,,0,1.817213965,#a3d0fb,"[""-0.25"",""0""]",left_blue.png,left,,,,,,,,left,left_blue.png,down_orange.png,down,left,down,6104a21eb93f2042e3d2a2bd,2021-09-11_14h43.02.022,arrow_simon_vert,2021.1.2,Win32,60.46314771,,,,,,,,,,,,,,,,,,,,,left,1,1.189200001,49,FALSE,TRUE,12,0,48,2,1,,,,,,,
,,,,,,0,2.216958292,#f3af84,"[""0"",""0.25""]",up_orange.png,up,,,,,,,,right,right_blue.png,up_orange.png,up,right,up,6104a21eb93f2042e3d2a2bd,2021-09-11_14h43.02.022,arrow_simon_vert,2021.1.2,Win32,60.46314771,,,,,,,,,,,,,,,,,,,,,up,1,1.6555,50,TRUE,FALSE,12,1,49,1,1,,,,,,,
,,,,,,0,1.898261328,#a3d0fb,"[""-0.25"",""0""]",right_blue.png,right,,,,,,,,right,right_blue.png,up_orange.png,up,left,down,6104a21eb93f2042e3d2a2bd,2021-09-11_14h43.02.022,arrow_simon_vert,2021.1.2,Win32,60.46314771,,,,,,,,,,,,,,,,,,,,,right,1,1.371,51,FALSE,TRUE,12,2,50,0,1,,,,,,,
,,,,,,0,1.814901798,#f3af84,"[""0"",""-0.25""]",up_orange.png,up,,,,,,,,right,right_blue.png,up_orange.png,up,left,down,6104a21eb93f2042e3d2a2bd,2021-09-11_14h43.02.022,arrow_simon_vert,2021.1.2,Win32,60.46314771,,,,,,,,,,,,,,,,,,,,,up,1,1.335,52,FALSE,TRUE,12,3,51,0,1,,,,,,,
,,,,,,1,2.142147685,#a3d0fb,"[""0.25"",""0""]",left_blue.png,left,,,,,,,,left,left_blue.png,down_orange.png,down,right,up,6104a21eb93f2042e3d2a2bd,2021-09-11_14h43.02.022,arrow_simon_vert,2021.1.2,Win32,60.46314771,,,,,,,,,,,,,,,,,,,,,right,0,1.402,53,FALSE,FALSE,13,0,52,3,1,,,,,,,
,,,,,,0,1.971571421,#f3af84,"[""0"",""0.25""]",down_orange.png,down,,,,,,,,left,left_blue.png,down_orange.png,down,right,up,6104a21eb93f2042e3d2a2bd,2021-09-11_14h43.02.022,arrow_simon_vert,2021.1.2,Win32,60.46314771,,,,,,,,,,,,,,,,,,,,,down,1,1.5184,54,FALSE,FALSE,13,1,53,3,1,,,,,,,
,,,,,,0,2.190115312,#a3d0fb,"[""0.25"",""0""]",left_blue.png,left,,,,,,,,left,left_blue.png,down_orange.png,down,right,up,6104a21eb93f2042e3d2a2bd,2021-09-11_14h43.02.022,arrow_simon_vert,2021.1.2,Win32,60.46314771,,,,,,,,,,,,,,,,,,,,,left,1,1.504700001,55,FALSE,FALSE,13,2,54,3,1,,,,,,,
,,,,,,0,2.124503629,#f3af84,"[""0"",""-0.25""]",down_orange.png,down,,,,,,,,left,left_blue.png,down_orange.png,down,left,down,6104a21eb93f2042e3d2a2bd,2021-09-11_14h43.02.022,arrow_simon_vert,2021.1.2,Win32,60.46314771,,,,,,,,,,,,,,,,,,,,,down,1,1.501900002,56,FALSE,FALSE,13,3,55,2,1,,,,,,,
,,,,,,0,1.535868407,#a3d0fb,"[""0.25"",""0""]",right_blue.png,right,,,,,,,,right,right_blue.png,up_orange.png,up,right,up,6104a21eb93f2042e3d2a2bd,2021-09-11_14h43.02.022,arrow_simon_vert,2021.1.2,Win32,60.46314771,,,,,,,,,,,,,,,,,,,,,right,1,1.3126,57,FALSE,TRUE,14,0,56,1,1,,,,,,,
,,,,,,0,1.513777211,#f3af84,"[""0"",""-0.25""]",up_orange.png,up,,,,,,,,right,right_blue.png,up_orange.png,up,left,down,6104a21eb93f2042e3d2a2bd,2021-09-11_14h43.02.022,arrow_simon_vert,2021.1.2,Win32,60.46314771,,,,,,,,,,,,,,,,,,,,,up,1,1.293,58,FALSE,TRUE,14,1,57,0,1,,,,,,,
,,,,,,0,2.345190522,#a3d0fb,"[""0.25"",""0""]",right_blue.png,right,,,,,,,,right,right_blue.png,up_orange.png,up,right,up,6104a21eb93f2042e3d2a2bd,2021-09-11_14h43.02.022,arrow_simon_vert,2021.1.2,Win32,60.46314771,,,,,,,,,,,,,,,,,,,,,right,1,1.6681,59,TRUE,FALSE,14,2,58,1,1,,,,,,,
,,,,,,0,2.070341271,#f3af84,"[""0"",""0.25""]",down_orange.png,down,,,,,,,,left,left_blue.png,down_orange.png,down,right,up,6104a21eb93f2042e3d2a2bd,2021-09-11_14h43.02.022,arrow_simon_vert,2021.1.2,Win32,60.46314771,,,,,,,,,,,,,,,,,,,,,down,1,1.501299999,60,FALSE,FALSE,14,3,59,3,1,,,,,,,
,,,,,,,,,,,,,,,,,,,,,,,,,6104a21eb93f2042e3d2a2bd,2021-09-11_14h43.02.022,arrow_simon_vert,2021.1.2,Win32,60.46314771,,,,,,,,,,,,,,,,,,,,,,,,,,,,,,,,space,9.223299999,2,0,2,0,1
,,,,,,0,1.908542521,#a3d0fb,"[""-0.25"",""0""]",left_blue.png,left,,,,,,,,left,left_blue.png,down_orange.png,down,left,down,6104a21eb93f2042e3d2a2bd,2021-09-11_14h43.02.022,arrow_simon_vert,2021.1.2,Win32,60.46314771,,,,,,,,,,,,,,,,,,,,,left,1,1.851300001,1,TRUE,FALSE,0,0,0,2,1,,,,,,,
,,,,,,0,1.554067441,#f3af84,"[""0"",""-0.25""]",up_orange.png,up,,,,,,,,right,right_blue.png,up_orange.png,up,left,down,6104a21eb93f2042e3d2a2bd,2021-09-11_14h43.02.022,arrow_simon_vert,2021.1.2,Win32,60.46314771,,,,,,,,,,,,,,,,,,,,,up,1,1.2939,2,FALSE,TRUE,0,1,1,0,1,,,,,,,
,,,,,,0,1.854774691,#a3d0fb,"[""0.25"",""0""]",left_blue.png,left,,,,,,,,left,left_blue.png,down_orange.png,down,right,up,6104a21eb93f2042e3d2a2bd,2021-09-11_14h43.02.022,arrow_simon_vert,2021.1.2,Win32,60.46314771,,,,,,,,,,,,,,,,,,,,,left,1,1.5056,3,FALSE,FALSE,0,2,2,3,1,,,,,,,
,,,,,,0,1.735169887,#f3af84,"[""0"",""-0.25""]",up_orange.png,up,,,,,,,,right,right_blue.png,up_orange.png,up,left,down,6104a21eb93f2042e3d2a2bd,2021-09-11_14h43.02.022,arrow_simon_vert,2021.1.2,Win32,60.46314771,,,,,,,,,,,,,,,,,,,,,up,1,1.408199999,4,FALSE,FALSE,0,3,3,0,1,,,,,,,
,,,,,,0,1.777503115,#a3d0fb,"[""0.25"",""0""]",right_blue.png,right,,,,,,,,right,right_blue.png,up_orange.png,up,right,up,6104a21eb93f2042e3d2a2bd,2021-09-11_14h43.02.022,arrow_simon_vert,2021.1.2,Win32,60.46314771,,,,,,,,,,,,,,,,,,,,,right,1,1.4619,5,FALSE,FALSE,1,0,4,1,1,,,,,,,
,,,,,,0,1.584176107,#f3af84,"[""0"",""0.25""]",down_orange.png,down,,,,,,,,left,left_blue.png,down_orange.png,down,right,up,6104a21eb93f2042e3d2a2bd,2021-09-11_14h43.02.022,arrow_simon_vert,2021.1.2,Win32,60.46314771,,,,,,,,,,,,,,,,,,,,,down,1,1.8175,6,TRUE,FALSE,1,1,5,3,1,,,,,,,
,,,,,,0,2.202712052,#a3d0fb,"[""0.25"",""0""]",right_blue.png,right,,,,,,,,right,right_blue.png,up_orange.png,up,right,up,6104a21eb93f2042e3d2a2bd,2021-09-11_14h43.02.022,arrow_simon_vert,2021.1.2,Win32,60.46314771,,,,,,,,,,,,,,,,,,,,,right,1,1.5524,7,FALSE,FALSE,1,2,6,1,1,,,,,,,
,,,,,,0,1.729671023,#f3af84,"[""0"",""-0.25""]",up_orange.png,up,,,,,,,,right,right_blue.png,up_orange.png,up,left,down,6104a21eb93f2042e3d2a2bd,2021-09-11_14h43.02.022,arrow_simon_vert,2021.1.2,Win32,60.46314771,,,,,,,,,,,,,,,,,,,,,up,1,1.4714,8,FALSE,FALSE,1,3,7,0,1,,,,,,,
,,,,,,0,2.470352997,#a3d0fb,"[""0.25"",""0""]",right_blue.png,right,,,,,,,,right,right_blue.png,up_orange.png,up,right,up,6104a21eb93f2042e3d2a2bd,2021-09-11_14h43.02.022,arrow_simon_vert,2021.1.2,Win32,60.46314771,,,,,,,,,,,,,,,,,,,,,right,1,1.075,9,FALSE,TRUE,2,0,8,1,1,,,,,,,
,,,,,,0,2.197944726,#f3af84,"[""0"",""-0.25""]",up_orange.png,up,,,,,,,,right,right_blue.png,up_orange.png,up,left,down,6104a21eb93f2042e3d2a2bd,2021-09-11_14h43.02.022,arrow_simon_vert,2021.1.2,Win32,60.46314771,,,,,,,,,,,,,,,,,,,,,up,1,1.695,10,TRUE,FALSE,2,1,9,0,1,,,,,,,
,,,,,,0,1.904121437,#a3d0fb,"[""0.25"",""0""]",left_blue.png,left,,,,,,,,left,left_blue.png,down_orange.png,down,right,up,6104a21eb93f2042e3d2a2bd,2021-09-11_14h43.02.022,arrow_simon_vert,2021.1.2,Win32,60.46314771,,,,,,,,,,,,,,,,,,,,,left,1,1.4009,11,FALSE,FALSE,2,2,10,3,1,,,,,,,
,,,,,,0,2.170842261,#f3af84,"[""0"",""0.25""]",down_orange.png,down,,,,,,,,left,left_blue.png,down_orange.png,down,right,up,6104a21eb93f2042e3d2a2bd,2021-09-11_14h43.02.022,arrow_simon_vert,2021.1.2,Win32,60.46314771,,,,,,,,,,,,,,,,,,,,,down,1,1.591199999,12,FALSE,FALSE,2,3,11,3,1,,,,,,,
