instruct_resp_simon.keys,instruct_resp_simon.corr,instruct_resp_simon.rt,trial_resp_simon.keys,trial_resp_simon.corr,trial_resp_simon.rt,kerr,target_onset,target_color,target_pos,target_file,target_resp,trials_train_simon.thisRepN,trials_train_simon.thisTrialN,trials_train_simon.thisN,trials_train_simon.thisIndex,trials_train_simon.ran,odd_target_pos,even_target_pos,odd_target_resp,odd_target_file,even_target_file,even_target_resp,odd_target_side,even_target_side,participant,date,expName,psychopyVersion,OS,frameRate,train_block_note_resp.keys,train_block_note_resp.rt,blocks_train.thisRepN,blocks_train.thisTrialN,blocks_train.thisN,blocks_train.thisIndex,blocks_train.ran,instruct_resp_timing.keys,instruct_resp_timing.corr,instruct_resp_timing.rt,trial_resp_timing.keys,trial_resp_timing.rt,trials_train_timing.thisRepN,trials_train_timing.thisTrialN,trials_train_timing.thisN,trials_train_timing.thisIndex,trials_train_timing.ran,instruct_resp.keys,instruct_resp.corr,instruct_resp.rt,trial_resp.keys,trial_resp.corr,trial_resp.rt,trial_num,too_slow,too_soon,trials.thisRepN,trials.thisTrialN,trials.thisN,trials.thisIndex,trials.ran,block_note_resp.keys,block_note_resp.rt,blocks.thisRepN,blocks.thisTrialN,blocks.thisN,blocks.thisIndex,blocks.ran
space,0,51.526,down,0,1.5913,1,0.717625258,#a3d0fb,"[""0.25"",""0""]",left_blue.png,left,0,0,0,3,1,,,left,left_blue.png,down_orange.png,down,right,up,610d6c481ca4797b863fe3d1,2021-09-11_17h52.44.217,arrow_simon_vert,2021.1.2,MacIntel,59.99160118,,,,,,,,,,,,,,,,,,,,,,,,,,,,,,,,,,,,,,
,,,up,1,2.7774,0,0.149925743,#f3af84,"[""0"",""0.25""]",up_orange.png,up,0,1,1,1,1,,,right,right_blue.png,up_orange.png,up,right,up,610d6c481ca4797b863fe3d1,2021-09-11_17h52.44.217,arrow_simon_vert,2021.1.2,MacIntel,59.99160118,,,,,,,,,,,,,,,,,,,,,,,,,,,,,,,,,,,,,,
,,,left,1,1.1693,0,0.605030525,#a3d0fb,"[""0.25"",""0""]",left_blue.png,left,0,2,2,3,1,,,left,left_blue.png,down_orange.png,down,right,up,610d6c481ca4797b863fe3d1,2021-09-11_17h52.44.217,arrow_simon_vert,2021.1.2,MacIntel,59.99160118,,,,,,,,,,,,,,,,,,,,,,,,,,,,,,,,,,,,,,
,,,down,1,1.9423,0,0.416610441,#f3af84,"[""0"",""0.25""]",down_orange.png,down,0,3,3,3,1,,,left,left_blue.png,down_orange.png,down,right,up,610d6c481ca4797b863fe3d1,2021-09-11_17h52.44.217,arrow_simon_vert,2021.1.2,MacIntel,59.99160118,,,,,,,,,,,,,,,,,,,,,,,,,,,,,,,,,,,,,,
,,,right,1,1.8117,0,0.567765667,#a3d0fb,"[""-0.25"",""0""]",right_blue.png,right,1,0,4,0,1,,,right,right_blue.png,up_orange.png,up,left,down,610d6c481ca4797b863fe3d1,2021-09-11_17h52.44.217,arrow_simon_vert,2021.1.2,MacIntel,59.99160118,,,,,,,,,,,,,,,,,,,,,,,,,,,,,,,,,,,,,,
,,,down,1,1.5425,0,0.016654888,#f3af84,"[""0"",""0.25""]",down_orange.png,down,1,1,5,3,1,,,left,left_blue.png,down_orange.png,down,right,up,610d6c481ca4797b863fe3d1,2021-09-11_17h52.44.217,arrow_simon_vert,2021.1.2,MacIntel,59.99160118,,,,,,,,,,,,,,,,,,,,,,,,,,,,,,,,,,,,,,
,,,right,1,1.2963,0,0.497440755,#a3d0fb,"[""0.25"",""0""]",right_blue.png,right,1,2,6,1,1,,,right,right_blue.png,up_orange.png,up,right,up,610d6c481ca4797b863fe3d1,2021-09-11_17h52.44.217,arrow_simon_vert,2021.1.2,MacIntel,59.99160118,,,,,,,,,,,,,,,,,,,,,,,,,,,,,,,,,,,,,,
,,,down,1,2.2986,0,0.414359071,#f3af84,"[""0"",""-0.25""]",down_orange.png,down,1,3,7,2,1,,,left,left_blue.png,down_orange.png,down,left,down,610d6c481ca4797b863fe3d1,2021-09-11_17h52.44.217,arrow_simon_vert,2021.1.2,MacIntel,59.99160118,,,,,,,,,,,,,,,,,,,,,,,,,,,,,,,,,,,,,,
,,,right,1,1.2904,0,0.712072215,#a3d0fb,"[""0.25"",""0""]",right_blue.png,right,2,0,8,1,1,,,right,right_blue.png,up_orange.png,up,right,up,610d6c481ca4797b863fe3d1,2021-09-11_17h52.44.217,arrow_simon_vert,2021.1.2,MacIntel,59.99160118,,,,,,,,,,,,,,,,,,,,,,,,,,,,,,,,,,,,,,
,,,up,1,2.7454,0,0.417487925,#f3af84,"[""0"",""-0.25""]",up_orange.png,up,2,1,9,0,1,,,right,right_blue.png,up_orange.png,up,left,down,610d6c481ca4797b863fe3d1,2021-09-11_17h52.44.217,arrow_simon_vert,2021.1.2,MacIntel,59.99160118,,,,,,,,,,,,,,,,,,,,,,,,,,,,,,,,,,,,,,
,,,left,1,1.2479,0,0.322593661,#a3d0fb,"[""-0.25"",""0""]",left_blue.png,left,2,2,10,2,1,,,left,left_blue.png,down_orange.png,down,left,down,610d6c481ca4797b863fe3d1,2021-09-11_17h52.44.217,arrow_simon_vert,2021.1.2,MacIntel,59.99160118,,,,,,,,,,,,,,,,,,,,,,,,,,,,,,,,,,,,,,
,,,up,1,1.3826,0,0.310336812,#f3af84,"[""0"",""0.25""]",up_orange.png,up,2,3,11,1,1,,,right,right_blue.png,up_orange.png,up,right,up,610d6c481ca4797b863fe3d1,2021-09-11_17h52.44.217,arrow_simon_vert,2021.1.2,MacIntel,59.99160118,,,,,,,,,,,,,,,,,,,,,,,,,,,,,,,,,,,,,,
,,,left,1,1.1199,0,0.310786042,#a3d0fb,"[""0.25"",""0""]",left_blue.png,left,3,0,12,3,1,,,left,left_blue.png,down_orange.png,down,right,up,610d6c481ca4797b863fe3d1,2021-09-11_17h52.44.217,arrow_simon_vert,2021.1.2,MacIntel,59.99160118,,,,,,,,,,,,,,,,,,,,,,,,,,,,,,,,,,,,,,
,,,down,1,1.7554,0,0.613375013,#f3af84,"[""0"",""-0.25""]",down_orange.png,down,3,1,13,2,1,,,left,left_blue.png,down_orange.png,down,left,down,610d6c481ca4797b863fe3d1,2021-09-11_17h52.44.217,arrow_simon_vert,2021.1.2,MacIntel,59.99160118,,,,,,,,,,,,,,,,,,,,,,,,,,,,,,,,,,,,,,
,,,right,1,1.2822,0,0.394504155,#a3d0fb,"[""-0.25"",""0""]",right_blue.png,right,3,2,14,0,1,,,right,right_blue.png,up_orange.png,up,left,down,610d6c481ca4797b863fe3d1,2021-09-11_17h52.44.217,arrow_simon_vert,2021.1.2,MacIntel,59.99160118,,,,,,,,,,,,,,,,,,,,,,,,,,,,,,,,,,,,,,
,,,down,1,2.1425,0,0.000416139,#f3af84,"[""0"",""0.25""]",down_orange.png,down,3,3,15,3,1,,,left,left_blue.png,down_orange.png,down,right,up,610d6c481ca4797b863fe3d1,2021-09-11_17h52.44.217,arrow_simon_vert,2021.1.2,MacIntel,59.99160118,,,,,,,,,,,,,,,,,,,,,,,,,,,,,,,,,,,,,,
,,,right,1,1.2866,0,0.38066664,#a3d0fb,"[""0.25"",""0""]",right_blue.png,right,4,0,16,1,1,,,right,right_blue.png,up_orange.png,up,right,up,610d6c481ca4797b863fe3d1,2021-09-11_17h52.44.217,arrow_simon_vert,2021.1.2,MacIntel,59.99160118,,,,,,,,,,,,,,,,,,,,,,,,,,,,,,,,,,,,,,
,,,up,1,2.6964,0,0.835289411,#f3af84,"[""0"",""0.25""]",up_orange.png,up,4,1,17,1,1,,,right,right_blue.png,up_orange.png,up,right,up,610d6c481ca4797b863fe3d1,2021-09-11_17h52.44.217,arrow_simon_vert,2021.1.2,MacIntel,59.99160118,,,,,,,,,,,,,,,,,,,,,,,,,,,,,,,,,,,,,,
,,,right,1,1.7811,0,0.157032599,#a3d0fb,"[""-0.25"",""0""]",right_blue.png,right,4,2,18,0,1,,,right,right_blue.png,up_orange.png,up,left,down,610d6c481ca4797b863fe3d1,2021-09-11_17h52.44.217,arrow_simon_vert,2021.1.2,MacIntel,59.99160118,,,,,,,,,,,,,,,,,,,,,,,,,,,,,,,,,,,,,,
,,,up,1,1.664,0,0.64847195,#f3af84,"[""0"",""-0.25""]",up_orange.png,up,4,3,19,0,1,,,right,right_blue.png,up_orange.png,up,left,down,610d6c481ca4797b863fe3d1,2021-09-11_17h52.44.217,arrow_simon_vert,2021.1.2,MacIntel,59.99160118,,,,,,,,,,,,,,,,,,,,,,,,,,,,,,,,,,,,,,
,,,right,1,1.3802,0,0.828013967,#a3d0fb,"[""0.25"",""0""]",right_blue.png,right,5,0,20,1,1,,,right,right_blue.png,up_orange.png,up,right,up,610d6c481ca4797b863fe3d1,2021-09-11_17h52.44.217,arrow_simon_vert,2021.1.2,MacIntel,59.99160118,,,,,,,,,,,,,,,,,,,,,,,,,,,,,,,,,,,,,,
,,,up,1,1.8439,0,0.669846098,#f3af84,"[""0"",""0.25""]",up_orange.png,up,5,1,21,1,1,,,right,right_blue.png,up_orange.png,up,right,up,610d6c481ca4797b863fe3d1,2021-09-11_17h52.44.217,arrow_simon_vert,2021.1.2,MacIntel,59.99160118,,,,,,,,,,,,,,,,,,,,,,,,,,,,,,,,,,,,,,
,,,left,1,1.7983,0,0.644944704,#a3d0fb,"[""0.25"",""0""]",left_blue.png,left,5,2,22,3,1,,,left,left_blue.png,down_orange.png,down,right,up,610d6c481ca4797b863fe3d1,2021-09-11_17h52.44.217,arrow_simon_vert,2021.1.2,MacIntel,59.99160118,,,,,,,,,,,,,,,,,,,,,,,,,,,,,,,,,,,,,,
,,,down,1,1.4449,0,0.917870093,#f3af84,"[""0"",""-0.25""]",down_orange.png,down,5,3,23,2,1,,,left,left_blue.png,down_orange.png,down,left,down,610d6c481ca4797b863fe3d1,2021-09-11_17h52.44.217,arrow_simon_vert,2021.1.2,MacIntel,59.99160118,,,,,,,,,,,,,,,,,,,,,,,,,,,,,,,,,,,,,,
,,,right,1,1.2293,0,0.616913978,#a3d0fb,"[""0.25"",""0""]",right_blue.png,right,6,0,24,1,1,,,right,right_blue.png,up_orange.png,up,right,up,610d6c481ca4797b863fe3d1,2021-09-11_17h52.44.217,arrow_simon_vert,2021.1.2,MacIntel,59.99160118,,,,,,,,,,,,,,,,,,,,,,,,,,,,,,,,,,,,,,
,,,down,1,1.2474,0,0.347831747,#f3af84,"[""0"",""0.25""]",down_orange.png,down,6,1,25,3,1,,,left,left_blue.png,down_orange.png,down,right,up,610d6c481ca4797b863fe3d1,2021-09-11_17h52.44.217,arrow_simon_vert,2021.1.2,MacIntel,59.99160118,,,,,,,,,,,,,,,,,,,,,,,,,,,,,,,,,,,,,,
,,,down,0,1.2273,1,0.219853503,#a3d0fb,"[""-0.25"",""0""]",left_blue.png,left,6,2,26,2,1,,,left,left_blue.png,down_orange.png,down,left,down,610d6c481ca4797b863fe3d1,2021-09-11_17h52.44.217,arrow_simon_vert,2021.1.2,MacIntel,59.99160118,,,,,,,,,,,,,,,,,,,,,,,,,,,,,,,,,,,,,,
,,,down,1,1.4826,0,0.216982859,#f3af84,"[""0"",""-0.25""]",down_orange.png,down,6,3,27,2,1,,,left,left_blue.png,down_orange.png,down,left,down,610d6c481ca4797b863fe3d1,2021-09-11_17h52.44.217,arrow_simon_vert,2021.1.2,MacIntel,59.99160118,,,,,,,,,,,,,,,,,,,,,,,,,,,,,,,,,,,,,,
,,,left,1,1.0728,0,0.067715385,#a3d0fb,"[""0.25"",""0""]",left_blue.png,left,7,0,28,3,1,,,left,left_blue.png,down_orange.png,down,right,up,610d6c481ca4797b863fe3d1,2021-09-11_17h52.44.217,arrow_simon_vert,2021.1.2,MacIntel,59.99160118,,,,,,,,,,,,,,,,,,,,,,,,,,,,,,,,,,,,,,
,,,down,1,2.2519,0,0.863169482,#f3af84,"[""0"",""0.25""]",down_orange.png,down,7,1,29,3,1,,,left,left_blue.png,down_orange.png,down,right,up,610d6c481ca4797b863fe3d1,2021-09-11_17h52.44.217,arrow_simon_vert,2021.1.2,MacIntel,59.99160118,,,,,,,,,,,,,,,,,,,,,,,,,,,,,,,,,,,,,,
,,,right,1,1.5034,0,0.11518496,#a3d0fb,"[""-0.25"",""0""]",right_blue.png,right,7,2,30,0,1,,,right,right_blue.png,up_orange.png,up,left,down,610d6c481ca4797b863fe3d1,2021-09-11_17h52.44.217,arrow_simon_vert,2021.1.2,MacIntel,59.99160118,,,,,,,,,,,,,,,,,,,,,,,,,,,,,,,,,,,,,,
,,,up,1,2.6723,0,0.726950122,#f3af84,"[""0"",""0.25""]",up_orange.png,up,7,3,31,1,1,,,right,right_blue.png,up_orange.png,up,right,up,610d6c481ca4797b863fe3d1,2021-09-11_17h52.44.217,arrow_simon_vert,2021.1.2,MacIntel,59.99160118,,,,,,,,,,,,,,,,,,,,,,,,,,,,,,,,,,,,,,
,,,right,1,1.4686,0,0.921134986,#a3d0fb,"[""0.25"",""0""]",right_blue.png,right,8,0,32,1,1,,,right,right_blue.png,up_orange.png,up,right,up,610d6c481ca4797b863fe3d1,2021-09-11_17h52.44.217,arrow_simon_vert,2021.1.2,MacIntel,59.99160118,,,,,,,,,,,,,,,,,,,,,,,,,,,,,,,,,,,,,,
,,,down,1,2.0192,0,0.353424042,#f3af84,"[""0"",""0.25""]",down_orange.png,down,8,1,33,3,1,,,left,left_blue.png,down_orange.png,down,right,up,610d6c481ca4797b863fe3d1,2021-09-11_17h52.44.217,arrow_simon_vert,2021.1.2,MacIntel,59.99160118,,,,,,,,,,,,,,,,,,,,,,,,,,,,,,,,,,,,,,
,,,right,1,1.4958,0,0.89953801,#a3d0fb,"[""-0.25"",""0""]",right_blue.png,right,8,2,34,0,1,,,right,right_blue.png,up_orange.png,up,left,down,610d6c481ca4797b863fe3d1,2021-09-11_17h52.44.217,arrow_simon_vert,2021.1.2,MacIntel,59.99160118,,,,,,,,,,,,,,,,,,,,,,,,,,,,,,,,,,,,,,
,,,up,1,2.3018,0,0.767538615,#f3af84,"[""0"",""0.25""]",up_orange.png,up,8,3,35,1,1,,,right,right_blue.png,up_orange.png,up,right,up,610d6c481ca4797b863fe3d1,2021-09-11_17h52.44.217,arrow_simon_vert,2021.1.2,MacIntel,59.99160118,,,,,,,,,,,,,,,,,,,,,,,,,,,,,,,,,,,,,,
,,,left,1,1.733,0,0.252681908,#a3d0fb,"[""-0.25"",""0""]",left_blue.png,left,9,0,36,2,1,,,left,left_blue.png,down_orange.png,down,left,down,610d6c481ca4797b863fe3d1,2021-09-11_17h52.44.217,arrow_simon_vert,2021.1.2,MacIntel,59.99160118,,,,,,,,,,,,,,,,,,,,,,,,,,,,,,,,,,,,,,
,,,up,1,1.6133,0,0.536174304,#f3af84,"[""0"",""-0.25""]",up_orange.png,up,9,1,37,0,1,,,right,right_blue.png,up_orange.png,up,left,down,610d6c481ca4797b863fe3d1,2021-09-11_17h52.44.217,arrow_simon_vert,2021.1.2,MacIntel,59.99160118,,,,,,,,,,,,,,,,,,,,,,,,,,,,,,,,,,,,,,
,,,right,1,1.6259,0,0.972625206,#a3d0fb,"[""-0.25"",""0""]",right_blue.png,right,9,2,38,0,1,,,right,right_blue.png,up_orange.png,up,left,down,610d6c481ca4797b863fe3d1,2021-09-11_17h52.44.217,arrow_simon_vert,2021.1.2,MacIntel,59.99160118,,,,,,,,,,,,,,,,,,,,,,,,,,,,,,,,,,,,,,
,,,down,1,2.0655,0,0.505205995,#f3af84,"[""0"",""-0.25""]",down_orange.png,down,9,3,39,2,1,,,left,left_blue.png,down_orange.png,down,left,down,610d6c481ca4797b863fe3d1,2021-09-11_17h52.44.217,arrow_simon_vert,2021.1.2,MacIntel,59.99160118,,,,,,,,,,,,,,,,,,,,,,,,,,,,,,,,,,,,,,
,,,right,1,1.3302,0,0.676947332,#a3d0fb,"[""-0.25"",""0""]",right_blue.png,right,10,0,40,0,1,,,right,right_blue.png,up_orange.png,up,left,down,610d6c481ca4797b863fe3d1,2021-09-11_17h52.44.217,arrow_simon_vert,2021.1.2,MacIntel,59.99160118,,,,,,,,,,,,,,,,,,,,,,,,,,,,,,,,,,,,,,
,,,down,1,1.8168,0,0.086573997,#f3af84,"[""0"",""-0.25""]",down_orange.png,down,10,1,41,2,1,,,left,left_blue.png,down_orange.png,down,left,down,610d6c481ca4797b863fe3d1,2021-09-11_17h52.44.217,arrow_simon_vert,2021.1.2,MacIntel,59.99160118,,,,,,,,,,,,,,,,,,,,,,,,,,,,,,,,,,,,,,
,,,left,1,1.3447,0,0.033994697,#a3d0fb,"[""-0.25"",""0""]",left_blue.png,left,10,2,42,2,1,,,left,left_blue.png,down_orange.png,down,left,down,610d6c481ca4797b863fe3d1,2021-09-11_17h52.44.217,arrow_simon_vert,2021.1.2,MacIntel,59.99160118,,,,,,,,,,,,,,,,,,,,,,,,,,,,,,,,,,,,,,
,,,down,1,1.3352,0,0.556943433,#f3af84,"[""0"",""0.25""]",down_orange.png,down,10,3,43,3,1,,,left,left_blue.png,down_orange.png,down,right,up,610d6c481ca4797b863fe3d1,2021-09-11_17h52.44.217,arrow_simon_vert,2021.1.2,MacIntel,59.99160118,,,,,,,,,,,,,,,,,,,,,,,,,,,,,,,,,,,,,,
,,,right,1,1.4002,0,0.907886267,#a3d0fb,"[""-0.25"",""0""]",right_blue.png,right,11,0,44,0,1,,,right,right_blue.png,up_orange.png,up,left,down,610d6c481ca4797b863fe3d1,2021-09-11_17h52.44.217,arrow_simon_vert,2021.1.2,MacIntel,59.99160118,,,,,,,,,,,,,,,,,,,,,,,,,,,,,,,,,,,,,,
,,,up,1,2.212,0,0.301920723,#f3af84,"[""0"",""-0.25""]",up_orange.png,up,11,1,45,0,1,,,right,right_blue.png,up_orange.png,up,left,down,610d6c481ca4797b863fe3d1,2021-09-11_17h52.44.217,arrow_simon_vert,2021.1.2,MacIntel,59.99160118,,,,,,,,,,,,,,,,,,,,,,,,,,,,,,,,,,,,,,
,,,left,1,1.432,0,0.23979308,#a3d0fb,"[""-0.25"",""0""]",left_blue.png,left,11,2,46,2,1,,,left,left_blue.png,down_orange.png,down,left,down,610d6c481ca4797b863fe3d1,2021-09-11_17h52.44.217,arrow_simon_vert,2021.1.2,MacIntel,59.99160118,,,,,,,,,,,,,,,,,,,,,,,,,,,,,,,,,,,,,,
,,,down,1,1.4868,0,0.2430523,#f3af84,"[""0"",""-0.25""]",down_orange.png,down,11,3,47,2,1,,,left,left_blue.png,down_orange.png,down,left,down,610d6c481ca4797b863fe3d1,2021-09-11_17h52.44.217,arrow_simon_vert,2021.1.2,MacIntel,59.99160118,,,,,,,,,,,,,,,,,,,,,,,,,,,,,,,,,,,,,,
,,,right,1,1.2927,0,0.753556207,#a3d0fb,"[""0.25"",""0""]",right_blue.png,right,12,0,48,1,1,,,right,right_blue.png,up_orange.png,up,right,up,610d6c481ca4797b863fe3d1,2021-09-11_17h52.44.217,arrow_simon_vert,2021.1.2,MacIntel,59.99160118,,,,,,,,,,,,,,,,,,,,,,,,,,,,,,,,,,,,,,
,,,down,1,1.7126,0,0.839221274,#f3af84,"[""0"",""0.25""]",down_orange.png,down,12,1,49,3,1,,,left,left_blue.png,down_orange.png,down,right,up,610d6c481ca4797b863fe3d1,2021-09-11_17h52.44.217,arrow_simon_vert,2021.1.2,MacIntel,59.99160118,,,,,,,,,,,,,,,,,,,,,,,,,,,,,,,,,,,,,,
,,,left,1,1.2142,0,0.407078936,#a3d0fb,"[""-0.25"",""0""]",left_blue.png,left,12,2,50,2,1,,,left,left_blue.png,down_orange.png,down,left,down,610d6c481ca4797b863fe3d1,2021-09-11_17h52.44.217,arrow_simon_vert,2021.1.2,MacIntel,59.99160118,,,,,,,,,,,,,,,,,,,,,,,,,,,,,,,,,,,,,,
,,,up,1,2.2041,0,0.565958315,#f3af84,"[""0"",""-0.25""]",up_orange.png,up,12,3,51,0,1,,,right,right_blue.png,up_orange.png,up,left,down,610d6c481ca4797b863fe3d1,2021-09-11_17h52.44.217,arrow_simon_vert,2021.1.2,MacIntel,59.99160118,,,,,,,,,,,,,,,,,,,,,,,,,,,,,,,,,,,,,,
,,,left,1,1.3718,0,0.734599157,#a3d0fb,"[""-0.25"",""0""]",left_blue.png,left,13,0,52,2,1,,,left,left_blue.png,down_orange.png,down,left,down,610d6c481ca4797b863fe3d1,2021-09-11_17h52.44.217,arrow_simon_vert,2021.1.2,MacIntel,59.99160118,,,,,,,,,,,,,,,,,,,,,,,,,,,,,,,,,,,,,,
,,,up,1,1.8821,0,0.180164544,#f3af84,"[""0"",""-0.25""]",up_orange.png,up,13,1,53,0,1,,,right,right_blue.png,up_orange.png,up,left,down,610d6c481ca4797b863fe3d1,2021-09-11_17h52.44.217,arrow_simon_vert,2021.1.2,MacIntel,59.99160118,,,,,,,,,,,,,,,,,,,,,,,,,,,,,,,,,,,,,,
,,,right,1,1.505,0,0.317747452,#a3d0fb,"[""-0.25"",""0""]",right_blue.png,right,13,2,54,0,1,,,right,right_blue.png,up_orange.png,up,left,down,610d6c481ca4797b863fe3d1,2021-09-11_17h52.44.217,arrow_simon_vert,2021.1.2,MacIntel,59.99160118,,,,,,,,,,,,,,,,,,,,,,,,,,,,,,,,,,,,,,
,,,down,1,1.2296,0,0.091772127,#f3af84,"[""0"",""0.25""]",down_orange.png,down,13,3,55,3,1,,,left,left_blue.png,down_orange.png,down,right,up,610d6c481ca4797b863fe3d1,2021-09-11_17h52.44.217,arrow_simon_vert,2021.1.2,MacIntel,59.99160118,,,,,,,,,,,,,,,,,,,,,,,,,,,,,,,,,,,,,,
,,,left,1,0.9659,0,0.294060737,#a3d0fb,"[""0.25"",""0""]",left_blue.png,left,14,0,56,3,1,,,left,left_blue.png,down_orange.png,down,right,up,610d6c481ca4797b863fe3d1,2021-09-11_17h52.44.217,arrow_simon_vert,2021.1.2,MacIntel,59.99160118,,,,,,,,,,,,,,,,,,,,,,,,,,,,,,,,,,,,,,
,,,up,1,1.6631,0,0.999797143,#f3af84,"[""0"",""0.25""]",up_orange.png,up,14,1,57,1,1,,,right,right_blue.png,up_orange.png,up,right,up,610d6c481ca4797b863fe3d1,2021-09-11_17h52.44.217,arrow_simon_vert,2021.1.2,MacIntel,59.99160118,,,,,,,,,,,,,,,,,,,,,,,,,,,,,,,,,,,,,,
,,,right,1,1.1276,0,0.627277385,#a3d0fb,"[""0.25"",""0""]",right_blue.png,right,14,2,58,1,1,,,right,right_blue.png,up_orange.png,up,right,up,610d6c481ca4797b863fe3d1,2021-09-11_17h52.44.217,arrow_simon_vert,2021.1.2,MacIntel,59.99160118,,,,,,,,,,,,,,,,,,,,,,,,,,,,,,,,,,,,,,
,,,down,1,1.1285,0,0.366477649,#f3af84,"[""0"",""-0.25""]",down_orange.png,down,14,3,59,2,1,,,left,left_blue.png,down_orange.png,down,left,down,610d6c481ca4797b863fe3d1,2021-09-11_17h52.44.217,arrow_simon_vert,2021.1.2,MacIntel,59.99160118,,,,,,,,,,,,,,,,,,,,,,,,,,,,,,,,,,,,,,
,,,,,,,,,,,,,,,,,,,,,,,,,610d6c481ca4797b863fe3d1,2021-09-11_17h52.44.217,arrow_simon_vert,2021.1.2,MacIntel,59.99160118,space,8.559,0,0,0,0,1,,,,,,,,,,,,,,,,,,,,,,,,,,,,,,,
,,,left,1,1.23,0,0.594110876,#a3d0fb,"[""-0.25"",""0""]",left_blue.png,left,0,0,0,2,1,,,left,left_blue.png,down_orange.png,down,left,down,610d6c481ca4797b863fe3d1,2021-09-11_17h52.44.217,arrow_simon_vert,2021.1.2,MacIntel,59.99160118,,,,,,,,,,,,,,,,,,,,,,,,,,,,,,,,,,,,,,
,,,down,1,4.7158,0,0.984537334,#f3af84,"[""0"",""-0.25""]",down_orange.png,down,0,1,1,2,1,,,left,left_blue.png,down_orange.png,down,left,down,610d6c481ca4797b863fe3d1,2021-09-11_17h52.44.217,arrow_simon_vert,2021.1.2,MacIntel,59.99160118,,,,,,,,,,,,,,,,,,,,,,,,,,,,,,,,,,,,,,
,,,left,1,1.1991,0,0.122096406,#a3d0fb,"[""0.25"",""0""]",left_blue.png,left,0,2,2,3,1,,,left,left_blue.png,down_orange.png,down,right,up,610d6c481ca4797b863fe3d1,2021-09-11_17h52.44.217,arrow_simon_vert,2021.1.2,MacIntel,59.99160118,,,,,,,,,,,,,,,,,,,,,,,,,,,,,,,,,,,,,,
,,,up,1,1.8848,0,0.727954018,#f3af84,"[""0"",""0.25""]",up_orange.png,up,0,3,3,1,1,,,right,right_blue.png,up_orange.png,up,right,up,610d6c481ca4797b863fe3d1,2021-09-11_17h52.44.217,arrow_simon_vert,2021.1.2,MacIntel,59.99160118,,,,,,,,,,,,,,,,,,,,,,,,,,,,,,,,,,,,,,
,,,left,1,1.2339,0,0.056876915,#a3d0fb,"[""-0.25"",""0""]",left_blue.png,left,1,0,4,2,1,,,left,left_blue.png,down_orange.png,down,left,down,610d6c481ca4797b863fe3d1,2021-09-11_17h52.44.217,arrow_simon_vert,2021.1.2,MacIntel,59.99160118,,,,,,,,,,,,,,,,,,,,,,,,,,,,,,,,,,,,,,
,,,up,1,1.2298,0,0.22329276,#f3af84,"[""0"",""0.25""]",up_orange.png,up,1,1,5,1,1,,,right,right_blue.png,up_orange.png,up,right,up,610d6c481ca4797b863fe3d1,2021-09-11_17h52.44.217,arrow_simon_vert,2021.1.2,MacIntel,59.99160118,,,,,,,,,,,,,,,,,,,,,,,,,,,,,,,,,,,,,,
,,,left,1,1.9868,0,0.870365257,#a3d0fb,"[""-0.25"",""0""]",left_blue.png,left,1,2,6,2,1,,,left,left_blue.png,down_orange.png,down,left,down,610d6c481ca4797b863fe3d1,2021-09-11_17h52.44.217,arrow_simon_vert,2021.1.2,MacIntel,59.99160118,,,,,,,,,,,,,,,,,,,,,,,,,,,,,,,,,,,,,,
,,,down,1,1.4868,0,0.304183389,#f3af84,"[""0"",""0.25""]",down_orange.png,down,1,3,7,3,1,,,left,left_blue.png,down_orange.png,down,right,up,610d6c481ca4797b863fe3d1,2021-09-11_17h52.44.217,arrow_simon_vert,2021.1.2,MacIntel,59.99160118,,,,,,,,,,,,,,,,,,,,,,,,,,,,,,,,,,,,,,
,,,right,1,0.9839,0,0.398112444,#a3d0fb,"[""0.25"",""0""]",right_blue.png,right,2,0,8,1,1,,,right,right_blue.png,up_orange.png,up,right,up,610d6c481ca4797b863fe3d1,2021-09-11_17h52.44.217,arrow_simon_vert,2021.1.2,MacIntel,59.99160118,,,,,,,,,,,,,,,,,,,,,,,,,,,,,,,,,,,,,,
,,,up,1,1.6148,0,0.673736923,#f3af84,"[""0"",""0.25""]",up_orange.png,up,2,1,9,1,1,,,right,right_blue.png,up_orange.png,up,right,up,610d6c481ca4797b863fe3d1,2021-09-11_17h52.44.217,arrow_simon_vert,2021.1.2,MacIntel,59.99160118,,,,,,,,,,,,,,,,,,,,,,,,,,,,,,,,,,,,,,
,,,right,1,1.2197,0,0.565618443,#a3d0fb,"[""0.25"",""0""]",right_blue.png,right,2,2,10,1,1,,,right,right_blue.png,up_orange.png,up,right,up,610d6c481ca4797b863fe3d1,2021-09-11_17h52.44.217,arrow_simon_vert,2021.1.2,MacIntel,59.99160118,,,,,,,,,,,,,,,,,,,,,,,,,,,,,,,,,,,,,,
,,,down,1,1.2705,0,0.785375653,#f3af84,"[""0"",""0.25""]",down_orange.png,down,2,3,11,3,1,,,left,left_blue.png,down_orange.png,down,right,up,610d6c481ca4797b863fe3d1,2021-09-11_17h52.44.217,arrow_simon_vert,2021.1.2,MacIntel,59.99160118,,,,,,,,,,,,,,,,,,,,,,,,,,,,,,,,,,,,,,
,,,left,1,1.3674,0,0.036627028,#a3d0fb,"[""0.25"",""0""]",left_blue.png,left,3,0,12,3,1,,,left,left_blue.png,down_orange.png,down,right,up,610d6c481ca4797b863fe3d1,2021-09-11_17h52.44.217,arrow_simon_vert,2021.1.2,MacIntel,59.99160118,,,,,,,,,,,,,,,,,,,,,,,,,,,,,,,,,,,,,,
,,,up,1,1.7182,0,0.102870478,#f3af84,"[""0"",""0.25""]",up_orange.png,up,3,1,13,1,1,,,right,right_blue.png,up_orange.png,up,right,up,610d6c481ca4797b863fe3d1,2021-09-11_17h52.44.217,arrow_simon_vert,2021.1.2,MacIntel,59.99160118,,,,,,,,,,,,,,,,,,,,,,,,,,,,,,,,,,,,,,
,,,left,1,1.1864,0,0.42405523,#a3d0fb,"[""-0.25"",""0""]",left_blue.png,left,3,2,14,2,1,,,left,left_blue.png,down_orange.png,down,left,down,610d6c481ca4797b863fe3d1,2021-09-11_17h52.44.217,arrow_simon_vert,2021.1.2,MacIntel,59.99160118,,,,,,,,,,,,,,,,,,,,,,,,,,,,,,,,,,,,,,
,,,down,1,1.7173,0,0.801905431,#f3af84,"[""0"",""-0.25""]",down_orange.png,down,3,3,15,2,1,,,left,left_blue.png,down_orange.png,down,left,down,610d6c481ca4797b863fe3d1,2021-09-11_17h52.44.217,arrow_simon_vert,2021.1.2,MacIntel,59.99160118,,,,,,,,,,,,,,,,,,,,,,,,,,,,,,,,,,,,,,
,,,left,1,1.8356,0,0.930300565,#a3d0fb,"[""-0.25"",""0""]",left_blue.png,left,4,0,16,2,1,,,left,left_blue.png,down_orange.png,down,left,down,610d6c481ca4797b863fe3d1,2021-09-11_17h52.44.217,arrow_simon_vert,2021.1.2,MacIntel,59.99160118,,,,,,,,,,,,,,,,,,,,,,,,,,,,,,,,,,,,,,
,,,up,1,1.512,0,0.064468563,#f3af84,"[""0"",""-0.25""]",up_orange.png,up,4,1,17,0,1,,,right,right_blue.png,up_orange.png,up,left,down,610d6c481ca4797b863fe3d1,2021-09-11_17h52.44.217,arrow_simon_vert,2021.1.2,MacIntel,59.99160118,,,,,,,,,,,,,,,,,,,,,,,,,,,,,,,,,,,,,,
,,,right,1,1.4489,0,0.824495026,#a3d0fb,"[""-0.25"",""0""]",right_blue.png,right,4,2,18,0,1,,,right,right_blue.png,up_orange.png,up,left,down,610d6c481ca4797b863fe3d1,2021-09-11_17h52.44.217,arrow_simon_vert,2021.1.2,MacIntel,59.99160118,,,,,,,,,,,,,,,,,,,,,,,,,,,,,,,,,,,,,,
,,,down,1,1.3708,0,0.66657434,#f3af84,"[""0"",""0.25""]",down_orange.png,down,4,3,19,3,1,,,left,left_blue.png,down_orange.png,down,right,up,610d6c481ca4797b863fe3d1,2021-09-11_17h52.44.217,arrow_simon_vert,2021.1.2,MacIntel,59.99160118,,,,,,,,,,,,,,,,,,,,,,,,,,,,,,,,,,,,,,
,,,right,1,1.307,0,0.485896234,#a3d0fb,"[""-0.25"",""0""]",right_blue.png,right,5,0,20,0,1,,,right,right_blue.png,up_orange.png,up,left,down,610d6c481ca4797b863fe3d1,2021-09-11_17h52.44.217,arrow_simon_vert,2021.1.2,MacIntel,59.99160118,,,,,,,,,,,,,,,,,,,,,,,,,,,,,,,,,,,,,,
,,,up,1,1.398,0,0.443672727,#f3af84,"[""0"",""-0.25""]",up_orange.png,up,5,1,21,0,1,,,right,right_blue.png,up_orange.png,up,left,down,610d6c481ca4797b863fe3d1,2021-09-11_17h52.44.217,arrow_simon_vert,2021.1.2,MacIntel,59.99160118,,,,,,,,,,,,,,,,,,,,,,,,,,,,,,,,,,,,,,
,,,left,1,1.3863,0,0.788379962,#a3d0fb,"[""0.25"",""0""]",left_blue.png,left,5,2,22,3,1,,,left,left_blue.png,down_orange.png,down,right,up,610d6c481ca4797b863fe3d1,2021-09-11_17h52.44.217,arrow_simon_vert,2021.1.2,MacIntel,59.99160118,,,,,,,,,,,,,,,,,,,,,,,,,,,,,,,,,,,,,,
,,,up,1,1.6209,0,0.42584526,#f3af84,"[""0"",""-0.25""]",up_orange.png,up,5,3,23,0,1,,,right,right_blue.png,up_orange.png,up,left,down,610d6c481ca4797b863fe3d1,2021-09-11_17h52.44.217,arrow_simon_vert,2021.1.2,MacIntel,59.99160118,,,,,,,,,,,,,,,,,,,,,,,,,,,,,,,,,,,,,,
,,,right,1,1.3385,0,0.761806802,#a3d0fb,"[""-0.25"",""0""]",right_blue.png,right,6,0,24,0,1,,,right,right_blue.png,up_orange.png,up,left,down,610d6c481ca4797b863fe3d1,2021-09-11_17h52.44.217,arrow_simon_vert,2021.1.2,MacIntel,59.99160118,,,,,,,,,,,,,,,,,,,,,,,,,,,,,,,,,,,,,,
,,,up,1,1.7033,0,0.797524032,#f3af84,"[""0"",""0.25""]",up_orange.png,up,6,1,25,1,1,,,right,right_blue.png,up_orange.png,up,right,up,610d6c481ca4797b863fe3d1,2021-09-11_17h52.44.217,arrow_simon_vert,2021.1.2,MacIntel,59.99160118,,,,,,,,,,,,,,,,,,,,,,,,,,,,,,,,,,,,,,
,,,left,1,1.5973,0,0.725566171,#a3d0fb,"[""-0.25"",""0""]",left_blue.png,left,6,2,26,2,1,,,left,left_blue.png,down_orange.png,down,left,down,610d6c481ca4797b863fe3d1,2021-09-11_17h52.44.217,arrow_simon_vert,2021.1.2,MacIntel,59.99160118,,,,,,,,,,,,,,,,,,,,,,,,,,,,,,,,,,,,,,
,,,up,1,1.3987,0,0.390961333,#f3af84,"[""0"",""0.25""]",up_orange.png,up,6,3,27,1,1,,,right,right_blue.png,up_orange.png,up,right,up,610d6c481ca4797b863fe3d1,2021-09-11_17h52.44.217,arrow_simon_vert,2021.1.2,MacIntel,59.99160118,,,,,,,,,,,,,,,,,,,,,,,,,,,,,,,,,,,,,,
,,,left,1,1.1985,0,0.025809335,#a3d0fb,"[""0.25"",""0""]",left_blue.png,left,7,0,28,3,1,,,left,left_blue.png,down_orange.png,down,right,up,610d6c481ca4797b863fe3d1,2021-09-11_17h52.44.217,arrow_simon_vert,2021.1.2,MacIntel,59.99160118,,,,,,,,,,,,,,,,,,,,,,,,,,,,,,,,,,,,,,
,,,up,1,1.1346,0,0.052959904,#f3af84,"[""0"",""-0.25""]",up_orange.png,up,7,1,29,0,1,,,right,right_blue.png,up_orange.png,up,left,down,610d6c481ca4797b863fe3d1,2021-09-11_17h52.44.217,arrow_simon_vert,2021.1.2,MacIntel,59.99160118,,,,,,,,,,,,,,,,,,,,,,,,,,,,,,,,,,,,,,
,,,right,1,0.9514,0,0.27334769,#a3d0fb,"[""0.25"",""0""]",right_blue.png,right,7,2,30,1,1,,,right,right_blue.png,up_orange.png,up,right,up,610d6c481ca4797b863fe3d1,2021-09-11_17h52.44.217,arrow_simon_vert,2021.1.2,MacIntel,59.99160118,,,,,,,,,,,,,,,,,,,,,,,,,,,,,,,,,,,,,,
,,,down,1,1.3489,0,0.492976778,#f3af84,"[""0"",""0.25""]",down_orange.png,down,7,3,31,3,1,,,left,left_blue.png,down_orange.png,down,right,up,610d6c481ca4797b863fe3d1,2021-09-11_17h52.44.217,arrow_simon_vert,2021.1.2,MacIntel,59.99160118,,,,,,,,,,,,,,,,,,,,,,,,,,,,,,,,,,,,,,
,,,right,1,0.9044,0,0.403726182,#a3d0fb,"[""0.25"",""0""]",right_blue.png,right,8,0,32,1,1,,,right,right_blue.png,up_orange.png,up,right,up,610d6c481ca4797b863fe3d1,2021-09-11_17h52.44.217,arrow_simon_vert,2021.1.2,MacIntel,59.99160118,,,,,,,,,,,,,,,,,,,,,,,,,,,,,,,,,,,,,,
,,,up,1,1.2664,0,0.319433104,#f3af84,"[""0"",""-0.25""]",up_orange.png,up,8,1,33,0,1,,,right,right_blue.png,up_orange.png,up,left,down,610d6c481ca4797b863fe3d1,2021-09-11_17h52.44.217,arrow_simon_vert,2021.1.2,MacIntel,59.99160118,,,,,,,,,,,,,,,,,,,,,,,,,,,,,,,,,,,,,,
,,,right,1,1.1343,0,0.378620818,#a3d0fb,"[""-0.25"",""0""]",right_blue.png,right,8,2,34,0,1,,,right,right_blue.png,up_orange.png,up,left,down,610d6c481ca4797b863fe3d1,2021-09-11_17h52.44.217,arrow_simon_vert,2021.1.2,MacIntel,59.99160118,,,,,,,,,,,,,,,,,,,,,,,,,,,,,,,,,,,,,,
,,,up,1,1.8509,0,0.735274991,#f3af84,"[""0"",""-0.25""]",up_orange.png,up,8,3,35,0,1,,,right,right_blue.png,up_orange.png,up,left,down,610d6c481ca4797b863fe3d1,2021-09-11_17h52.44.217,arrow_simon_vert,2021.1.2,MacIntel,59.99160118,,,,,,,,,,,,,,,,,,,,,,,,,,,,,,,,,,,,,,
,,,down,0,0.8857,1,0.228835966,#a3d0fb,"[""0.25"",""0""]",left_blue.png,left,9,0,36,3,1,,,left,left_blue.png,down_orange.png,down,right,up,610d6c481ca4797b863fe3d1,2021-09-11_17h52.44.217,arrow_simon_vert,2021.1.2,MacIntel,59.99160118,,,,,,,,,,,,,,,,,,,,,,,,,,,,,,,,,,,,,,
,,,down,1,1.5178,0,0.788302728,#f3af84,"[""0"",""-0.25""]",down_orange.png,down,9,1,37,2,1,,,left,left_blue.png,down_orange.png,down,left,down,610d6c481ca4797b863fe3d1,2021-09-11_17h52.44.217,arrow_simon_vert,2021.1.2,MacIntel,59.99160118,,,,,,,,,,,,,,,,,,,,,,,,,,,,,,,,,,,,,,
,,,left,1,1.2531,0,0.240866694,#a3d0fb,"[""0.25"",""0""]",left_blue.png,left,9,2,38,3,1,,,left,left_blue.png,down_orange.png,down,right,up,610d6c481ca4797b863fe3d1,2021-09-11_17h52.44.217,arrow_simon_vert,2021.1.2,MacIntel,59.99160118,,,,,,,,,,,,,,,,,,,,,,,,,,,,,,,,,,,,,,
,,,up,1,1.2316,0,0.546662687,#f3af84,"[""0"",""-0.25""]",up_orange.png,up,9,3,39,0,1,,,right,right_blue.png,up_orange.png,up,left,down,610d6c481ca4797b863fe3d1,2021-09-11_17h52.44.217,arrow_simon_vert,2021.1.2,MacIntel,59.99160118,,,,,,,,,,,,,,,,,,,,,,,,,,,,,,,,,,,,,,
,,,right,1,1.2335,0,0.579438421,#a3d0fb,"[""0.25"",""0""]",right_blue.png,right,10,0,40,1,1,,,right,right_blue.png,up_orange.png,up,right,up,610d6c481ca4797b863fe3d1,2021-09-11_17h52.44.217,arrow_simon_vert,2021.1.2,MacIntel,59.99160118,,,,,,,,,,,,,,,,,,,,,,,,,,,,,,,,,,,,,,
,,,up,1,1.6501,0,0.314176604,#f3af84,"[""0"",""-0.25""]",up_orange.png,up,10,1,41,0,1,,,right,right_blue.png,up_orange.png,up,left,down,610d6c481ca4797b863fe3d1,2021-09-11_17h52.44.217,arrow_simon_vert,2021.1.2,MacIntel,59.99160118,,,,,,,,,,,,,,,,,,,,,,,,,,,,,,,,,,,,,,
,,,left,1,1.2734,0,0.673281295,#a3d0fb,"[""-0.25"",""0""]",left_blue.png,left,10,2,42,2,1,,,left,left_blue.png,down_orange.png,down,left,down,610d6c481ca4797b863fe3d1,2021-09-11_17h52.44.217,arrow_simon_vert,2021.1.2,MacIntel,59.99160118,,,,,,,,,,,,,,,,,,,,,,,,,,,,,,,,,,,,,,
,,,down,1,1.4997,0,0.509501953,#f3af84,"[""0"",""-0.25""]",down_orange.png,down,10,3,43,2,1,,,left,left_blue.png,down_orange.png,down,left,down,610d6c481ca4797b863fe3d1,2021-09-11_17h52.44.217,arrow_simon_vert,2021.1.2,MacIntel,59.99160118,,,,,,,,,,,,,,,,,,,,,,,,,,,,,,,,,,,,,,
,,,left,1,1.0506,0,0.366129513,#a3d0fb,"[""-0.25"",""0""]",left_blue.png,left,11,0,44,2,1,,,left,left_blue.png,down_orange.png,down,left,down,610d6c481ca4797b863fe3d1,2021-09-11_17h52.44.217,arrow_simon_vert,2021.1.2,MacIntel,59.99160118,,,,,,,,,,,,,,,,,,,,,,,,,,,,,,,,,,,,,,
,,,down,1,1.188,0,0.190157576,#f3af84,"[""0"",""0.25""]",down_orange.png,down,11,1,45,3,1,,,left,left_blue.png,down_orange.png,down,right,up,610d6c481ca4797b863fe3d1,2021-09-11_17h52.44.217,arrow_simon_vert,2021.1.2,MacIntel,59.99160118,,,,,,,,,,,,,,,,,,,,,,,,,,,,,,,,,,,,,,
,,,left,1,0.9147,0,0.007454356,#a3d0fb,"[""0.25"",""0""]",left_blue.png,left,11,2,46,3,1,,,left,left_blue.png,down_orange.png,down,right,up,610d6c481ca4797b863fe3d1,2021-09-11_17h52.44.217,arrow_simon_vert,2021.1.2,MacIntel,59.99160118,,,,,,,,,,,,,,,,,,,,,,,,,,,,,,,,,,,,,,
,,,down,1,0.9092,0,0.312004989,#f3af84,"[""0"",""-0.25""]",down_orange.png,down,11,3,47,2,1,,,left,left_blue.png,down_orange.png,down,left,down,610d6c481ca4797b863fe3d1,2021-09-11_17h52.44.217,arrow_simon_vert,2021.1.2,MacIntel,59.99160118,,,,,,,,,,,,,,,,,,,,,,,,,,,,,,,,,,,,,,
,,,down,0,1.183,1,0.583952389,#a3d0fb,"[""0.25"",""0""]",left_blue.png,left,12,0,48,3,1,,,left,left_blue.png,down_orange.png,down,right,up,610d6c481ca4797b863fe3d1,2021-09-11_17h52.44.217,arrow_simon_vert,2021.1.2,MacIntel,59.99160118,,,,,,,,,,,,,,,,,,,,,,,,,,,,,,,,,,,,,,
,,,up,1,1.3356,0,0.244745859,#f3af84,"[""0"",""0.25""]",up_orange.png,up,12,1,49,1,1,,,right,right_blue.png,up_orange.png,up,right,up,610d6c481ca4797b863fe3d1,2021-09-11_17h52.44.217,arrow_simon_vert,2021.1.2,MacIntel,59.99160118,,,,,,,,,,,,,,,,,,,,,,,,,,,,,,,,,,,,,,
,,,right,1,1.3296,0,0.566131272,#a3d0fb,"[""-0.25"",""0""]",right_blue.png,right,12,2,50,0,1,,,right,right_blue.png,up_orange.png,up,left,down,610d6c481ca4797b863fe3d1,2021-09-11_17h52.44.217,arrow_simon_vert,2021.1.2,MacIntel,59.99160118,,,,,,,,,,,,,,,,,,,,,,,,,,,,,,,,,,,,,,
,,,down,1,1.4197,0,0.578600358,#f3af84,"[""0"",""0.25""]",down_orange.png,down,12,3,51,3,1,,,left,left_blue.png,down_orange.png,down,right,up,610d6c481ca4797b863fe3d1,2021-09-11_17h52.44.217,arrow_simon_vert,2021.1.2,MacIntel,59.99160118,,,,,,,,,,,,,,,,,,,,,,,,,,,,,,,,,,,,,,
,,,left,1,1.3208,0,0.451164422,#a3d0fb,"[""0.25"",""0""]",left_blue.png,left,13,0,52,3,1,,,left,left_blue.png,down_orange.png,down,right,up,610d6c481ca4797b863fe3d1,2021-09-11_17h52.44.217,arrow_simon_vert,2021.1.2,MacIntel,59.99160118,,,,,,,,,,,,,,,,,,,,,,,,,,,,,,,,,,,,,,
,,,up,1,1.1705,0,0.034502744,#f3af84,"[""0"",""0.25""]",up_orange.png,up,13,1,53,1,1,,,right,right_blue.png,up_orange.png,up,right,up,610d6c481ca4797b863fe3d1,2021-09-11_17h52.44.217,arrow_simon_vert,2021.1.2,MacIntel,59.99160118,,,,,,,,,,,,,,,,,,,,,,,,,,,,,,,,,,,,,,
,,,right,1,1.1338,0,0.32942001,#a3d0fb,"[""0.25"",""0""]",right_blue.png,right,13,2,54,1,1,,,right,right_blue.png,up_orange.png,up,right,up,610d6c481ca4797b863fe3d1,2021-09-11_17h52.44.217,arrow_simon_vert,2021.1.2,MacIntel,59.99160118,,,,,,,,,,,,,,,,,,,,,,,,,,,,,,,,,,,,,,
,,,down,1,1.2986,0,0.318493006,#f3af84,"[""0"",""-0.25""]",down_orange.png,down,13,3,55,2,1,,,left,left_blue.png,down_orange.png,down,left,down,610d6c481ca4797b863fe3d1,2021-09-11_17h52.44.217,arrow_simon_vert,2021.1.2,MacIntel,59.99160118,,,,,,,,,,,,,,,,,,,,,,,,,,,,,,,,,,,,,,
,,,right,1,1.2498,0,0.628954702,#a3d0fb,"[""-0.25"",""0""]",right_blue.png,right,14,0,56,0,1,,,right,right_blue.png,up_orange.png,up,left,down,610d6c481ca4797b863fe3d1,2021-09-11_17h52.44.217,arrow_simon_vert,2021.1.2,MacIntel,59.99160118,,,,,,,,,,,,,,,,,,,,,,,,,,,,,,,,,,,,,,
,,,up,1,1.3317,0,0.464152717,#f3af84,"[""0"",""0.25""]",up_orange.png,up,14,1,57,1,1,,,right,right_blue.png,up_orange.png,up,right,up,610d6c481ca4797b863fe3d1,2021-09-11_17h52.44.217,arrow_simon_vert,2021.1.2,MacIntel,59.99160118,,,,,,,,,,,,,,,,,,,,,,,,,,,,,,,,,,,,,,
,,,left,1,1.466,0,0.319990927,#a3d0fb,"[""-0.25"",""0""]",left_blue.png,left,14,2,58,2,1,,,left,left_blue.png,down_orange.png,down,left,down,610d6c481ca4797b863fe3d1,2021-09-11_17h52.44.217,arrow_simon_vert,2021.1.2,MacIntel,59.99160118,,,,,,,,,,,,,,,,,,,,,,,,,,,,,,,,,,,,,,
,,,up,1,1.4363,0,0.174885981,#f3af84,"[""0"",""-0.25""]",up_orange.png,up,14,3,59,0,1,,,right,right_blue.png,up_orange.png,up,left,down,610d6c481ca4797b863fe3d1,2021-09-11_17h52.44.217,arrow_simon_vert,2021.1.2,MacIntel,59.99160118,,,,,,,,,,,,,,,,,,,,,,,,,,,,,,,,,,,,,,
,,,,,,,,,,,,,,,,,,,,,,,,,610d6c481ca4797b863fe3d1,2021-09-11_17h52.44.217,arrow_simon_vert,2021.1.2,MacIntel,59.99160118,space,109.8047,1,0,1,0,1,,,,,,,,,,,,,,,,,,,,,,,,,,,,,,,
,,,,,,,,,,,,,,,,,,,,,,,,,610d6c481ca4797b863fe3d1,2021-09-11_17h52.44.217,arrow_simon_vert,2021.1.2,MacIntel,59.99160118,,,,,,,,space,0,84.5811,left,1.4324,0,0,0,0,1,,,,,,,,,,,,,,,,,,,,,
,,,,,,,,,,,,,,,,,,,,,,,,,610d6c481ca4797b863fe3d1,2021-09-11_17h52.44.217,arrow_simon_vert,2021.1.2,MacIntel,59.99160118,,,,,,,,,,,left,2.8829,1,0,1,0,1,,,,,,,,,,,,,,,,,,,,,
,,,,,,,,,,,,,,,,,,,,,,,,,610d6c481ca4797b863fe3d1,2021-09-11_17h52.44.217,arrow_simon_vert,2021.1.2,MacIntel,59.99160118,,,,,,,,,,,down,3.3395,2,0,2,0,1,,,,,,,,,,,,,,,,,,,,,
,,,,,,,,,,,,,,,,,,,,,,,,,610d6c481ca4797b863fe3d1,2021-09-11_17h52.44.217,arrow_simon_vert,2021.1.2,MacIntel,59.99160118,,,,,,,,,,,down,3.0455,3,0,3,0,1,,,,,,,,,,,,,,,,,,,,,
,,,,,,,,,,,,,,,,,,,,,,,,,610d6c481ca4797b863fe3d1,2021-09-11_17h52.44.217,arrow_simon_vert,2021.1.2,MacIntel,59.99160118,,,,,,,,,,,left,2.968,4,0,4,0,1,,,,,,,,,,,,,,,,,,,,,
,,,,,,,,,,,,,,,,,,,,,,,,,610d6c481ca4797b863fe3d1,2021-09-11_17h52.44.217,arrow_simon_vert,2021.1.2,MacIntel,59.99160118,,,,,,,,,,,down,2.9931,5,0,5,0,1,,,,,,,,,,,,,,,,,,,,,
,,,,,,,,,,,,,,,,,,,,,,,,,610d6c481ca4797b863fe3d1,2021-09-11_17h52.44.217,arrow_simon_vert,2021.1.2,MacIntel,59.99160118,,,,,,,,,,,left,3.9174,6,0,6,0,1,,,,,,,,,,,,,,,,,,,,,
,,,,,,,,,,,,,,,,,,,,,,,,,610d6c481ca4797b863fe3d1,2021-09-11_17h52.44.217,arrow_simon_vert,2021.1.2,MacIntel,59.99160118,,,,,,,,,,,left,3.0184,7,0,7,0,1,,,,,,,,,,,,,,,,,,,,,
,,,,,,,,,,,,,,,,,,,,,,,,,610d6c481ca4797b863fe3d1,2021-09-11_17h52.44.217,arrow_simon_vert,2021.1.2,MacIntel,59.99160118,,,,,,,,,,,left,3.1875,8,0,8,0,1,,,,,,,,,,,,,,,,,,,,,
,,,,,,,,,,,,,,,,,,,,,,,,,610d6c481ca4797b863fe3d1,2021-09-11_17h52.44.217,arrow_simon_vert,2021.1.2,MacIntel,59.99160118,,,,,,,,,,,down,3.0085,9,0,9,0,1,,,,,,,,,,,,,,,,,,,,,
,,,,,,,,,,,,,,,,,,,,,,,,,610d6c481ca4797b863fe3d1,2021-09-11_17h52.44.217,arrow_simon_vert,2021.1.2,MacIntel,59.99160118,,,,,,,,,,,left,2.9097,10,0,10,0,1,,,,,,,,,,,,,,,,,,,,,
,,,,,,,,,,,,,,,,,,,,,,,,,610d6c481ca4797b863fe3d1,2021-09-11_17h52.44.217,arrow_simon_vert,2021.1.2,MacIntel,59.99160118,,,,,,,,,,,down,3.5847,11,0,11,0,1,,,,,,,,,,,,,,,,,,,,,
,,,,,,,,,,,,,,,,,,,,,,,,,610d6c481ca4797b863fe3d1,2021-09-11_17h52.44.217,arrow_simon_vert,2021.1.2,MacIntel,59.99160118,,,,,,,,,,,left,2.7464,12,0,12,0,1,,,,,,,,,,,,,,,,,,,,,
,,,,,,,,,,,,,,,,,,,,,,,,,610d6c481ca4797b863fe3d1,2021-09-11_17h52.44.217,arrow_simon_vert,2021.1.2,MacIntel,59.99160118,,,,,,,,,,,left,2.8679,13,0,13,0,1,,,,,,,,,,,,,,,,,,,,,
,,,,,,,,,,,,,,,,,,,,,,,,,610d6c481ca4797b863fe3d1,2021-09-11_17h52.44.217,arrow_simon_vert,2021.1.2,MacIntel,59.99160118,,,,,,,,,,,left,2.8997,14,0,14,0,1,,,,,,,,,,,,,,,,,,,,,
,,,,,,,,,,,,,,,,,,,,,,,,,610d6c481ca4797b863fe3d1,2021-09-11_17h52.44.217,arrow_simon_vert,2021.1.2,MacIntel,59.99160118,,,,,,,,,,,down,2.8373,15,0,15,0,1,,,,,,,,,,,,,,,,,,,,,
,,,,,,,,,,,,,,,,,,,,,,,,,610d6c481ca4797b863fe3d1,2021-09-11_17h52.44.217,arrow_simon_vert,2021.1.2,MacIntel,59.99160118,,,,,,,,,,,left,2.7697,16,0,16,0,1,,,,,,,,,,,,,,,,,,,,,
,,,,,,,,,,,,,,,,,,,,,,,,,610d6c481ca4797b863fe3d1,2021-09-11_17h52.44.217,arrow_simon_vert,2021.1.2,MacIntel,59.99160118,,,,,,,,,,,down,2.8998,17,0,17,0,1,,,,,,,,,,,,,,,,,,,,,
,,,,,,,,,,,,,,,,,,,,,,,,,610d6c481ca4797b863fe3d1,2021-09-11_17h52.44.217,arrow_simon_vert,2021.1.2,MacIntel,59.99160118,,,,,,,,,,,left,2.9185,18,0,18,0,1,,,,,,,,,,,,,,,,,,,,,
,,,,,,,,,,,,,,,,,,,,,,,,,610d6c481ca4797b863fe3d1,2021-09-11_17h52.44.217,arrow_simon_vert,2021.1.2,MacIntel,59.99160118,,,,,,,,,,,down,2.8782,19,0,19,0,1,,,,,,,,,,,,,,,,,,,,,
,,,,,,,,,,,,,,,,,,,,,,,,,610d6c481ca4797b863fe3d1,2021-09-11_17h52.44.217,arrow_simon_vert,2021.1.2,MacIntel,59.99160118,,,,,,,,,,,left,1.3478,20,0,20,0,1,,,,,,,,,,,,,,,,,,,,,
,,,,,,,,,,,,,,,,,,,,,,,,,610d6c481ca4797b863fe3d1,2021-09-11_17h52.44.217,arrow_simon_vert,2021.1.2,MacIntel,59.99160118,,,,,,,,,,,left,2.4178,21,0,21,0,1,,,,,,,,,,,,,,,,,,,,,
,,,,,,,,,,,,,,,,,,,,,,,,,610d6c481ca4797b863fe3d1,2021-09-11_17h52.44.217,arrow_simon_vert,2021.1.2,MacIntel,59.99160118,,,,,,,,,,,left,2.8022,22,0,22,0,1,,,,,,,,,,,,,,,,,,,,,
,,,,,,,,,,,,,,,,,,,,,,,,,610d6c481ca4797b863fe3d1,2021-09-11_17h52.44.217,arrow_simon_vert,2021.1.2,MacIntel,59.99160118,,,,,,,,,,,down,2.8875,23,0,23,0,1,,,,,,,,,,,,,,,,,,,,,
,,,,,,,,,,,,,,,,,,,,,,,,,610d6c481ca4797b863fe3d1,2021-09-11_17h52.44.217,arrow_simon_vert,2021.1.2,MacIntel,59.99160118,,,,,,,,,,,left,2.503,24,0,24,0,1,,,,,,,,,,,,,,,,,,,,,
,,,,,,,,,,,,,,,,,,,,,,,,,610d6c481ca4797b863fe3d1,2021-09-11_17h52.44.217,arrow_simon_vert,2021.1.2,MacIntel,59.99160118,,,,,,,,,,,left,2.2031,25,0,25,0,1,,,,,,,,,,,,,,,,,,,,,
,,,,,,,,,,,,,,,,,,,,,,,,,610d6c481ca4797b863fe3d1,2021-09-11_17h52.44.217,arrow_simon_vert,2021.1.2,MacIntel,59.99160118,,,,,,,,,,,left,2.4675,26,0,26,0,1,,,,,,,,,,,,,,,,,,,,,
,,,,,,,,,,,,,,,,,,,,,,,,,610d6c481ca4797b863fe3d1,2021-09-11_17h52.44.217,arrow_simon_vert,2021.1.2,MacIntel,59.99160118,,,,,,,,,,,down,2.2319,27,0,27,0,1,,,,,,,,,,,,,,,,,,,,,
,,,,,,,,,,,,,,,,,,,,,,,,,610d6c481ca4797b863fe3d1,2021-09-11_17h52.44.217,arrow_simon_vert,2021.1.2,MacIntel,59.99160118,,,,,,,,,,,left,2.5652,28,0,28,0,1,,,,,,,,,,,,,,,,,,,,,
,,,,,,,,,,,,,,,,,,,,,,,,,610d6c481ca4797b863fe3d1,2021-09-11_17h52.44.217,arrow_simon_vert,2021.1.2,MacIntel,59.99160118,,,,,,,,,,,left,2.568,29,0,29,0,1,,,,,,,,,,,,,,,,,,,,,
,,,,,,,,,,,,,,,,,,,,,,,,,610d6c481ca4797b863fe3d1,2021-09-11_17h52.44.217,arrow_simon_vert,2021.1.2,MacIntel,59.99160118,,,,,,,,,,,left,2.4521,30,0,30,0,1,,,,,,,,,,,,,,,,,,,,,
,,,,,,,,,,,,,,,,,,,,,,,,,610d6c481ca4797b863fe3d1,2021-09-11_17h52.44.217,arrow_simon_vert,2021.1.2,MacIntel,59.99160118,,,,,,,,,,,down,2.8852,31,0,31,0,1,,,,,,,,,,,,,,,,,,,,,
,,,,,,,,,,,,,,,,,,,,,,,,,610d6c481ca4797b863fe3d1,2021-09-11_17h52.44.217,arrow_simon_vert,2021.1.2,MacIntel,59.99160118,,,,,,,,,,,left,2.4851,32,0,32,0,1,,,,,,,,,,,,,,,,,,,,,
,,,,,,,,,,,,,,,,,,,,,,,,,610d6c481ca4797b863fe3d1,2021-09-11_17h52.44.217,arrow_simon_vert,2021.1.2,MacIntel,59.99160118,,,,,,,,,,,down,2.4509,33,0,33,0,1,,,,,,,,,,,,,,,,,,,,,
,,,,,,,,,,,,,,,,,,,,,,,,,610d6c481ca4797b863fe3d1,2021-09-11_17h52.44.217,arrow_simon_vert,2021.1.2,MacIntel,59.99160118,,,,,,,,,,,left,2.4506,34,0,34,0,1,,,,,,,,,,,,,,,,,,,,,
,,,,,,,,,,,,,,,,,,,,,,,,,610d6c481ca4797b863fe3d1,2021-09-11_17h52.44.217,arrow_simon_vert,2021.1.2,MacIntel,59.99160118,,,,,,,,,,,down,2.4659,35,0,35,0,1,,,,,,,,,,,,,,,,,,,,,
,,,,,,,,,,,,,,,,,,,,,,,,,610d6c481ca4797b863fe3d1,2021-09-11_17h52.44.217,arrow_simon_vert,2021.1.2,MacIntel,59.99160118,,,,,,,,,,,left,2.5199,36,0,36,0,1,,,,,,,,,,,,,,,,,,,,,
,,,,,,,,,,,,,,,,,,,,,,,,,610d6c481ca4797b863fe3d1,2021-09-11_17h52.44.217,arrow_simon_vert,2021.1.2,MacIntel,59.99160118,,,,,,,,,,,down,2.3851,37,0,37,0,1,,,,,,,,,,,,,,,,,,,,,
,,,,,,,,,,,,,,,,,,,,,,,,,610d6c481ca4797b863fe3d1,2021-09-11_17h52.44.217,arrow_simon_vert,2021.1.2,MacIntel,59.99160118,,,,,,,,,,,left,2.4703,38,0,38,0,1,,,,,,,,,,,,,,,,,,,,,
,,,,,,,,,,,,,,,,,,,,,,,,,610d6c481ca4797b863fe3d1,2021-09-11_17h52.44.217,arrow_simon_vert,2021.1.2,MacIntel,59.99160118,,,,,,,,,,,up,2.5111,39,0,39,0,1,,,,,,,,,,,,,,,,,,,,,
,,,,,,,,,,,,,,,,,,,,,,,,,610d6c481ca4797b863fe3d1,2021-09-11_17h52.44.217,arrow_simon_vert,2021.1.2,MacIntel,59.99160118,,,,,,,,,,,left,2.4853,40,0,40,0,1,,,,,,,,,,,,,,,,,,,,,
,,,,,,,,,,,,,,,,,,,,,,,,,610d6c481ca4797b863fe3d1,2021-09-11_17h52.44.217,arrow_simon_vert,2021.1.2,MacIntel,59.99160118,,,,,,,,,,,up,2.5508,41,0,41,0,1,,,,,,,,,,,,,,,,,,,,,
,,,,,,,,,,,,,,,,,,,,,,,,,610d6c481ca4797b863fe3d1,2021-09-11_17h52.44.217,arrow_simon_vert,2021.1.2,MacIntel,59.99160118,,,,,,,,,,,left,2.498,42,0,42,0,1,,,,,,,,,,,,,,,,,,,,,
,,,,,,,,,,,,,,,,,,,,,,,,,610d6c481ca4797b863fe3d1,2021-09-11_17h52.44.217,arrow_simon_vert,2021.1.2,MacIntel,59.99160118,,,,,,,,,,,left,2.5512,43,0,43,0,1,,,,,,,,,,,,,,,,,,,,,
,,,,,,,,,,,,,,,,,,,,,,,,,610d6c481ca4797b863fe3d1,2021-09-11_17h52.44.217,arrow_simon_vert,2021.1.2,MacIntel,59.99160118,,,,,,,,,,,left,2.6679,44,0,44,0,1,,,,,,,,,,,,,,,,,,,,,
,,,,,,,,,,,,,,,,,,,,,,,,,610d6c481ca4797b863fe3d1,2021-09-11_17h52.44.217,arrow_simon_vert,2021.1.2,MacIntel,59.99160118,,,,,,,,,,,up,2.4296,45,0,45,0,1,,,,,,,,,,,,,,,,,,,,,
,,,,,,,,,,,,,,,,,,,,,,,,,610d6c481ca4797b863fe3d1,2021-09-11_17h52.44.217,arrow_simon_vert,2021.1.2,MacIntel,59.99160118,,,,,,,,,,,left,2.5162,46,0,46,0,1,,,,,,,,,,,,,,,,,,,,,
,,,,,,,,,,,,,,,,,,,,,,,,,610d6c481ca4797b863fe3d1,2021-09-11_17h52.44.217,arrow_simon_vert,2021.1.2,MacIntel,59.99160118,,,,,,,,,,,up,2.4176,47,0,47,0,1,,,,,,,,,,,,,,,,,,,,,
,,,,,,,,,,,,,,,,,,,,,,,,,610d6c481ca4797b863fe3d1,2021-09-11_17h52.44.217,arrow_simon_vert,2021.1.2,MacIntel,59.99160118,,,,,,,,,,,left,2.5659,48,0,48,0,1,,,,,,,,,,,,,,,,,,,,,
,,,,,,,,,,,,,,,,,,,,,,,,,610d6c481ca4797b863fe3d1,2021-09-11_17h52.44.217,arrow_simon_vert,2021.1.2,MacIntel,59.99160118,,,,,,,,,,,up,2.4537,49,0,49,0,1,,,,,,,,,,,,,,,,,,,,,
,,,,,,,,,,,,,,,,,,,,,,,,,610d6c481ca4797b863fe3d1,2021-09-11_17h52.44.217,arrow_simon_vert,2021.1.2,MacIntel,59.99160118,,,,,,,,,,,left,2.4351,50,0,50,0,1,,,,,,,,,,,,,,,,,,,,,
,,,,,,,,,,,,,,,,,,,,,,,,,610d6c481ca4797b863fe3d1,2021-09-11_17h52.44.217,arrow_simon_vert,2021.1.2,MacIntel,59.99160118,,,,,,,,,,,up,2.4201,51,0,51,0,1,,,,,,,,,,,,,,,,,,,,,
,,,,,,,,,,,,,,,,,,,,,,,,,610d6c481ca4797b863fe3d1,2021-09-11_17h52.44.217,arrow_simon_vert,2021.1.2,MacIntel,59.99160118,,,,,,,,,,,left,2.7194,52,0,52,0,1,,,,,,,,,,,,,,,,,,,,,
,,,,,,,,,,,,,,,,,,,,,,,,,610d6c481ca4797b863fe3d1,2021-09-11_17h52.44.217,arrow_simon_vert,2021.1.2,MacIntel,59.99160118,,,,,,,,,,,up,2.4368,53,0,53,0,1,,,,,,,,,,,,,,,,,,,,,
,,,,,,,,,,,,,,,,,,,,,,,,,610d6c481ca4797b863fe3d1,2021-09-11_17h52.44.217,arrow_simon_vert,2021.1.2,MacIntel,59.99160118,,,,,,,,,,,left,2.5074,54,0,54,0,1,,,,,,,,,,,,,,,,,,,,,
,,,,,,,,,,,,,,,,,,,,,,,,,610d6c481ca4797b863fe3d1,2021-09-11_17h52.44.217,arrow_simon_vert,2021.1.2,MacIntel,59.99160118,,,,,,,,,,,left,2.4818,55,0,55,0,1,,,,,,,,,,,,,,,,,,,,,
,,,,,,,,,,,,,,,,,,,,,,,,,610d6c481ca4797b863fe3d1,2021-09-11_17h52.44.217,arrow_simon_vert,2021.1.2,MacIntel,59.99160118,,,,,,,,,,,left,2.4806,56,0,56,0,1,,,,,,,,,,,,,,,,,,,,,
,,,,,,,,,,,,,,,,,,,,,,,,,610d6c481ca4797b863fe3d1,2021-09-11_17h52.44.217,arrow_simon_vert,2021.1.2,MacIntel,59.99160118,,,,,,,,,,,up,2.4354,57,0,57,0,1,,,,,,,,,,,,,,,,,,,,,
,,,,,,,,,,,,,,,,,,,,,,,,,610d6c481ca4797b863fe3d1,2021-09-11_17h52.44.217,arrow_simon_vert,2021.1.2,MacIntel,59.99160118,,,,,,,,,,,left,2.3989,58,0,58,0,1,,,,,,,,,,,,,,,,,,,,,
,,,,,,,,,,,,,,,,,,,,,,,,,610d6c481ca4797b863fe3d1,2021-09-11_17h52.44.217,arrow_simon_vert,2021.1.2,MacIntel,59.99160118,,,,,,,,,,,up,2.5044,59,0,59,0,1,,,,,,,,,,,,,,,,,,,,,
,,,,,,1,2.137363723,#a3d0fb,"[""-0.25"",""0""]",right_blue.png,right,,,,,,,,right,right_blue.png,up_orange.png,up,left,down,610d6c481ca4797b863fe3d1,2021-09-11_17h52.44.217,arrow_simon_vert,2021.1.2,MacIntel,59.99160118,,,,,,,,,,,,,,,,,,space,0,38.6576,left,0,1.5081,1,FALSE,FALSE,0,0,0,0,1,,,,,,,
,,,,,,1,2.126836745,#f3af84,"[""0"",""-0.25""]",up_orange.png,up,,,,,,,,right,right_blue.png,up_orange.png,up,left,down,610d6c481ca4797b863fe3d1,2021-09-11_17h52.44.217,arrow_simon_vert,2021.1.2,MacIntel,59.99160118,,,,,,,,,,,,,,,,,,,,,right,0,1.4197,2,FALSE,FALSE,0,1,1,0,1,,,,,,,
,,,,,,1,1.52896383,#a3d0fb,"[""0.25"",""0""]",left_blue.png,left,,,,,,,,left,left_blue.png,down_orange.png,down,right,up,610d6c481ca4797b863fe3d1,2021-09-11_17h52.44.217,arrow_simon_vert,2021.1.2,MacIntel,59.99160118,,,,,,,,,,,,,,,,,,,,,left,1,1.1172,3,FALSE,TRUE,0,2,2,3,1,,,,,,,
,,,,,,1,2.287491988,#f3af84,"[""0"",""-0.25""]",down_orange.png,down,,,,,,,,left,left_blue.png,down_orange.png,down,left,down,610d6c481ca4797b863fe3d1,2021-09-11_17h52.44.217,arrow_simon_vert,2021.1.2,MacIntel,59.99160118,,,,,,,,,,,,,,,,,,,,,left,0,1.8346,4,TRUE,FALSE,0,3,3,2,1,,,,,,,
,,,,,,1,2.287638838,#a3d0fb,"[""0.25"",""0""]",right_blue.png,right,,,,,,,,right,right_blue.png,up_orange.png,up,right,up,610d6c481ca4797b863fe3d1,2021-09-11_17h52.44.217,arrow_simon_vert,2021.1.2,MacIntel,59.99160118,,,,,,,,,,,,,,,,,,,,,left,0,1.4435,5,FALSE,FALSE,1,0,4,1,1,,,,,,,
,,,,,,1,2.236933832,#f3af84,"[""0"",""-0.25""]",down_orange.png,down,,,,,,,,left,left_blue.png,down_orange.png,down,left,down,610d6c481ca4797b863fe3d1,2021-09-11_17h52.44.217,arrow_simon_vert,2021.1.2,MacIntel,59.99160118,,,,,,,,,,,,,,,,,,,,,left,0,1.7354,6,TRUE,FALSE,1,1,5,2,1,,,,,,,
,,,,,,1,2.244306935,#a3d0fb,"[""-0.25"",""0""]",left_blue.png,left,,,,,,,,left,left_blue.png,down_orange.png,down,left,down,610d6c481ca4797b863fe3d1,2021-09-11_17h52.44.217,arrow_simon_vert,2021.1.2,MacIntel,59.99160118,,,,,,,,,,,,,,,,,,,,,right,0,1.3273,7,FALSE,TRUE,1,2,6,2,1,,,,,,,
,,,,,,1,2.337520058,#f3af84,"[""0"",""-0.25""]",down_orange.png,down,,,,,,,,left,left_blue.png,down_orange.png,down,left,down,610d6c481ca4797b863fe3d1,2021-09-11_17h52.44.217,arrow_simon_vert,2021.1.2,MacIntel,59.99160118,,,,,,,,,,,,,,,,,,,,,down,1,1.7909,8,TRUE,FALSE,1,3,7,2,1,,,,,,,
,,,,,,1,1.692827641,#a3d0fb,"[""0.25"",""0""]",left_blue.png,left,,,,,,,,left,left_blue.png,down_orange.png,down,right,up,610d6c481ca4797b863fe3d1,2021-09-11_17h52.44.217,arrow_simon_vert,2021.1.2,MacIntel,59.99160118,,,,,,,,,,,,,,,,,,,,,left,1,1.2647,9,FALSE,TRUE,2,0,8,3,1,,,,,,,
,,,,,,1,1.508782336,#f3af84,"[""0"",""-0.25""]",down_orange.png,down,,,,,,,,left,left_blue.png,down_orange.png,down,left,down,610d6c481ca4797b863fe3d1,2021-09-11_17h52.44.217,arrow_simon_vert,2021.1.2,MacIntel,59.99160118,,,,,,,,,,,,,,,,,,,,,down,1,1.7012,10,TRUE,FALSE,2,1,9,2,1,,,,,,,
,,,,,,0,1.844785159,#a3d0fb,"[""0.25"",""0""]",left_blue.png,left,,,,,,,,left,left_blue.png,down_orange.png,down,right,up,610d6c481ca4797b863fe3d1,2021-09-11_17h52.44.217,arrow_simon_vert,2021.1.2,MacIntel,59.99160118,,,,,,,,,,,,,,,,,,,,,left,1,1.492,11,FALSE,FALSE,2,2,10,3,1,,,,,,,
,,,,,,0,1.828741798,#f3af84,"[""0"",""-0.25""]",up_orange.png,up,,,,,,,,right,right_blue.png,up_orange.png,up,left,down,610d6c481ca4797b863fe3d1,2021-09-11_17h52.44.217,arrow_simon_vert,2021.1.2,MacIntel,59.99160118,,,,,,,,,,,,,,,,,,,,,up,1,1.508,12,FALSE,FALSE,2,3,11,0,1,,,,,,,
,,,,,,0,1.808815708,#a3d0fb,"[""-0.25"",""0""]",left_blue.png,left,,,,,,,,left,left_blue.png,down_orange.png,down,left,down,610d6c481ca4797b863fe3d1,2021-09-11_17h52.44.217,arrow_simon_vert,2021.1.2,MacIntel,59.99160118,,,,,,,,,,,,,,,,,,,,,left,1,1.3057,13,FALSE,TRUE,3,0,12,2,1,,,,,,,
,,,,,,0,2.462664736,#f3af84,"[""0"",""-0.25""]",down_orange.png,down,,,,,,,,left,left_blue.png,down_orange.png,down,left,down,610d6c481ca4797b863fe3d1,2021-09-11_17h52.44.217,arrow_simon_vert,2021.1.2,MacIntel,59.99160118,,,,,,,,,,,,,,,,,,,,,down,1,1.6358,14,TRUE,FALSE,3,1,13,2,1,,,,,,,
,,,,,,0,1.603619152,#a3d0fb,"[""0.25"",""0""]",left_blue.png,left,,,,,,,,left,left_blue.png,down_orange.png,down,right,up,610d6c481ca4797b863fe3d1,2021-09-11_17h52.44.217,arrow_simon_vert,2021.1.2,MacIntel,59.99160118,,,,,,,,,,,,,,,,,,,,,left,1,1.2734,15,FALSE,TRUE,3,2,14,3,1,,,,,,,
,,,,,,0,2.048256531,#f3af84,"[""0"",""0.25""]",down_orange.png,down,,,,,,,,left,left_blue.png,down_orange.png,down,right,up,610d6c481ca4797b863fe3d1,2021-09-11_17h52.44.217,arrow_simon_vert,2021.1.2,MacIntel,59.99160118,,,,,,,,,,,,,,,,,,,,,down,1,1.7154,16,TRUE,FALSE,3,3,15,3,1,,,,,,,
,,,,,,1,2.091677789,#a3d0fb,"[""0.25"",""0""]",right_blue.png,right,,,,,,,,right,right_blue.png,up_orange.png,up,right,up,610d6c481ca4797b863fe3d1,2021-09-11_17h52.44.217,arrow_simon_vert,2021.1.2,MacIntel,59.99160118,,,,,,,,,,,,,,,,,,,,,left,0,1.4681,17,FALSE,FALSE,4,0,16,1,1,,,,,,,
,,,,,,0,2.137603151,#f3af84,"[""0"",""-0.25""]",down_orange.png,down,,,,,,,,left,left_blue.png,down_orange.png,down,left,down,610d6c481ca4797b863fe3d1,2021-09-11_17h52.44.217,arrow_simon_vert,2021.1.2,MacIntel,59.99160118,,,,,,,,,,,,,,,,,,,,,down,1,1.4347,18,FALSE,FALSE,4,1,17,2,1,,,,,,,
,,,,,,0,2.421678514,#a3d0fb,"[""0.25"",""0""]",left_blue.png,left,,,,,,,,left,left_blue.png,down_orange.png,down,right,up,610d6c481ca4797b863fe3d1,2021-09-11_17h52.44.217,arrow_simon_vert,2021.1.2,MacIntel,59.99160118,,,,,,,,,,,,,,,,,,,,,left,1,1.454,19,FALSE,FALSE,4,2,18,3,1,,,,,,,
,,,,,,0,2.065818188,#f3af84,"[""0"",""0.25""]",up_orange.png,up,,,,,,,,right,right_blue.png,up_orange.png,up,right,up,610d6c481ca4797b863fe3d1,2021-09-11_17h52.44.217,arrow_simon_vert,2021.1.2,MacIntel,59.99160118,,,,,,,,,,,,,,,,,,,,,up,1,1.5173,20,FALSE,FALSE,4,3,19,1,1,,,,,,,
,,,,,,0,1.879466876,#a3d0fb,"[""0.25"",""0""]",left_blue.png,left,,,,,,,,left,left_blue.png,down_orange.png,down,right,up,610d6c481ca4797b863fe3d1,2021-09-11_17h52.44.217,arrow_simon_vert,2021.1.2,MacIntel,59.99160118,,,,,,,,,,,,,,,,,,,,,left,1,1.4656,21,FALSE,FALSE,5,0,20,3,1,,,,,,,
,,,,,,0,1.598232274,#f3af84,"[""0"",""0.25""]",down_orange.png,down,,,,,,,,left,left_blue.png,down_orange.png,down,right,up,610d6c481ca4797b863fe3d1,2021-09-11_17h52.44.217,arrow_simon_vert,2021.1.2,MacIntel,59.99160118,,,,,,,,,,,,,,,,,,,,,down,1,1.4894,22,FALSE,FALSE,5,1,21,3,1,,,,,,,
,,,,,,0,2.035388038,#a3d0fb,"[""0.25"",""0""]",right_blue.png,right,,,,,,,,right,right_blue.png,up_orange.png,up,right,up,610d6c481ca4797b863fe3d1,2021-09-11_17h52.44.217,arrow_simon_vert,2021.1.2,MacIntel,59.99160118,,,,,,,,,,,,,,,,,,,,,right,1,1.6323,23,TRUE,FALSE,5,2,22,1,1,,,,,,,
,,,,,,0,2.350318159,#f3af84,"[""0"",""0.25""]",up_orange.png,up,,,,,,,,right,right_blue.png,up_orange.png,up,right,up,610d6c481ca4797b863fe3d1,2021-09-11_17h52.44.217,arrow_simon_vert,2021.1.2,MacIntel,59.99160118,,,,,,,,,,,,,,,,,,,,,up,1,1.6327,24,TRUE,FALSE,5,3,23,1,1,,,,,,,
,,,,,,0,1.529932373,#a3d0fb,"[""0.25"",""0""]",right_blue.png,right,,,,,,,,right,right_blue.png,up_orange.png,up,right,up,610d6c481ca4797b863fe3d1,2021-09-11_17h52.44.217,arrow_simon_vert,2021.1.2,MacIntel,59.99160118,,,,,,,,,,,,,,,,,,,,,right,1,1.3986,25,FALSE,TRUE,6,0,24,1,1,,,,,,,
,,,,,,0,1.951611915,#f3af84,"[""0"",""-0.25""]",down_orange.png,down,,,,,,,,left,left_blue.png,down_orange.png,down,left,down,610d6c481ca4797b863fe3d1,2021-09-11_17h52.44.217,arrow_simon_vert,2021.1.2,MacIntel,59.99160118,,,,,,,,,,,,,,,,,,,,,down,1,1.4996,26,FALSE,FALSE,6,1,25,2,1,,,,,,,
,,,,,,0,2.475108937,#a3d0fb,"[""-0.25"",""0""]",right_blue.png,right,,,,,,,,right,right_blue.png,up_orange.png,up,left,down,610d6c481ca4797b863fe3d1,2021-09-11_17h52.44.217,arrow_simon_vert,2021.1.2,MacIntel,59.99160118,,,,,,,,,,,,,,,,,,,,,right,1,1.9476,27,TRUE,FALSE,6,2,26,0,1,,,,,,,
,,,,,,0,2.280981395,#f3af84,"[""0"",""-0.25""]",up_orange.png,up,,,,,,,,right,right_blue.png,up_orange.png,up,left,down,610d6c481ca4797b863fe3d1,2021-09-11_17h52.44.217,arrow_simon_vert,2021.1.2,MacIntel,59.99160118,,,,,,,,,,,,,,,,,,,,,up,1,1.8042,28,TRUE,FALSE,6,3,27,0,1,,,,,,,
,,,,,,0,2.013156026,#a3d0fb,"[""0.25"",""0""]",left_blue.png,left,,,,,,,,left,left_blue.png,down_orange.png,down,right,up,610d6c481ca4797b863fe3d1,2021-09-11_17h52.44.217,arrow_simon_vert,2021.1.2,MacIntel,59.99160118,,,,,,,,,,,,,,,,,,,,,left,1,1.5519,29,FALSE,FALSE,7,0,28,3,1,,,,,,,
,,,,,,0,2.069932684,#f3af84,"[""0"",""-0.25""]",down_orange.png,down,,,,,,,,left,left_blue.png,down_orange.png,down,left,down,610d6c481ca4797b863fe3d1,2021-09-11_17h52.44.217,arrow_simon_vert,2021.1.2,MacIntel,59.99160118,,,,,,,,,,,,,,,,,,,,,down,1,1.7426,30,TRUE,FALSE,7,1,29,2,1,,,,,,,
,,,,,,0,2.006376012,#a3d0fb,"[""-0.25"",""0""]",left_blue.png,left,,,,,,,,left,left_blue.png,down_orange.png,down,left,down,610d6c481ca4797b863fe3d1,2021-09-11_17h52.44.217,arrow_simon_vert,2021.1.2,MacIntel,59.99160118,,,,,,,,,,,,,,,,,,,,,left,1,1.4525,31,FALSE,FALSE,7,2,30,2,1,,,,,,,
,,,,,,0,2.436993664,#f3af84,"[""0"",""0.25""]",up_orange.png,up,,,,,,,,right,right_blue.png,up_orange.png,up,right,up,610d6c481ca4797b863fe3d1,2021-09-11_17h52.44.217,arrow_simon_vert,2021.1.2,MacIntel,59.99160118,,,,,,,,,,,,,,,,,,,,,up,1,1.7665,32,TRUE,FALSE,7,3,31,1,1,,,,,,,
,,,,,,0,1.79579451,#a3d0fb,"[""-0.25"",""0""]",left_blue.png,left,,,,,,,,left,left_blue.png,down_orange.png,down,left,down,610d6c481ca4797b863fe3d1,2021-09-11_17h52.44.217,arrow_simon_vert,2021.1.2,MacIntel,59.99160118,,,,,,,,,,,,,,,,,,,,,left,1,1.3711,33,FALSE,TRUE,8,0,32,2,1,,,,,,,
,,,,,,0,2.241870849,#f3af84,"[""0"",""0.25""]",down_orange.png,down,,,,,,,,left,left_blue.png,down_orange.png,down,right,up,610d6c481ca4797b863fe3d1,2021-09-11_17h52.44.217,arrow_simon_vert,2021.1.2,MacIntel,59.99160118,,,,,,,,,,,,,,,,,,,,,down,1,1.7535,34,TRUE,FALSE,8,1,33,3,1,,,,,,,
,,,,,,0,1.603440147,#a3d0fb,"[""0.25"",""0""]",left_blue.png,left,,,,,,,,left,left_blue.png,down_orange.png,down,right,up,610d6c481ca4797b863fe3d1,2021-09-11_17h52.44.217,arrow_simon_vert,2021.1.2,MacIntel,59.99160118,,,,,,,,,,,,,,,,,,,,,left,1,1.4211,35,FALSE,FALSE,8,2,34,3,1,,,,,,,
,,,,,,0,1.542497742,#f3af84,"[""0"",""0.25""]",up_orange.png,up,,,,,,,,right,right_blue.png,up_orange.png,up,right,up,610d6c481ca4797b863fe3d1,2021-09-11_17h52.44.217,arrow_simon_vert,2021.1.2,MacIntel,59.99160118,,,,,,,,,,,,,,,,,,,,,up,1,1.7493,36,TRUE,FALSE,8,3,35,1,1,,,,,,,
,,,,,,0,1.707638633,#a3d0fb,"[""0.25"",""0""]",left_blue.png,left,,,,,,,,left,left_blue.png,down_orange.png,down,right,up,610d6c481ca4797b863fe3d1,2021-09-11_17h52.44.217,arrow_simon_vert,2021.1.2,MacIntel,59.99160118,,,,,,,,,,,,,,,,,,,,,left,1,1.4831,37,FALSE,FALSE,9,0,36,3,1,,,,,,,
,,,,,,0,2.292449956,#f3af84,"[""0"",""0.25""]",up_orange.png,up,,,,,,,,right,right_blue.png,up_orange.png,up,right,up,610d6c481ca4797b863fe3d1,2021-09-11_17h52.44.217,arrow_simon_vert,2021.1.2,MacIntel,59.99160118,,,,,,,,,,,,,,,,,,,,,up,1,1.6534,38,TRUE,FALSE,9,1,37,1,1,,,,,,,
,,,,,,0,1.715379317,#a3d0fb,"[""0.25"",""0""]",right_blue.png,right,,,,,,,,right,right_blue.png,up_orange.png,up,right,up,610d6c481ca4797b863fe3d1,2021-09-11_17h52.44.217,arrow_simon_vert,2021.1.2,MacIntel,59.99160118,,,,,,,,,,,,,,,,,,,,,right,1,1.4317,39,FALSE,FALSE,9,2,38,1,1,,,,,,,
,,,,,,0,2.322476353,#f3af84,"[""0"",""0.25""]",up_orange.png,up,,,,,,,,right,right_blue.png,up_orange.png,up,right,up,610d6c481ca4797b863fe3d1,2021-09-11_17h52.44.217,arrow_simon_vert,2021.1.2,MacIntel,59.99160118,,,,,,,,,,,,,,,,,,,,,up,1,1.7519,40,TRUE,FALSE,9,3,39,1,1,,,,,,,
,,,,,,0,1.630652518,#a3d0fb,"[""-0.25"",""0""]",right_blue.png,right,,,,,,,,right,right_blue.png,up_orange.png,up,left,down,610d6c481ca4797b863fe3d1,2021-09-11_17h52.44.217,arrow_simon_vert,2021.1.2,MacIntel,59.99160118,,,,,,,,,,,,,,,,,,,,,left,0,1.392,41,FALSE,TRUE,10,0,40,0,1,,,,,,,
,,,,,,1,2.253516114,#f3af84,"[""0"",""-0.25""]",up_orange.png,up,,,,,,,,right,right_blue.png,up_orange.png,up,left,down,610d6c481ca4797b863fe3d1,2021-09-11_17h52.44.217,arrow_simon_vert,2021.1.2,MacIntel,59.99160118,,,,,,,,,,,,,,,,,,,,,right,0,1.4299,42,FALSE,FALSE,10,1,41,0,1,,,,,,,
,,,,,,1,1.886914168,#a3d0fb,"[""-0.25"",""0""]",right_blue.png,right,,,,,,,,right,right_blue.png,up_orange.png,up,left,down,610d6c481ca4797b863fe3d1,2021-09-11_17h52.44.217,arrow_simon_vert,2021.1.2,MacIntel,59.99160118,,,,,,,,,,,,,,,,,,,,,up,0,1.4702,43,FALSE,FALSE,10,2,42,0,1,,,,,,,
,,,,,,1,1.657781476,#f3af84,"[""0"",""0.25""]",down_orange.png,down,,,,,,,,left,left_blue.png,down_orange.png,down,right,up,610d6c481ca4797b863fe3d1,2021-09-11_17h52.44.217,arrow_simon_vert,2021.1.2,MacIntel,59.99160118,,,,,,,,,,,,,,,,,,,,,down,1,1.3851,44,FALSE,TRUE,10,3,43,3,1,,,,,,,
,,,,,,0,2.132499633,#a3d0fb,"[""0.25"",""0""]",left_blue.png,left,,,,,,,,left,left_blue.png,down_orange.png,down,right,up,610d6c481ca4797b863fe3d1,2021-09-11_17h52.44.217,arrow_simon_vert,2021.1.2,MacIntel,59.99160118,,,,,,,,,,,,,,,,,,,,,left,1,1.5852,45,FALSE,FALSE,11,0,44,3,1,,,,,,,
,,,,,,0,1.872524527,#f3af84,"[""0"",""-0.25""]",up_orange.png,up,,,,,,,,right,right_blue.png,up_orange.png,up,left,down,610d6c481ca4797b863fe3d1,2021-09-11_17h52.44.217,arrow_simon_vert,2021.1.2,MacIntel,59.99160118,,,,,,,,,,,,,,,,,,,,,up,1,1.4472,46,FALSE,FALSE,11,1,45,0,1,,,,,,,
,,,,,,0,2.265975538,#a3d0fb,"[""-0.25"",""0""]",right_blue.png,right,,,,,,,,right,right_blue.png,up_orange.png,up,left,down,610d6c481ca4797b863fe3d1,2021-09-11_17h52.44.217,arrow_simon_vert,2021.1.2,MacIntel,59.99160118,,,,,,,,,,,,,,,,,,,,,right,1,1.7154,47,TRUE,FALSE,11,2,46,0,1,,,,,,,
,,,,,,0,2.280299335,#f3af84,"[""0"",""-0.25""]",up_orange.png,up,,,,,,,,right,right_blue.png,up_orange.png,up,left,down,610d6c481ca4797b863fe3d1,2021-09-11_17h52.44.217,arrow_simon_vert,2021.1.2,MacIntel,59.99160118,,,,,,,,,,,,,,,,,,,,,up,1,1.8037,48,TRUE,FALSE,11,3,47,0,1,,,,,,,
,,,,,,0,1.503011974,#a3d0fb,"[""-0.25"",""0""]",right_blue.png,right,,,,,,,,right,right_blue.png,up_orange.png,up,left,down,610d6c481ca4797b863fe3d1,2021-09-11_17h52.44.217,arrow_simon_vert,2021.1.2,MacIntel,59.99160118,,,,,,,,,,,,,,,,,,,,,right,1,1.2341,49,FALSE,TRUE,12,0,48,0,1,,,,,,,
,,,,,,0,1.824567899,#f3af84,"[""0"",""0.25""]",up_orange.png,up,,,,,,,,right,right_blue.png,up_orange.png,up,right,up,610d6c481ca4797b863fe3d1,2021-09-11_17h52.44.217,arrow_simon_vert,2021.1.2,MacIntel,59.99160118,,,,,,,,,,,,,,,,,,,,,up,1,1.7333,50,TRUE,FALSE,12,1,49,1,1,,,,,,,
,,,,,,0,1.811543419,#a3d0fb,"[""0.25"",""0""]",right_blue.png,right,,,,,,,,right,right_blue.png,up_orange.png,up,right,up,610d6c481ca4797b863fe3d1,2021-09-11_17h52.44.217,arrow_simon_vert,2021.1.2,MacIntel,59.99160118,,,,,,,,,,,,,,,,,,,,,right,1,1.4231,51,FALSE,FALSE,12,2,50,1,1,,,,,,,
,,,,,,0,1.935957929,#f3af84,"[""0"",""-0.25""]",down_orange.png,down,,,,,,,,left,left_blue.png,down_orange.png,down,left,down,610d6c481ca4797b863fe3d1,2021-09-11_17h52.44.217,arrow_simon_vert,2021.1.2,MacIntel,59.99160118,,,,,,,,,,,,,,,,,,,,,down,1,1.6308,52,TRUE,FALSE,12,3,51,2,1,,,,,,,
,,,,,,0,2.03270021,#a3d0fb,"[""0.25"",""0""]",right_blue.png,right,,,,,,,,right,right_blue.png,up_orange.png,up,right,up,610d6c481ca4797b863fe3d1,2021-09-11_17h52.44.217,arrow_simon_vert,2021.1.2,MacIntel,59.99160118,,,,,,,,,,,,,,,,,,,,,right,1,1.4187,53,FALSE,FALSE,13,0,52,1,1,,,,,,,
,,,,,,0,2.14089942,#f3af84,"[""0"",""-0.25""]",up_orange.png,up,,,,,,,,right,right_blue.png,up_orange.png,up,left,down,610d6c481ca4797b863fe3d1,2021-09-11_17h52.44.217,arrow_simon_vert,2021.1.2,MacIntel,59.99160118,,,,,,,,,,,,,,,,,,,,,up,1,1.642,54,TRUE,FALSE,13,1,53,0,1,,,,,,,
,,,,,,0,1.605054237,#a3d0fb,"[""-0.25"",""0""]",right_blue.png,right,,,,,,,,right,right_blue.png,up_orange.png,up,left,down,610d6c481ca4797b863fe3d1,2021-09-11_17h52.44.217,arrow_simon_vert,2021.1.2,MacIntel,59.99160118,,,,,,,,,,,,,,,,,,,,,right,1,1.3167,55,FALSE,TRUE,13,2,54,0,1,,,,,,,
,,,,,,0,2.203778361,#f3af84,"[""0"",""0.25""]",down_orange.png,down,,,,,,,,left,left_blue.png,down_orange.png,down,right,up,610d6c481ca4797b863fe3d1,2021-09-11_17h52.44.217,arrow_simon_vert,2021.1.2,MacIntel,59.99160118,,,,,,,,,,,,,,,,,,,,,down,1,1.7169,56,TRUE,FALSE,13,3,55,3,1,,,,,,,
,,,,,,0,1.760683906,#a3d0fb,"[""0.25"",""0""]",right_blue.png,right,,,,,,,,right,right_blue.png,up_orange.png,up,right,up,610d6c481ca4797b863fe3d1,2021-09-11_17h52.44.217,arrow_simon_vert,2021.1.2,MacIntel,59.99160118,,,,,,,,,,,,,,,,,,,,,right,1,1.4688,57,FALSE,FALSE,14,0,56,1,1,,,,,,,
,,,,,,0,1.717736488,#f3af84,"[""0"",""-0.25""]",up_orange.png,up,,,,,,,,right,right_blue.png,up_orange.png,up,left,down,610d6c481ca4797b863fe3d1,2021-09-11_17h52.44.217,arrow_simon_vert,2021.1.2,MacIntel,59.99160118,,,,,,,,,,,,,,,,,,,,,up,1,1.9333,58,TRUE,FALSE,14,1,57,0,1,,,,,,,
,,,,,,0,1.933616096,#a3d0fb,"[""-0.25"",""0""]",left_blue.png,left,,,,,,,,left,left_blue.png,down_orange.png,down,left,down,610d6c481ca4797b863fe3d1,2021-09-11_17h52.44.217,arrow_simon_vert,2021.1.2,MacIntel,59.99160118,,,,,,,,,,,,,,,,,,,,,left,1,1.4789,59,FALSE,FALSE,14,2,58,2,1,,,,,,,
,,,,,,0,1.825687602,#f3af84,"[""0"",""-0.25""]",down_orange.png,down,,,,,,,,left,left_blue.png,down_orange.png,down,left,down,610d6c481ca4797b863fe3d1,2021-09-11_17h52.44.217,arrow_simon_vert,2021.1.2,MacIntel,59.99160118,,,,,,,,,,,,,,,,,,,,,down,1,1.5327,60,FALSE,FALSE,14,3,59,2,1,,,,,,,
,,,,,,,,,,,,,,,,,,,,,,,,,610d6c481ca4797b863fe3d1,2021-09-11_17h52.44.217,arrow_simon_vert,2021.1.2,MacIntel,59.99160118,,,,,,,,,,,,,,,,,,,,,,,,,,,,,,,,space,28.1037,0,0,0,0,1
,,,,,,0,1.582078413,#a3d0fb,"[""0.25"",""0""]",left_blue.png,left,,,,,,,,left,left_blue.png,down_orange.png,down,right,up,610d6c481ca4797b863fe3d1,2021-09-11_17h52.44.217,arrow_simon_vert,2021.1.2,MacIntel,59.99160118,,,,,,,,,,,,,,,,,,,,,left,1,2.0346,1,TRUE,FALSE,0,0,0,3,1,,,,,,,
,,,,,,0,1.808966503,#f3af84,"[""0"",""0.25""]",up_orange.png,up,,,,,,,,right,right_blue.png,up_orange.png,up,right,up,610d6c481ca4797b863fe3d1,2021-09-11_17h52.44.217,arrow_simon_vert,2021.1.2,MacIntel,59.99160118,,,,,,,,,,,,,,,,,,,,,up,1,1.4704,2,FALSE,FALSE,0,1,1,1,1,,,,,,,
,,,,,,0,1.601069949,#a3d0fb,"[""-0.25"",""0""]",left_blue.png,left,,,,,,,,left,left_blue.png,down_orange.png,down,left,down,610d6c481ca4797b863fe3d1,2021-09-11_17h52.44.217,arrow_simon_vert,2021.1.2,MacIntel,59.99160118,,,,,,,,,,,,,,,,,,,,,left,1,1.4587,3,FALSE,FALSE,0,2,2,2,1,,,,,,,
,,,,,,0,1.827590101,#f3af84,"[""0"",""-0.25""]",up_orange.png,up,,,,,,,,right,right_blue.png,up_orange.png,up,left,down,610d6c481ca4797b863fe3d1,2021-09-11_17h52.44.217,arrow_simon_vert,2021.1.2,MacIntel,59.99160118,,,,,,,,,,,,,,,,,,,,,up,1,1.4987,4,FALSE,FALSE,0,3,3,0,1,,,,,,,
,,,,,,0,1.612257161,#a3d0fb,"[""0.25"",""0""]",right_blue.png,right,,,,,,,,right,right_blue.png,up_orange.png,up,right,up,610d6c481ca4797b863fe3d1,2021-09-11_17h52.44.217,arrow_simon_vert,2021.1.2,MacIntel,59.99160118,,,,,,,,,,,,,,,,,,,,,right,1,1.4686,5,FALSE,FALSE,1,0,4,1,1,,,,,,,
,,,,,,0,1.656610239,#f3af84,"[""0"",""0.25""]",up_orange.png,up,,,,,,,,right,right_blue.png,up_orange.png,up,right,up,610d6c481ca4797b863fe3d1,2021-09-11_17h52.44.217,arrow_simon_vert,2021.1.2,MacIntel,59.99160118,,,,,,,,,,,,,,,,,,,,,up,1,1.418,6,FALSE,FALSE,1,1,5,1,1,,,,,,,
,,,,,,0,1.945143218,#a3d0fb,"[""-0.25"",""0""]",right_blue.png,right,,,,,,,,right,right_blue.png,up_orange.png,up,left,down,610d6c481ca4797b863fe3d1,2021-09-11_17h52.44.217,arrow_simon_vert,2021.1.2,MacIntel,59.99160118,,,,,,,,,,,,,,,,,,,,,right,1,1.5333,7,FALSE,FALSE,1,2,6,0,1,,,,,,,
,,,,,,1,2.082682984,#f3af84,"[""0"",""-0.25""]",down_orange.png,down,,,,,,,,left,left_blue.png,down_orange.png,down,left,down,610d6c481ca4797b863fe3d1,2021-09-11_17h52.44.217,arrow_simon_vert,2021.1.2,MacIntel,59.99160118,,,,,,,,,,,,,,,,,,,,,left,0,1.5184,8,FALSE,FALSE,1,3,7,2,1,,,,,,,
,,,,,,1,2.243051175,#a3d0fb,"[""-0.25"",""0""]",right_blue.png,right,,,,,,,,right,right_blue.png,up_orange.png,up,left,down,610d6c481ca4797b863fe3d1,2021-09-11_17h52.44.217,arrow_simon_vert,2021.1.2,MacIntel,59.99160118,,,,,,,,,,,,,,,,,,,,,up,0,1.617,9,TRUE,FALSE,2,0,8,0,1,,,,,,,
,,,,,,0,1.678105119,#f3af84,"[""0"",""-0.25""]",up_orange.png,up,,,,,,,,right,right_blue.png,up_orange.png,up,left,down,610d6c481ca4797b863fe3d1,2021-09-11_17h52.44.217,arrow_simon_vert,2021.1.2,MacIntel,59.99160118,,,,,,,,,,,,,,,,,,,,,up,1,1.4576,10,FALSE,FALSE,2,1,9,0,1,,,,,,,
,,,,,,0,1.644057327,#a3d0fb,"[""0.25"",""0""]",left_blue.png,left,,,,,,,,left,left_blue.png,down_orange.png,down,right,up,610d6c481ca4797b863fe3d1,2021-09-11_17h52.44.217,arrow_simon_vert,2021.1.2,MacIntel,59.99160118,,,,,,,,,,,,,,,,,,,,,left,1,1.4513,11,FALSE,FALSE,2,2,10,3,1,,,,,,,
,,,,,,1,2.163072018,#f3af84,"[""0"",""0.25""]",down_orange.png,down,,,,,,,,left,left_blue.png,down_orange.png,down,right,up,610d6c481ca4797b863fe3d1,2021-09-11_17h52.44.217,arrow_simon_vert,2021.1.2,MacIntel,59.99160118,,,,,,,,,,,,,,,,,,,,,up,0,1.5962,12,FALSE,FALSE,2,3,11,3,1,,,,,,,
,,,,,,0,1.6300487,#a3d0fb,"[""0.25"",""0""]",right_blue.png,right,,,,,,,,right,right_blue.png,up_orange.png,up,right,up,610d6c481ca4797b863fe3d1,2021-09-11_17h52.44.217,arrow_simon_vert,2021.1.2,MacIntel,59.99160118,,,,,,,,,,,,,,,,,,,,,right,1,1.4012,13,FALSE,FALSE,3,0,12,1,1,,,,,,,
,,,,,,0,1.842544616,#f3af84,"[""0"",""0.25""]",down_orange.png,down,,,,,,,,left,left_blue.png,down_orange.png,down,right,up,610d6c481ca4797b863fe3d1,2021-09-11_17h52.44.217,arrow_simon_vert,2021.1.2,MacIntel,59.99160118,,,,,,,,,,,,,,,,,,,,,down,1,1.4866,14,FALSE,FALSE,3,1,13,3,1,,,,,,,
,,,,,,0,2.393677955,#a3d0fb,"[""0.25"",""0""]",left_blue.png,left,,,,,,,,left,left_blue.png,down_orange.png,down,right,up,610d6c481ca4797b863fe3d1,2021-09-11_17h52.44.217,arrow_simon_vert,2021.1.2,MacIntel,59.99160118,,,,,,,,,,,,,,,,,,,,,left,1,1.8302,15,TRUE,FALSE,3,2,14,3,1,,,,,,,
,,,,,,0,2.36029836,#f3af84,"[""0"",""-0.25""]",up_orange.png,up,,,,,,,,right,right_blue.png,up_orange.png,up,left,down,610d6c481ca4797b863fe3d1,2021-09-11_17h52.44.217,arrow_simon_vert,2021.1.2,MacIntel,59.99160118,,,,,,,,,,,,,,,,,,,,,up,1,1.8663,16,TRUE,FALSE,3,3,15,0,1,,,,,,,
,,,,,,0,2.335142686,#a3d0fb,"[""-0.25"",""0""]",right_blue.png,right,,,,,,,,right,right_blue.png,up_orange.png,up,left,down,610d6c481ca4797b863fe3d1,2021-09-11_17h52.44.217,arrow_simon_vert,2021.1.2,MacIntel,59.99160118,,,,,,,,,,,,,,,,,,,,,right,1,1.8098,17,TRUE,FALSE,4,0,16,0,1,,,,,,,
,,,,,,0,1.939401943,#f3af84,"[""0"",""0.25""]",up_orange.png,up,,,,,,,,right,right_blue.png,up_orange.png,up,right,up,610d6c481ca4797b863fe3d1,2021-09-11_17h52.44.217,arrow_simon_vert,2021.1.2,MacIntel,59.99160118,,,,,,,,,,,,,,,,,,,,,up,1,1.491,18,FALSE,FALSE,4,1,17,1,1,,,,,,,
,,,,,,0,1.817539553,#a3d0fb,"[""-0.25"",""0""]",left_blue.png,left,,,,,,,,left,left_blue.png,down_orange.png,down,left,down,610d6c481ca4797b863fe3d1,2021-09-11_17h52.44.217,arrow_simon_vert,2021.1.2,MacIntel,59.99160118,,,,,,,,,,,,,,,,,,,,,left,1,1.4582,19,FALSE,FALSE,4,2,18,2,1,,,,,,,
,,,,,,0,1.876671092,#f3af84,"[""0"",""0.25""]",down_orange.png,down,,,,,,,,left,left_blue.png,down_orange.png,down,right,up,610d6c481ca4797b863fe3d1,2021-09-11_17h52.44.217,arrow_simon_vert,2021.1.2,MacIntel,59.99160118,,,,,,,,,,,,,,,,,,,,,down,1,1.5151,20,FALSE,FALSE,4,3,19,3,1,,,,,,,
,,,,,,0,2.43669138,#a3d0fb,"[""0.25"",""0""]",left_blue.png,left,,,,,,,,left,left_blue.png,down_orange.png,down,right,up,610d6c481ca4797b863fe3d1,2021-09-11_17h52.44.217,arrow_simon_vert,2021.1.2,MacIntel,59.99160118,,,,,,,,,,,,,,,,,,,,,left,1,1.9753,21,TRUE,FALSE,5,0,20,3,1,,,,,,,
,,,,,,0,1.668227659,#f3af84,"[""0"",""0.25""]",up_orange.png,up,,,,,,,,right,right_blue.png,up_orange.png,up,right,up,610d6c481ca4797b863fe3d1,2021-09-11_17h52.44.217,arrow_simon_vert,2021.1.2,MacIntel,59.99160118,,,,,,,,,,,,,,,,,,,,,up,1,1.3859,22,FALSE,TRUE,5,1,21,1,1,,,,,,,
,,,,,,0,1.514819224,#a3d0fb,"[""-0.25"",""0""]",left_blue.png,left,,,,,,,,left,left_blue.png,down_orange.png,down,left,down,610d6c481ca4797b863fe3d1,2021-09-11_17h52.44.217,arrow_simon_vert,2021.1.2,MacIntel,59.99160118,,,,,,,,,,,,,,,,,,,,,left,1,1.4328,23,FALSE,FALSE,5,2,22,2,1,,,,,,,
,,,,,,0,2.097982166,#f3af84,"[""0"",""-0.25""]",down_orange.png,down,,,,,,,,left,left_blue.png,down_orange.png,down,left,down,610d6c481ca4797b863fe3d1,2021-09-11_17h52.44.217,arrow_simon_vert,2021.1.2,MacIntel,59.99160118,,,,,,,,,,,,,,,,,,,,,down,1,1.9492,24,TRUE,FALSE,5,3,23,2,1,,,,,,,
,,,,,,0,2.239261171,#a3d0fb,"[""0.25"",""0""]",right_blue.png,right,,,,,,,,right,right_blue.png,up_orange.png,up,right,up,610d6c481ca4797b863fe3d1,2021-09-11_17h52.44.217,arrow_simon_vert,2021.1.2,MacIntel,59.99160118,,,,,,,,,,,,,,,,,,,,,up,0,1.6181,25,TRUE,FALSE,6,0,24,1,1,,,,,,,
,,,,,,0,2.329415125,#f3af84,"[""0"",""0.25""]",up_orange.png,up,,,,,,,,right,right_blue.png,up_orange.png,up,right,up,610d6c481ca4797b863fe3d1,2021-09-11_17h52.44.217,arrow_simon_vert,2021.1.2,MacIntel,59.99160118,,,,,,,,,,,,,,,,,,,,,up,1,1.701,26,TRUE,FALSE,6,1,25,1,1,,,,,,,
,,,,,,0,1.910785967,#a3d0fb,"[""0.25"",""0""]",left_blue.png,left,,,,,,,,left,left_blue.png,down_orange.png,down,right,up,610d6c481ca4797b863fe3d1,2021-09-11_17h52.44.217,arrow_simon_vert,2021.1.2,MacIntel,59.99160118,,,,,,,,,,,,,,,,,,,,,left,1,1.5473,27,FALSE,FALSE,6,2,26,3,1,,,,,,,
,,,,,,0,2.175646714,#f3af84,"[""0"",""-0.25""]",up_orange.png,up,,,,,,,,right,right_blue.png,up_orange.png,up,left,down,610d6c481ca4797b863fe3d1,2021-09-11_17h52.44.217,arrow_simon_vert,2021.1.2,MacIntel,59.99160118,,,,,,,,,,,,,,,,,,,,,up,1,1.718,28,TRUE,FALSE,6,3,27,0,1,,,,,,,
,,,,,,0,2.047735381,#a3d0fb,"[""-0.25"",""0""]",right_blue.png,right,,,,,,,,right,right_blue.png,up_orange.png,up,left,down,610d6c481ca4797b863fe3d1,2021-09-11_17h52.44.217,arrow_simon_vert,2021.1.2,MacIntel,59.99160118,,,,,,,,,,,,,,,,,,,,,right,1,1.4676,29,FALSE,FALSE,7,0,28,0,1,,,,,,,
,,,,,,0,2.16877615,#f3af84,"[""0"",""-0.25""]",down_orange.png,down,,,,,,,,left,left_blue.png,down_orange.png,down,left,down,610d6c481ca4797b863fe3d1,2021-09-11_17h52.44.217,arrow_simon_vert,2021.1.2,MacIntel,59.99160118,,,,,,,,,,,,,,,,,,,,,down,1,1.7389,30,TRUE,FALSE,7,1,29,2,1,,,,,,,
,,,,,,0,1.817892618,#a3d0fb,"[""0.25"",""0""]",left_blue.png,left,,,,,,,,left,left_blue.png,down_orange.png,down,right,up,610d6c481ca4797b863fe3d1,2021-09-11_17h52.44.217,arrow_simon_vert,2021.1.2,MacIntel,59.99160118,,,,,,,,,,,,,,,,,,,,,left,1,1.4338,31,FALSE,FALSE,7,2,30,3,1,,,,,,,
,,,,,,0,2.285073786,#f3af84,"[""0"",""-0.25""]",down_orange.png,down,,,,,,,,left,left_blue.png,down_orange.png,down,left,down,610d6c481ca4797b863fe3d1,2021-09-11_17h52.44.217,arrow_simon_vert,2021.1.2,MacIntel,59.99160118,,,,,,,,,,,,,,,,,,,,,down,1,1.7851,32,TRUE,FALSE,7,3,31,2,1,,,,,,,
,,,,,,0,1.764000115,#a3d0fb,"[""-0.25"",""0""]",right_blue.png,right,,,,,,,,right,right_blue.png,up_orange.png,up,left,down,610d6c481ca4797b863fe3d1,2021-09-11_17h52.44.217,arrow_simon_vert,2021.1.2,MacIntel,59.99160118,,,,,,,,,,,,,,,,,,,,,right,1,1.2858,33,FALSE,TRUE,8,0,32,0,1,,,,,,,
,,,,,,0,2.277175997,#f3af84,"[""0"",""0.25""]",up_orange.png,up,,,,,,,,right,right_blue.png,up_orange.png,up,right,up,610d6c481ca4797b863fe3d1,2021-09-11_17h52.44.217,arrow_simon_vert,2021.1.2,MacIntel,59.99160118,,,,,,,,,,,,,,,,,,,,,up,1,1.4836,34,FALSE,FALSE,8,1,33,1,1,,,,,,,
,,,,,,0,2.177745644,#a3d0fb,"[""0.25"",""0""]",right_blue.png,right,,,,,,,,right,right_blue.png,up_orange.png,up,right,up,610d6c481ca4797b863fe3d1,2021-09-11_17h52.44.217,arrow_simon_vert,2021.1.2,MacIntel,59.99160118,,,,,,,,,,,,,,,,,,,,,right,1,1.5007,35,FALSE,FALSE,8,2,34,1,1,,,,,,,
,,,,,,0,1.868794817,#f3af84,"[""0"",""-0.25""]",down_orange.png,down,,,,,,,,left,left_blue.png,down_orange.png,down,left,down,610d6c481ca4797b863fe3d1,2021-09-11_17h52.44.217,arrow_simon_vert,2021.1.2,MacIntel,59.99160118,,,,,,,,,,,,,,,,,,,,,down,1,1.4648,36,FALSE,FALSE,8,3,35,2,1,,,,,,,
,,,,,,0,2.261638346,#a3d0fb,"[""-0.25"",""0""]",right_blue.png,right,,,,,,,,right,right_blue.png,up_orange.png,up,left,down,610d6c481ca4797b863fe3d1,2021-09-11_17h52.44.217,arrow_simon_vert,2021.1.2,MacIntel,59.99160118,,,,,,,,,,,,,,,,,,,,,right,1,1.1313,37,FALSE,TRUE,9,0,36,0,1,,,,,,,
,,,,,,0,2.097057161,#f3af84,"[""0"",""-0.25""]",down_orange.png,down,,,,,,,,left,left_blue.png,down_orange.png,down,left,down,610d6c481ca4797b863fe3d1,2021-09-11_17h52.44.217,arrow_simon_vert,2021.1.2,MacIntel,59.99160118,,,,,,,,,,,,,,,,,,,,,down,1,1.686,38,TRUE,FALSE,9,1,37,2,1,,,,,,,
,,,,,,0,2.125668816,#a3d0fb,"[""0.25"",""0""]",right_blue.png,right,,,,,,,,right,right_blue.png,up_orange.png,up,right,up,610d6c481ca4797b863fe3d1,2021-09-11_17h52.44.217,arrow_simon_vert,2021.1.2,MacIntel,59.99160118,,,,,,,,,,,,,,,,,,,,,right,1,1.5823,39,FALSE,FALSE,9,2,38,1,1,,,,,,,
,,,,,,0,2.469058531,#f3af84,"[""0"",""-0.25""]",down_orange.png,down,,,,,,,,left,left_blue.png,down_orange.png,down,left,down,610d6c481ca4797b863fe3d1,2021-09-11_17h52.44.217,arrow_simon_vert,2021.1.2,MacIntel,59.99160118,,,,,,,,,,,,,,,,,,,,,down,1,2.003,40,TRUE,FALSE,9,3,39,2,1,,,,,,,
,,,,,,0,1.822307166,#a3d0fb,"[""-0.25"",""0""]",left_blue.png,left,,,,,,,,left,left_blue.png,down_orange.png,down,left,down,610d6c481ca4797b863fe3d1,2021-09-11_17h52.44.217,arrow_simon_vert,2021.1.2,MacIntel,59.99160118,,,,,,,,,,,,,,,,,,,,,left,1,1.3352,41,FALSE,TRUE,10,0,40,2,1,,,,,,,
,,,,,,0,2.029332306,#f3af84,"[""0"",""0.25""]",down_orange.png,down,,,,,,,,left,left_blue.png,down_orange.png,down,right,up,610d6c481ca4797b863fe3d1,2021-09-11_17h52.44.217,arrow_simon_vert,2021.1.2,MacIntel,59.99160118,,,,,,,,,,,,,,,,,,,,,down,1,1.678,42,TRUE,FALSE,10,1,41,3,1,,,,,,,
,,,,,,0,2.286888849,#a3d0fb,"[""0.25"",""0""]",right_blue.png,right,,,,,,,,right,right_blue.png,up_orange.png,up,right,up,610d6c481ca4797b863fe3d1,2021-09-11_17h52.44.217,arrow_simon_vert,2021.1.2,MacIntel,59.99160118,,,,,,,,,,,,,,,,,,,,,right,1,1.8582,43,TRUE,FALSE,10,2,42,1,1,,,,,,,
,,,,,,0,2.105761637,#f3af84,"[""0"",""0.25""]",down_orange.png,down,,,,,,,,left,left_blue.png,down_orange.png,down,right,up,610d6c481ca4797b863fe3d1,2021-09-11_17h52.44.217,arrow_simon_vert,2021.1.2,MacIntel,59.99160118,,,,,,,,,,,,,,,,,,,,,down,1,1.6605,44,TRUE,FALSE,10,3,43,3,1,,,,,,,
,,,,,,0,2.356191957,#a3d0fb,"[""0.25"",""0""]",left_blue.png,left,,,,,,,,left,left_blue.png,down_orange.png,down,right,up,610d6c481ca4797b863fe3d1,2021-09-11_17h52.44.217,arrow_simon_vert,2021.1.2,MacIntel,59.99160118,,,,,,,,,,,,,,,,,,,,,left,1,1.5388,45,FALSE,FALSE,11,0,44,3,1,,,,,,,
,,,,,,0,1.973749322,#f3af84,"[""0"",""-0.25""]",down_orange.png,down,,,,,,,,left,left_blue.png,down_orange.png,down,left,down,610d6c481ca4797b863fe3d1,2021-09-11_17h52.44.217,arrow_simon_vert,2021.1.2,MacIntel,59.99160118,,,,,,,,,,,,,,,,,,,,,down,1,1.4546,46,FALSE,FALSE,11,1,45,2,1,,,,,,,
,,,,,,0,1.766852608,#a3d0fb,"[""0.25"",""0""]",right_blue.png,right,,,,,,,,right,right_blue.png,up_orange.png,up,right,up,610d6c481ca4797b863fe3d1,2021-09-11_17h52.44.217,arrow_simon_vert,2021.1.2,MacIntel,59.99160118,,,,,,,,,,,,,,,,,,,,,right,1,1.2191,47,FALSE,TRUE,11,2,46,1,1,,,,,,,
,,,,,,0,1.574891683,#f3af84,"[""0"",""0.25""]",up_orange.png,up,,,,,,,,right,right_blue.png,up_orange.png,up,right,up,610d6c481ca4797b863fe3d1,2021-09-11_17h52.44.217,arrow_simon_vert,2021.1.2,MacIntel,59.99160118,,,,,,,,,,,,,,,,,,,,,up,1,1.4508,48,FALSE,FALSE,11,3,47,1,1,,,,,,,
,,,,,,0,2.062189534,#a3d0fb,"[""-0.25"",""0""]",left_blue.png,left,,,,,,,,left,left_blue.png,down_orange.png,down,left,down,610d6c481ca4797b863fe3d1,2021-09-11_17h52.44.217,arrow_simon_vert,2021.1.2,MacIntel,59.99160118,,,,,,,,,,,,,,,,,,,,,left,1,1.5421,49,FALSE,FALSE,12,0,48,2,1,,,,,,,
,,,,,,0,1.598517623,#f3af84,"[""0"",""0.25""]",down_orange.png,down,,,,,,,,left,left_blue.png,down_orange.png,down,right,up,610d6c481ca4797b863fe3d1,2021-09-11_17h52.44.217,arrow_simon_vert,2021.1.2,MacIntel,59.99160118,,,,,,,,,,,,,,,,,,,,,down,1,1.4846,50,FALSE,FALSE,12,1,49,3,1,,,,,,,
,,,,,,0,2.375238652,#a3d0fb,"[""-0.25"",""0""]",right_blue.png,right,,,,,,,,right,right_blue.png,up_orange.png,up,left,down,610d6c481ca4797b863fe3d1,2021-09-11_17h52.44.217,arrow_simon_vert,2021.1.2,MacIntel,59.99160118,,,,,,,,,,,,,,,,,,,,,right,1,1.8669,51,TRUE,FALSE,12,2,50,0,1,,,,,,,
,,,,,,0,1.942305577,#f3af84,"[""0"",""-0.25""]",up_orange.png,up,,,,,,,,right,right_blue.png,up_orange.png,up,left,down,610d6c481ca4797b863fe3d1,2021-09-11_17h52.44.217,arrow_simon_vert,2021.1.2,MacIntel,59.99160118,,,,,,,,,,,,,,,,,,,,,up,1,1.4282,52,FALSE,FALSE,12,3,51,0,1,,,,,,,
,,,,,,0,1.74625233,#a3d0fb,"[""-0.25"",""0""]",right_blue.png,right,,,,,,,,right,right_blue.png,up_orange.png,up,left,down,610d6c481ca4797b863fe3d1,2021-09-11_17h52.44.217,arrow_simon_vert,2021.1.2,MacIntel,59.99160118,,,,,,,,,,,,,,,,,,,,,right,1,1.5019,53,FALSE,FALSE,13,0,52,0,1,,,,,,,
,,,,,,0,1.553261421,#f3af84,"[""0"",""-0.25""]",up_orange.png,up,,,,,,,,right,right_blue.png,up_orange.png,up,left,down,610d6c481ca4797b863fe3d1,2021-09-11_17h52.44.217,arrow_simon_vert,2021.1.2,MacIntel,59.99160118,,,,,,,,,,,,,,,,,,,,,up,1,1.5009,54,FALSE,FALSE,13,1,53,0,1,,,,,,,
,,,,,,0,2.440010995,#a3d0fb,"[""0.25"",""0""]",right_blue.png,right,,,,,,,,right,right_blue.png,up_orange.png,up,right,up,610d6c481ca4797b863fe3d1,2021-09-11_17h52.44.217,arrow_simon_vert,2021.1.2,MacIntel,59.99160118,,,,,,,,,,,,,,,,,,,,,right,1,1.8859,55,TRUE,FALSE,13,2,54,1,1,,,,,,,
,,,,,,0,1.885073763,#f3af84,"[""0"",""0.25""]",down_orange.png,down,,,,,,,,left,left_blue.png,down_orange.png,down,right,up,610d6c481ca4797b863fe3d1,2021-09-11_17h52.44.217,arrow_simon_vert,2021.1.2,MacIntel,59.99160118,,,,,,,,,,,,,,,,,,,,,down,1,1.5534,56,FALSE,FALSE,13,3,55,3,1,,,,,,,
,,,,,,0,2.243022466,#a3d0fb,"[""-0.25"",""0""]",left_blue.png,left,,,,,,,,left,left_blue.png,down_orange.png,down,left,down,610d6c481ca4797b863fe3d1,2021-09-11_17h52.44.217,arrow_simon_vert,2021.1.2,MacIntel,59.99160118,,,,,,,,,,,,,,,,,,,,,left,1,1.7022,57,TRUE,FALSE,14,0,56,2,1,,,,,,,
,,,,,,0,1.865030894,#f3af84,"[""0"",""-0.25""]",up_orange.png,up,,,,,,,,right,right_blue.png,up_orange.png,up,left,down,610d6c481ca4797b863fe3d1,2021-09-11_17h52.44.217,arrow_simon_vert,2021.1.2,MacIntel,59.99160118,,,,,,,,,,,,,,,,,,,,,up,1,1.5178,58,FALSE,FALSE,14,1,57,0,1,,,,,,,
,,,,,,0,1.810702238,#a3d0fb,"[""-0.25"",""0""]",left_blue.png,left,,,,,,,,left,left_blue.png,down_orange.png,down,left,down,610d6c481ca4797b863fe3d1,2021-09-11_17h52.44.217,arrow_simon_vert,2021.1.2,MacIntel,59.99160118,,,,,,,,,,,,,,,,,,,,,left,1,1.533,59,FALSE,FALSE,14,2,58,2,1,,,,,,,
,,,,,,0,2.302032748,#f3af84,"[""0"",""0.25""]",down_orange.png,down,,,,,,,,left,left_blue.png,down_orange.png,down,right,up,610d6c481ca4797b863fe3d1,2021-09-11_17h52.44.217,arrow_simon_vert,2021.1.2,MacIntel,59.99160118,,,,,,,,,,,,,,,,,,,,,down,1,1.9354,60,TRUE,FALSE,14,3,59,3,1,,,,,,,
,,,,,,,,,,,,,,,,,,,,,,,,,610d6c481ca4797b863fe3d1,2021-09-11_17h52.44.217,arrow_simon_vert,2021.1.2,MacIntel,59.99160118,,,,,,,,,,,,,,,,,,,,,,,,,,,,,,,,space,23.8837,1,0,1,0,1
,,,,,,0,1.939799899,#a3d0fb,"[""-0.25"",""0""]",left_blue.png,left,,,,,,,,left,left_blue.png,down_orange.png,down,left,down,610d6c481ca4797b863fe3d1,2021-09-11_17h52.44.217,arrow_simon_vert,2021.1.2,MacIntel,59.99160118,,,,,,,,,,,,,,,,,,,,,left,1,1.8496,1,TRUE,FALSE,0,0,0,2,1,,,,,,,
,,,,,,0,2.365013738,#f3af84,"[""0"",""0.25""]",up_orange.png,up,,,,,,,,right,right_blue.png,up_orange.png,up,right,up,610d6c481ca4797b863fe3d1,2021-09-11_17h52.44.217,arrow_simon_vert,2021.1.2,MacIntel,59.99160118,,,,,,,,,,,,,,,,,,,,,up,1,1.8192,2,TRUE,FALSE,0,1,1,1,1,,,,,,,
,,,,,,0,1.855864336,#a3d0fb,"[""-0.25"",""0""]",right_blue.png,right,,,,,,,,right,right_blue.png,up_orange.png,up,left,down,610d6c481ca4797b863fe3d1,2021-09-11_17h52.44.217,arrow_simon_vert,2021.1.2,MacIntel,59.99160118,,,,,,,,,,,,,,,,,,,,,right,1,1.3469,3,FALSE,TRUE,0,2,2,0,1,,,,,,,
,,,,,,0,2.471455364,#f3af84,"[""0"",""0.25""]",up_orange.png,up,,,,,,,,right,right_blue.png,up_orange.png,up,right,up,610d6c481ca4797b863fe3d1,2021-09-11_17h52.44.217,arrow_simon_vert,2021.1.2,MacIntel,59.99160118,,,,,,,,,,,,,,,,,,,,,up,1,2.0257,4,TRUE,FALSE,0,3,3,1,1,,,,,,,
,,,,,,0,2.201436528,#a3d0fb,"[""-0.25"",""0""]",left_blue.png,left,,,,,,,,left,left_blue.png,down_orange.png,down,left,down,610d6c481ca4797b863fe3d1,2021-09-11_17h52.44.217,arrow_simon_vert,2021.1.2,MacIntel,59.99160118,,,,,,,,,,,,,,,,,,,,,left,1,1.5317,5,FALSE,FALSE,1,0,4,2,1,,,,,,,
,,,,,,0,2.079711638,#f3af84,"[""0"",""-0.25""]",down_orange.png,down,,,,,,,,left,left_blue.png,down_orange.png,down,left,down,610d6c481ca4797b863fe3d1,2021-09-11_17h52.44.217,arrow_simon_vert,2021.1.2,MacIntel,59.99160118,,,,,,,,,,,,,,,,,,,,,down,1,1.6163,6,TRUE,FALSE,1,1,5,2,1,,,,,,,
,,,,,,1,2.237655383,#a3d0fb,"[""0.25"",""0""]",left_blue.png,left,,,,,,,,left,left_blue.png,down_orange.png,down,right,up,610d6c481ca4797b863fe3d1,2021-09-11_17h52.44.217,arrow_simon_vert,2021.1.2,MacIntel,59.99160118,,,,,,,,,,,,,,,,,,,,,up,0,1.478,7,FALSE,FALSE,1,2,6,3,1,,,,,,,
,,,,,,0,1.765573886,#f3af84,"[""0"",""0.25""]",down_orange.png,down,,,,,,,,left,left_blue.png,down_orange.png,down,right,up,610d6c481ca4797b863fe3d1,2021-09-11_17h52.44.217,arrow_simon_vert,2021.1.2,MacIntel,59.99160118,,,,,,,,,,,,,,,,,,,,,down,1,1.4366,8,FALSE,FALSE,1,3,7,3,1,,,,,,,
,,,,,,0,2.060933172,#a3d0fb,"[""0.25"",""0""]",right_blue.png,right,,,,,,,,right,right_blue.png,up_orange.png,up,right,up,610d6c481ca4797b863fe3d1,2021-09-11_17h52.44.217,arrow_simon_vert,2021.1.2,MacIntel,59.99160118,,,,,,,,,,,,,,,,,,,,,right,1,1.4757,9,FALSE,FALSE,2,0,8,1,1,,,,,,,
,,,,,,0,2.095867689,#f3af84,"[""0"",""0.25""]",up_orange.png,up,,,,,,,,right,right_blue.png,up_orange.png,up,right,up,610d6c481ca4797b863fe3d1,2021-09-11_17h52.44.217,arrow_simon_vert,2021.1.2,MacIntel,59.99160118,,,,,,,,,,,,,,,,,,,,,up,1,1.492,10,FALSE,FALSE,2,1,9,1,1,,,,,,,
,,,,,,0,1.704042699,#a3d0fb,"[""-0.25"",""0""]",right_blue.png,right,,,,,,,,right,right_blue.png,up_orange.png,up,left,down,610d6c481ca4797b863fe3d1,2021-09-11_17h52.44.217,arrow_simon_vert,2021.1.2,MacIntel,59.99160118,,,,,,,,,,,,,,,,,,,,,right,1,1.3515,11,FALSE,TRUE,2,2,10,0,1,,,,,,,
,,,,,,0,1.921112878,#f3af84,"[""0"",""-0.25""]",down_orange.png,down,,,,,,,,left,left_blue.png,down_orange.png,down,left,down,610d6c481ca4797b863fe3d1,2021-09-11_17h52.44.217,arrow_simon_vert,2021.1.2,MacIntel,59.99160118,,,,,,,,,,,,,,,,,,,,,down,1,1.5652,12,FALSE,FALSE,2,3,11,2,1,,,,,,,
,,,,,,0,1.984840957,#a3d0fb,"[""-0.25"",""0""]",right_blue.png,right,,,,,,,,right,right_blue.png,up_orange.png,up,left,down,610d6c481ca4797b863fe3d1,2021-09-11_17h52.44.217,arrow_simon_vert,2021.1.2,MacIntel,59.99160118,,,,,,,,,,,,,,,,,,,,,right,1,1.5339,13,FALSE,FALSE,3,0,12,0,1,,,,,,,
,,,,,,0,2.473572779,#f3af84,"[""0"",""-0.25""]",up_orange.png,up,,,,,,,,right,right_blue.png,up_orange.png,up,left,down,610d6c481ca4797b863fe3d1,2021-09-11_17h52.44.217,arrow_simon_vert,2021.1.2,MacIntel,59.99160118,,,,,,,,,,,,,,,,,,,,,up,1,1.733,14,TRUE,FALSE,3,1,13,0,1,,,,,,,
,,,,,,0,2.193006081,#a3d0fb,"[""-0.25"",""0""]",right_blue.png,right,,,,,,,,right,right_blue.png,up_orange.png,up,left,down,610d6c481ca4797b863fe3d1,2021-09-11_17h52.44.217,arrow_simon_vert,2021.1.2,MacIntel,59.99160118,,,,,,,,,,,,,,,,,,,,,left,0,1.6433,15,TRUE,FALSE,3,2,14,0,1,,,,,,,
,,,,,,1,2.210201899,#f3af84,"[""0"",""0.25""]",down_orange.png,down,,,,,,,,left,left_blue.png,down_orange.png,down,right,up,610d6c481ca4797b863fe3d1,2021-09-11_17h52.44.217,arrow_simon_vert,2021.1.2,MacIntel,59.99160118,,,,,,,,,,,,,,,,,,,,,up,0,1.4671,16,FALSE,FALSE,3,3,15,3,1,,,,,,,
,,,,,,0,1.615792705,#a3d0fb,"[""0.25"",""0""]",left_blue.png,left,,,,,,,,left,left_blue.png,down_orange.png,down,right,up,610d6c481ca4797b863fe3d1,2021-09-11_17h52.44.217,arrow_simon_vert,2021.1.2,MacIntel,59.99160118,,,,,,,,,,,,,,,,,,,,,left,1,1.4923,17,FALSE,FALSE,4,0,16,3,1,,,,,,,
,,,,,,0,2.280410401,#f3af84,"[""0"",""-0.25""]",up_orange.png,up,,,,,,,,right,right_blue.png,up_orange.png,up,left,down,610d6c481ca4797b863fe3d1,2021-09-11_17h52.44.217,arrow_simon_vert,2021.1.2,MacIntel,59.99160118,,,,,,,,,,,,,,,,,,,,,up,1,1.6539,18,TRUE,FALSE,4,1,17,0,1,,,,,,,
,,,,,,0,2.070965919,#a3d0fb,"[""-0.25"",""0""]",right_blue.png,right,,,,,,,,right,right_blue.png,up_orange.png,up,left,down,610d6c481ca4797b863fe3d1,2021-09-11_17h52.44.217,arrow_simon_vert,2021.1.2,MacIntel,59.99160118,,,,,,,,,,,,,,,,,,,,,right,1,1.4812,19,FALSE,FALSE,4,2,18,0,1,,,,,,,
,,,,,,0,2.422710234,#f3af84,"[""0"",""-0.25""]",up_orange.png,up,,,,,,,,right,right_blue.png,up_orange.png,up,left,down,610d6c481ca4797b863fe3d1,2021-09-11_17h52.44.217,arrow_simon_vert,2021.1.2,MacIntel,59.99160118,,,,,,,,,,,,,,,,,,,,,up,1,1.8697,20,TRUE,FALSE,4,3,19,0,1,,,,,,,
,,,,,,0,2.242521221,#a3d0fb,"[""0.25"",""0""]",left_blue.png,left,,,,,,,,left,left_blue.png,down_orange.png,down,right,up,610d6c481ca4797b863fe3d1,2021-09-11_17h52.44.217,arrow_simon_vert,2021.1.2,MacIntel,59.99160118,,,,,,,,,,,,,,,,,,,,,left,1,1.592,21,FALSE,FALSE,5,0,20,3,1,,,,,,,
,,,,,,0,2.351713374,#f3af84,"[""0"",""-0.25""]",down_orange.png,down,,,,,,,,left,left_blue.png,down_orange.png,down,left,down,610d6c481ca4797b863fe3d1,2021-09-11_17h52.44.217,arrow_simon_vert,2021.1.2,MacIntel,59.99160118,,,,,,,,,,,,,,,,,,,,,up,0,1.684,22,TRUE,FALSE,5,1,21,2,1,,,,,,,
,,,,,,0,1.947690515,#a3d0fb,"[""-0.25"",""0""]",left_blue.png,left,,,,,,,,left,left_blue.png,down_orange.png,down,left,down,610d6c481ca4797b863fe3d1,2021-09-11_17h52.44.217,arrow_simon_vert,2021.1.2,MacIntel,59.99160118,,,,,,,,,,,,,,,,,,,,,left,1,1.4623,23,FALSE,FALSE,5,2,22,2,1,,,,,,,
,,,,,,0,2.023860255,#f3af84,"[""0"",""0.25""]",down_orange.png,down,,,,,,,,left,left_blue.png,down_orange.png,down,right,up,610d6c481ca4797b863fe3d1,2021-09-11_17h52.44.217,arrow_simon_vert,2021.1.2,MacIntel,59.99160118,,,,,,,,,,,,,,,,,,,,,down,1,1.5184,24,FALSE,FALSE,5,3,23,3,1,,,,,,,
,,,,,,0,1.585655061,#a3d0fb,"[""0.25"",""0""]",right_blue.png,right,,,,,,,,right,right_blue.png,up_orange.png,up,right,up,610d6c481ca4797b863fe3d1,2021-09-11_17h52.44.217,arrow_simon_vert,2021.1.2,MacIntel,59.99160118,,,,,,,,,,,,,,,,,,,,,right,1,1.1831,25,FALSE,TRUE,6,0,24,1,1,,,,,,,
,,,,,,0,1.570279697,#f3af84,"[""0"",""0.25""]",up_orange.png,up,,,,,,,,right,right_blue.png,up_orange.png,up,right,up,610d6c481ca4797b863fe3d1,2021-09-11_17h52.44.217,arrow_simon_vert,2021.1.2,MacIntel,59.99160118,,,,,,,,,,,,,,,,,,,,,up,1,1.3584,26,FALSE,TRUE,6,1,25,1,1,,,,,,,
,,,,,,1,2.231735188,#a3d0fb,"[""-0.25"",""0""]",right_blue.png,right,,,,,,,,right,right_blue.png,up_orange.png,up,left,down,610d6c481ca4797b863fe3d1,2021-09-11_17h52.44.217,arrow_simon_vert,2021.1.2,MacIntel,59.99160118,,,,,,,,,,,,,,,,,,,,,up,0,1.5539,27,FALSE,FALSE,6,2,26,0,1,,,,,,,
,,,,,,1,2.095988421,#f3af84,"[""0"",""-0.25""]",down_orange.png,down,,,,,,,,left,left_blue.png,down_orange.png,down,left,down,610d6c481ca4797b863fe3d1,2021-09-11_17h52.44.217,arrow_simon_vert,2021.1.2,MacIntel,59.99160118,,,,,,,,,,,,,,,,,,,,,down,1,1.7095,28,TRUE,FALSE,6,3,27,2,1,,,,,,,
,,,,,,1,1.586385069,#a3d0fb,"[""-0.25"",""0""]",left_blue.png,left,,,,,,,,left,left_blue.png,down_orange.png,down,left,down,610d6c481ca4797b863fe3d1,2021-09-11_17h52.44.217,arrow_simon_vert,2021.1.2,MacIntel,59.99160118,,,,,,,,,,,,,,,,,,,,,left,1,1.0524,29,FALSE,TRUE,7,0,28,2,1,,,,,,,
,,,,,,1,1.845010796,#f3af84,"[""0"",""0.25""]",up_orange.png,up,,,,,,,,right,right_blue.png,up_orange.png,up,right,up,610d6c481ca4797b863fe3d1,2021-09-11_17h52.44.217,arrow_simon_vert,2021.1.2,MacIntel,59.99160118,,,,,,,,,,,,,,,,,,,,,up,1,1.2773,30,FALSE,TRUE,7,1,29,1,1,,,,,,,
,,,,,,0,2.004762751,#a3d0fb,"[""0.25"",""0""]",left_blue.png,left,,,,,,,,left,left_blue.png,down_orange.png,down,right,up,610d6c481ca4797b863fe3d1,2021-09-11_17h52.44.217,arrow_simon_vert,2021.1.2,MacIntel,59.99160118,,,,,,,,,,,,,,,,,,,,,left,1,1.5251,31,FALSE,FALSE,7,2,30,3,1,,,,,,,
,,,,,,0,1.587973531,#f3af84,"[""0"",""-0.25""]",down_orange.png,down,,,,,,,,left,left_blue.png,down_orange.png,down,left,down,610d6c481ca4797b863fe3d1,2021-09-11_17h52.44.217,arrow_simon_vert,2021.1.2,MacIntel,59.99160118,,,,,,,,,,,,,,,,,,,,,down,1,1.4711,32,FALSE,FALSE,7,3,31,2,1,,,,,,,
,,,,,,0,2.076219106,#a3d0fb,"[""-0.25"",""0""]",right_blue.png,right,,,,,,,,right,right_blue.png,up_orange.png,up,left,down,610d6c481ca4797b863fe3d1,2021-09-11_17h52.44.217,arrow_simon_vert,2021.1.2,MacIntel,59.99160118,,,,,,,,,,,,,,,,,,,,,right,1,1.5168,33,FALSE,FALSE,8,0,32,0,1,,,,,,,
,,,,,,0,1.890293309,#f3af84,"[""0"",""0.25""]",up_orange.png,up,,,,,,,,right,right_blue.png,up_orange.png,up,right,up,610d6c481ca4797b863fe3d1,2021-09-11_17h52.44.217,arrow_simon_vert,2021.1.2,MacIntel,59.99160118,,,,,,,,,,,,,,,,,,,,,up,1,1.4665,34,FALSE,FALSE,8,1,33,1,1,,,,,,,
,,,,,,0,1.902872227,#a3d0fb,"[""-0.25"",""0""]",left_blue.png,left,,,,,,,,left,left_blue.png,down_orange.png,down,left,down,610d6c481ca4797b863fe3d1,2021-09-11_17h52.44.217,arrow_simon_vert,2021.1.2,MacIntel,59.99160118,,,,,,,,,,,,,,,,,,,,,left,1,1.5189,35,FALSE,FALSE,8,2,34,2,1,,,,,,,
,,,,,,0,2.153308946,#f3af84,"[""0"",""0.25""]",up_orange.png,up,,,,,,,,right,right_blue.png,up_orange.png,up,right,up,610d6c481ca4797b863fe3d1,2021-09-11_17h52.44.217,arrow_simon_vert,2021.1.2,MacIntel,59.99160118,,,,,,,,,,,,,,,,,,,,,up,1,1.5731,36,FALSE,FALSE,8,3,35,1,1,,,,,,,
,,,,,,0,1.83578654,#a3d0fb,"[""-0.25"",""0""]",right_blue.png,right,,,,,,,,right,right_blue.png,up_orange.png,up,left,down,610d6c481ca4797b863fe3d1,2021-09-11_17h52.44.217,arrow_simon_vert,2021.1.2,MacIntel,59.99160118,,,,,,,,,,,,,,,,,,,,,right,1,1.403,37,FALSE,FALSE,9,0,36,0,1,,,,,,,
,,,,,,0,1.680975719,#f3af84,"[""0"",""-0.25""]",up_orange.png,up,,,,,,,,right,right_blue.png,up_orange.png,up,left,down,610d6c481ca4797b863fe3d1,2021-09-11_17h52.44.217,arrow_simon_vert,2021.1.2,MacIntel,59.99160118,,,,,,,,,,,,,,,,,,,,,up,1,1.3157,38,FALSE,TRUE,9,1,37,0,1,,,,,,,
,,,,,,0,1.925763238,#a3d0fb,"[""0.25"",""0""]",right_blue.png,right,,,,,,,,right,right_blue.png,up_orange.png,up,right,up,610d6c481ca4797b863fe3d1,2021-09-11_17h52.44.217,arrow_simon_vert,2021.1.2,MacIntel,59.99160118,,,,,,,,,,,,,,,,,,,,,right,1,1.5655,39,FALSE,FALSE,9,2,38,1,1,,,,,,,
,,,,,,0,1.9581397,#f3af84,"[""0"",""0.25""]",down_orange.png,down,,,,,,,,left,left_blue.png,down_orange.png,down,right,up,610d6c481ca4797b863fe3d1,2021-09-11_17h52.44.217,arrow_simon_vert,2021.1.2,MacIntel,59.99160118,,,,,,,,,,,,,,,,,,,,,down,1,1.5825,40,FALSE,FALSE,9,3,39,3,1,,,,,,,
,,,,,,0,2.067114731,#a3d0fb,"[""0.25"",""0""]",right_blue.png,right,,,,,,,,right,right_blue.png,up_orange.png,up,right,up,610d6c481ca4797b863fe3d1,2021-09-11_17h52.44.217,arrow_simon_vert,2021.1.2,MacIntel,59.99160118,,,,,,,,,,,,,,,,,,,,,right,1,1.5212,41,FALSE,FALSE,10,0,40,1,1,,,,,,,
,,,,,,0,1.553417697,#f3af84,"[""0"",""-0.25""]",up_orange.png,up,,,,,,,,right,right_blue.png,up_orange.png,up,left,down,610d6c481ca4797b863fe3d1,2021-09-11_17h52.44.217,arrow_simon_vert,2021.1.2,MacIntel,59.99160118,,,,,,,,,,,,,,,,,,,,,up,1,1.5272,42,FALSE,FALSE,10,1,41,0,1,,,,,,,
,,,,,,0,1.613277531,#a3d0fb,"[""0.25"",""0""]",left_blue.png,left,,,,,,,,left,left_blue.png,down_orange.png,down,right,up,610d6c481ca4797b863fe3d1,2021-09-11_17h52.44.217,arrow_simon_vert,2021.1.2,MacIntel,59.99160118,,,,,,,,,,,,,,,,,,,,,left,1,1.4158,43,FALSE,FALSE,10,2,42,3,1,,,,,,,
,,,,,,0,1.764444382,#f3af84,"[""0"",""-0.25""]",down_orange.png,down,,,,,,,,left,left_blue.png,down_orange.png,down,left,down,610d6c481ca4797b863fe3d1,2021-09-11_17h52.44.217,arrow_simon_vert,2021.1.2,MacIntel,59.99160118,,,,,,,,,,,,,,,,,,,,,down,1,1.4597,44,FALSE,FALSE,10,3,43,2,1,,,,,,,
,,,,,,0,2.475562496,#a3d0fb,"[""-0.25"",""0""]",left_blue.png,left,,,,,,,,left,left_blue.png,down_orange.png,down,left,down,610d6c481ca4797b863fe3d1,2021-09-11_17h52.44.217,arrow_simon_vert,2021.1.2,MacIntel,59.99160118,,,,,,,,,,,,,,,,,,,,,up,0,1.7679,45,TRUE,FALSE,11,0,44,2,1,,,,,,,
,,,,,,0,2.265221228,#f3af84,"[""0"",""-0.25""]",down_orange.png,down,,,,,,,,left,left_blue.png,down_orange.png,down,left,down,610d6c481ca4797b863fe3d1,2021-09-11_17h52.44.217,arrow_simon_vert,2021.1.2,MacIntel,59.99160118,,,,,,,,,,,,,,,,,,,,,up,0,1.6534,46,TRUE,FALSE,11,1,45,2,1,,,,,,,
,,,,,,0,1.920563456,#a3d0fb,"[""0.25"",""0""]",right_blue.png,right,,,,,,,,right,right_blue.png,up_orange.png,up,right,up,610d6c481ca4797b863fe3d1,2021-09-11_17h52.44.217,arrow_simon_vert,2021.1.2,MacIntel,59.99160118,,,,,,,,,,,,,,,,,,,,,right,1,1.4581,47,FALSE,FALSE,11,2,46,1,1,,,,,,,
,,,,,,0,1.534329727,#f3af84,"[""0"",""0.25""]",up_orange.png,up,,,,,,,,right,right_blue.png,up_orange.png,up,right,up,610d6c481ca4797b863fe3d1,2021-09-11_17h52.44.217,arrow_simon_vert,2021.1.2,MacIntel,59.99160118,,,,,,,,,,,,,,,,,,,,,up,1,1.5036,48,FALSE,FALSE,11,3,47,1,1,,,,,,,
,,,,,,0,1.854073756,#a3d0fb,"[""-0.25"",""0""]",right_blue.png,right,,,,,,,,right,right_blue.png,up_orange.png,up,left,down,610d6c481ca4797b863fe3d1,2021-09-11_17h52.44.217,arrow_simon_vert,2021.1.2,MacIntel,59.99160118,,,,,,,,,,,,,,,,,,,,,right,1,1.4695,49,FALSE,FALSE,12,0,48,0,1,,,,,,,
,,,,,,0,1.598746962,#f3af84,"[""0"",""-0.25""]",down_orange.png,down,,,,,,,,left,left_blue.png,down_orange.png,down,left,down,610d6c481ca4797b863fe3d1,2021-09-11_17h52.44.217,arrow_simon_vert,2021.1.2,MacIntel,59.99160118,,,,,,,,,,,,,,,,,,,,,down,1,1.4488,50,FALSE,FALSE,12,1,49,2,1,,,,,,,
,,,,,,0,2.01786474,#a3d0fb,"[""0.25"",""0""]",left_blue.png,left,,,,,,,,left,left_blue.png,down_orange.png,down,right,up,610d6c481ca4797b863fe3d1,2021-09-11_17h52.44.217,arrow_simon_vert,2021.1.2,MacIntel,59.99160118,,,,,,,,,,,,,,,,,,,,,left,1,1.5073,51,FALSE,FALSE,12,2,50,3,1,,,,,,,
,,,,,,0,1.590131809,#f3af84,"[""0"",""0.25""]",down_orange.png,down,,,,,,,,left,left_blue.png,down_orange.png,down,right,up,610d6c481ca4797b863fe3d1,2021-09-11_17h52.44.217,arrow_simon_vert,2021.1.2,MacIntel,59.99160118,,,,,,,,,,,,,,,,,,,,,down,1,1.3351,52,FALSE,TRUE,12,3,51,3,1,,,,,,,
,,,,,,0,2.113477828,#a3d0fb,"[""-0.25"",""0""]",right_blue.png,right,,,,,,,,right,right_blue.png,up_orange.png,up,left,down,610d6c481ca4797b863fe3d1,2021-09-11_17h52.44.217,arrow_simon_vert,2021.1.2,MacIntel,59.99160118,,,,,,,,,,,,,,,,,,,,,right,1,1.7947,53,TRUE,FALSE,13,0,52,0,1,,,,,,,
,,,,,,0,2.125897702,#f3af84,"[""0"",""0.25""]",down_orange.png,down,,,,,,,,left,left_blue.png,down_orange.png,down,right,up,610d6c481ca4797b863fe3d1,2021-09-11_17h52.44.217,arrow_simon_vert,2021.1.2,MacIntel,59.99160118,,,,,,,,,,,,,,,,,,,,,up,0,1.6527,54,TRUE,FALSE,13,1,53,3,1,,,,,,,
,,,,,,0,2.424614499,#a3d0fb,"[""0.25"",""0""]",left_blue.png,left,,,,,,,,left,left_blue.png,down_orange.png,down,right,up,610d6c481ca4797b863fe3d1,2021-09-11_17h52.44.217,arrow_simon_vert,2021.1.2,MacIntel,59.99160118,,,,,,,,,,,,,,,,,,,,,left,1,1.7681,55,TRUE,FALSE,13,2,54,3,1,,,,,,,
,,,,,,0,2.401770068,#f3af84,"[""0"",""0.25""]",up_orange.png,up,,,,,,,,right,right_blue.png,up_orange.png,up,right,up,610d6c481ca4797b863fe3d1,2021-09-11_17h52.44.217,arrow_simon_vert,2021.1.2,MacIntel,59.99160118,,,,,,,,,,,,,,,,,,,,,down,0,1.8677,56,TRUE,FALSE,13,3,55,1,1,,,,,,,
,,,,,,0,2.401284489,#a3d0fb,"[""0.25"",""0""]",left_blue.png,left,,,,,,,,left,left_blue.png,down_orange.png,down,right,up,610d6c481ca4797b863fe3d1,2021-09-11_17h52.44.217,arrow_simon_vert,2021.1.2,MacIntel,59.99160118,,,,,,,,,,,,,,,,,,,,,left,1,1.8853,57,TRUE,FALSE,14,0,56,3,1,,,,,,,
,,,,,,0,1.899989254,#f3af84,"[""0"",""0.25""]",down_orange.png,down,,,,,,,,left,left_blue.png,down_orange.png,down,right,up,610d6c481ca4797b863fe3d1,2021-09-11_17h52.44.217,arrow_simon_vert,2021.1.2,MacIntel,59.99160118,,,,,,,,,,,,,,,,,,,,,up,0,1.3676,58,FALSE,TRUE,14,1,57,3,1,,,,,,,
,,,,,,0,2.108135397,#a3d0fb,"[""0.25"",""0""]",right_blue.png,right,,,,,,,,right,right_blue.png,up_orange.png,up,right,up,610d6c481ca4797b863fe3d1,2021-09-11_17h52.44.217,arrow_simon_vert,2021.1.2,MacIntel,59.99160118,,,,,,,,,,,,,,,,,,,,,right,1,1.5827,59,FALSE,FALSE,14,2,58,1,1,,,,,,,
,,,,,,0,2.472539106,#f3af84,"[""0"",""-0.25""]",down_orange.png,down,,,,,,,,left,left_blue.png,down_orange.png,down,left,down,610d6c481ca4797b863fe3d1,2021-09-11_17h52.44.217,arrow_simon_vert,2021.1.2,MacIntel,59.99160118,,,,,,,,,,,,,,,,,,,,,down,1,1.8822,60,TRUE,FALSE,14,3,59,2,1,,,,,,,
,,,,,,,,,,,,,,,,,,,,,,,,,610d6c481ca4797b863fe3d1,2021-09-11_17h52.44.217,arrow_simon_vert,2021.1.2,MacIntel,59.99160118,,,,,,,,,,,,,,,,,,,,,,,,,,,,,,,,space,13.3803,2,0,2,0,1
,,,,,,0,1.580958922,#a3d0fb,"[""-0.25"",""0""]",left_blue.png,left,,,,,,,,left,left_blue.png,down_orange.png,down,left,down,610d6c481ca4797b863fe3d1,2021-09-11_17h52.44.217,arrow_simon_vert,2021.1.2,MacIntel,59.99160118,,,,,,,,,,,,,,,,,,,,,left,1,1.7091,1,TRUE,FALSE,0,0,0,2,1,,,,,,,
,,,,,,0,1.930410751,#f3af84,"[""0"",""-0.25""]",down_orange.png,down,,,,,,,,left,left_blue.png,down_orange.png,down,left,down,610d6c481ca4797b863fe3d1,2021-09-11_17h52.44.217,arrow_simon_vert,2021.1.2,MacIntel,59.99160118,,,,,,,,,,,,,,,,,,,,,down,1,1.5509,2,FALSE,FALSE,0,1,1,2,1,,,,,,,
,,,,,,0,2.45553117,#a3d0fb,"[""-0.25"",""0""]",left_blue.png,left,,,,,,,,left,left_blue.png,down_orange.png,down,left,down,610d6c481ca4797b863fe3d1,2021-09-11_17h52.44.217,arrow_simon_vert,2021.1.2,MacIntel,59.99160118,,,,,,,,,,,,,,,,,,,,,left,1,1.9134,3,TRUE,FALSE,0,2,2,2,1,,,,,,,
,,,,,,0,2.269409361,#f3af84,"[""0"",""0.25""]",up_orange.png,up,,,,,,,,right,right_blue.png,up_orange.png,up,right,up,610d6c481ca4797b863fe3d1,2021-09-11_17h52.44.217,arrow_simon_vert,2021.1.2,MacIntel,59.99160118,,,,,,,,,,,,,,,,,,,,,up,1,1.5679,4,FALSE,FALSE,0,3,3,1,1,,,,,,,
,,,,,,0,2.457464075,#a3d0fb,"[""0.25"",""0""]",left_blue.png,left,,,,,,,,left,left_blue.png,down_orange.png,down,right,up,610d6c481ca4797b863fe3d1,2021-09-11_17h52.44.217,arrow_simon_vert,2021.1.2,MacIntel,59.99160118,,,,,,,,,,,,,,,,,,,,,right,0,1.7759,5,TRUE,FALSE,1,0,4,3,1,,,,,,,
,,,,,,0,1.918805711,#f3af84,"[""0"",""-0.25""]",down_orange.png,down,,,,,,,,left,left_blue.png,down_orange.png,down,left,down,610d6c481ca4797b863fe3d1,2021-09-11_17h52.44.217,arrow_simon_vert,2021.1.2,MacIntel,59.99160118,,,,,,,,,,,,,,,,,,,,,down,1,1.4642,6,FALSE,FALSE,1,1,5,2,1,,,,,,,
,,,,,,0,2.48079385,#a3d0fb,"[""0.25"",""0""]",left_blue.png,left,,,,,,,,left,left_blue.png,down_orange.png,down,right,up,610d6c481ca4797b863fe3d1,2021-09-11_17h52.44.217,arrow_simon_vert,2021.1.2,MacIntel,59.99160118,,,,,,,,,,,,,,,,,,,,,right,0,1.8113,7,TRUE,FALSE,1,2,6,3,1,,,,,,,
,,,,,,0,1.803853829,#f3af84,"[""0"",""0.25""]",up_orange.png,up,,,,,,,,right,right_blue.png,up_orange.png,up,right,up,610d6c481ca4797b863fe3d1,2021-09-11_17h52.44.217,arrow_simon_vert,2021.1.2,MacIntel,59.99160118,,,,,,,,,,,,,,,,,,,,,up,1,1.4224,8,FALSE,FALSE,1,3,7,1,1,,,,,,,
,,,,,,0,1.604061108,#a3d0fb,"[""0.25"",""0""]",left_blue.png,left,,,,,,,,left,left_blue.png,down_orange.png,down,right,up,610d6c481ca4797b863fe3d1,2021-09-11_17h52.44.217,arrow_simon_vert,2021.1.2,MacIntel,59.99160118,,,,,,,,,,,,,,,,,,,,,left,1,0.9837,9,FALSE,TRUE,2,0,8,3,1,,,,,,,
,,,,,,0,1.828009726,#f3af84,"[""0"",""-0.25""]",up_orange.png,up,,,,,,,,right,right_blue.png,up_orange.png,up,left,down,610d6c481ca4797b863fe3d1,2021-09-11_17h52.44.217,arrow_simon_vert,2021.1.2,MacIntel,59.99160118,,,,,,,,,,,,,,,,,,,,,up,1,1.5093,10,FALSE,FALSE,2,1,9,0,1,,,,,,,
,,,,,,0,2.365255474,#a3d0fb,"[""0.25"",""0""]",left_blue.png,left,,,,,,,,left,left_blue.png,down_orange.png,down,right,up,610d6c481ca4797b863fe3d1,2021-09-11_17h52.44.217,arrow_simon_vert,2021.1.2,MacIntel,59.99160118,,,,,,,,,,,,,,,,,,,,,right,0,1.6467,11,TRUE,FALSE,2,2,10,3,1,,,,,,,
