instruct_resp_simon.keys,instruct_resp_simon.corr,instruct_resp_simon.rt,trial_resp_simon.keys,trial_resp_simon.corr,trial_resp_simon.rt,kerr,target_onset,target_color,target_pos,target_file,target_resp,trials_train_simon.thisRepN,trials_train_simon.thisTrialN,trials_train_simon.thisN,trials_train_simon.thisIndex,trials_train_simon.ran,odd_target_pos,even_target_pos,odd_target_resp,odd_target_file,even_target_file,even_target_resp,odd_target_side,even_target_side,participant,date,expName,psychopyVersion,OS,frameRate,train_block_note_resp.keys,train_block_note_resp.rt,blocks_train.thisRepN,blocks_train.thisTrialN,blocks_train.thisN,blocks_train.thisIndex,blocks_train.ran,instruct_resp_timing.keys,instruct_resp_timing.corr,instruct_resp_timing.rt,trial_resp_timing.keys,trial_resp_timing.rt,trials_train_timing.thisRepN,trials_train_timing.thisTrialN,trials_train_timing.thisN,trials_train_timing.thisIndex,trials_train_timing.ran,instruct_resp.keys,instruct_resp.corr,instruct_resp.rt,trial_resp.keys,trial_resp.corr,trial_resp.rt,trial_num,too_slow,too_soon,trials.thisRepN,trials.thisTrialN,trials.thisN,trials.thisIndex,trials.ran,block_note_resp.keys,block_note_resp.rt,blocks.thisRepN,blocks.thisTrialN,blocks.thisN,blocks.thisIndex,blocks.ran
space,0,54.6081,left,1,1.5298,0,0.980887542,#a3d0fb,"[""0.25"",""0""]",left_blue.png,left,0,0,0,3,1,,,left,left_blue.png,down_orange.png,down,right,up,6111811863a65868cb3522fe,2021-09-11_16h27.43.348,arrow_simon_vert,2021.1.2,Win32,59.90176111,,,,,,,,,,,,,,,,,,,,,,,,,,,,,,,,,,,,,,
,,,up,1,1.3958,0,0.926378456,#f3af84,"[""0"",""-0.25""]",up_orange.png,up,0,1,1,0,1,,,right,right_blue.png,up_orange.png,up,left,down,6111811863a65868cb3522fe,2021-09-11_16h27.43.348,arrow_simon_vert,2021.1.2,Win32,59.90176111,,,,,,,,,,,,,,,,,,,,,,,,,,,,,,,,,,,,,,
,,,left,1,0.6355,0,0.16837545,#a3d0fb,"[""-0.25"",""0""]",left_blue.png,left,0,2,2,2,1,,,left,left_blue.png,down_orange.png,down,left,down,6111811863a65868cb3522fe,2021-09-11_16h27.43.348,arrow_simon_vert,2021.1.2,Win32,59.90176111,,,,,,,,,,,,,,,,,,,,,,,,,,,,,,,,,,,,,,
,,,up,1,0.5346,0,0.030788842,#f3af84,"[""0"",""0.25""]",up_orange.png,up,0,3,3,1,1,,,right,right_blue.png,up_orange.png,up,right,up,6111811863a65868cb3522fe,2021-09-11_16h27.43.348,arrow_simon_vert,2021.1.2,Win32,59.90176111,,,,,,,,,,,,,,,,,,,,,,,,,,,,,,,,,,,,,,
,,,right,1,0.8481,0,0.500434378,#a3d0fb,"[""0.25"",""0""]",right_blue.png,right,1,0,4,1,1,,,right,right_blue.png,up_orange.png,up,right,up,6111811863a65868cb3522fe,2021-09-11_16h27.43.348,arrow_simon_vert,2021.1.2,Win32,59.90176111,,,,,,,,,,,,,,,,,,,,,,,,,,,,,,,,,,,,,,
,,,down,1,1.4591,0,0.997712317,#f3af84,"[""0"",""0.25""]",down_orange.png,down,1,1,5,3,1,,,left,left_blue.png,down_orange.png,down,right,up,6111811863a65868cb3522fe,2021-09-11_16h27.43.348,arrow_simon_vert,2021.1.2,Win32,59.90176111,,,,,,,,,,,,,,,,,,,,,,,,,,,,,,,,,,,,,,
,,,left,1,0.9683,0,0.383175801,#a3d0fb,"[""0.25"",""0""]",left_blue.png,left,1,2,6,3,1,,,left,left_blue.png,down_orange.png,down,right,up,6111811863a65868cb3522fe,2021-09-11_16h27.43.348,arrow_simon_vert,2021.1.2,Win32,59.90176111,,,,,,,,,,,,,,,,,,,,,,,,,,,,,,,,,,,,,,
,,,up,1,0.905,0,0.397515435,#f3af84,"[""0"",""-0.25""]",up_orange.png,up,1,3,7,0,1,,,right,right_blue.png,up_orange.png,up,left,down,6111811863a65868cb3522fe,2021-09-11_16h27.43.348,arrow_simon_vert,2021.1.2,Win32,59.90176111,,,,,,,,,,,,,,,,,,,,,,,,,,,,,,,,,,,,,,
,,,left,1,0.7441,0,0.259727224,#a3d0fb,"[""0.25"",""0""]",left_blue.png,left,2,0,8,3,1,,,left,left_blue.png,down_orange.png,down,right,up,6111811863a65868cb3522fe,2021-09-11_16h27.43.348,arrow_simon_vert,2021.1.2,Win32,59.90176111,,,,,,,,,,,,,,,,,,,,,,,,,,,,,,,,,,,,,,
,,,down,1,0.6965,0,0.150898072,#f3af84,"[""0"",""0.25""]",down_orange.png,down,2,1,9,3,1,,,left,left_blue.png,down_orange.png,down,right,up,6111811863a65868cb3522fe,2021-09-11_16h27.43.348,arrow_simon_vert,2021.1.2,Win32,59.90176111,,,,,,,,,,,,,,,,,,,,,,,,,,,,,,,,,,,,,,
,,,left,1,0.6012,0,0.178437731,#a3d0fb,"[""-0.25"",""0""]",left_blue.png,left,2,2,10,2,1,,,left,left_blue.png,down_orange.png,down,left,down,6111811863a65868cb3522fe,2021-09-11_16h27.43.348,arrow_simon_vert,2021.1.2,Win32,59.90176111,,,,,,,,,,,,,,,,,,,,,,,,,,,,,,,,,,,,,,
,,,down,1,0.8346,0,0.403566242,#f3af84,"[""0"",""0.25""]",down_orange.png,down,2,3,11,3,1,,,left,left_blue.png,down_orange.png,down,right,up,6111811863a65868cb3522fe,2021-09-11_16h27.43.348,arrow_simon_vert,2021.1.2,Win32,59.90176111,,,,,,,,,,,,,,,,,,,,,,,,,,,,,,,,,,,,,,
,,,right,1,1.3855,0,0.926723426,#a3d0fb,"[""-0.25"",""0""]",right_blue.png,right,3,0,12,0,1,,,right,right_blue.png,up_orange.png,up,left,down,6111811863a65868cb3522fe,2021-09-11_16h27.43.348,arrow_simon_vert,2021.1.2,Win32,59.90176111,,,,,,,,,,,,,,,,,,,,,,,,,,,,,,,,,,,,,,
,,,up,1,1.329,0,0.733691142,#f3af84,"[""0"",""-0.25""]",up_orange.png,up,3,1,13,0,1,,,right,right_blue.png,up_orange.png,up,left,down,6111811863a65868cb3522fe,2021-09-11_16h27.43.348,arrow_simon_vert,2021.1.2,Win32,59.90176111,,,,,,,,,,,,,,,,,,,,,,,,,,,,,,,,,,,,,,
,,,left,1,1.1685,0,0.718995609,#a3d0fb,"[""0.25"",""0""]",left_blue.png,left,3,2,14,3,1,,,left,left_blue.png,down_orange.png,down,right,up,6111811863a65868cb3522fe,2021-09-11_16h27.43.348,arrow_simon_vert,2021.1.2,Win32,59.90176111,,,,,,,,,,,,,,,,,,,,,,,,,,,,,,,,,,,,,,
,,,up,1,1.264,0,0.804523339,#f3af84,"[""0"",""-0.25""]",up_orange.png,up,3,3,15,0,1,,,right,right_blue.png,up_orange.png,up,left,down,6111811863a65868cb3522fe,2021-09-11_16h27.43.348,arrow_simon_vert,2021.1.2,Win32,59.90176111,,,,,,,,,,,,,,,,,,,,,,,,,,,,,,,,,,,,,,
,,,right,1,0.8962,0,0.430176062,#a3d0fb,"[""-0.25"",""0""]",right_blue.png,right,4,0,16,0,1,,,right,right_blue.png,up_orange.png,up,left,down,6111811863a65868cb3522fe,2021-09-11_16h27.43.348,arrow_simon_vert,2021.1.2,Win32,59.90176111,,,,,,,,,,,,,,,,,,,,,,,,,,,,,,,,,,,,,,
,,,up,1,1.0243,0,0.613066011,#f3af84,"[""0"",""-0.25""]",up_orange.png,up,4,1,17,0,1,,,right,right_blue.png,up_orange.png,up,left,down,6111811863a65868cb3522fe,2021-09-11_16h27.43.348,arrow_simon_vert,2021.1.2,Win32,59.90176111,,,,,,,,,,,,,,,,,,,,,,,,,,,,,,,,,,,,,,
,,,left,1,0.6432,0,0.219887285,#a3d0fb,"[""-0.25"",""0""]",left_blue.png,left,4,2,18,2,1,,,left,left_blue.png,down_orange.png,down,left,down,6111811863a65868cb3522fe,2021-09-11_16h27.43.348,arrow_simon_vert,2021.1.2,Win32,59.90176111,,,,,,,,,,,,,,,,,,,,,,,,,,,,,,,,,,,,,,
,,,right,0,0.714,1,0.345705913,#f3af84,"[""0"",""-0.25""]",down_orange.png,down,4,3,19,2,1,,,left,left_blue.png,down_orange.png,down,left,down,6111811863a65868cb3522fe,2021-09-11_16h27.43.348,arrow_simon_vert,2021.1.2,Win32,59.90176111,,,,,,,,,,,,,,,,,,,,,,,,,,,,,,,,,,,,,,
,,,left,1,0.6242,0,0.122022833,#a3d0fb,"[""0.25"",""0""]",left_blue.png,left,5,0,20,3,1,,,left,left_blue.png,down_orange.png,down,right,up,6111811863a65868cb3522fe,2021-09-11_16h27.43.348,arrow_simon_vert,2021.1.2,Win32,59.90176111,,,,,,,,,,,,,,,,,,,,,,,,,,,,,,,,,,,,,,
,,,up,1,0.8357,0,0.543561051,#f3af84,"[""0"",""0.25""]",up_orange.png,up,5,1,21,1,1,,,right,right_blue.png,up_orange.png,up,right,up,6111811863a65868cb3522fe,2021-09-11_16h27.43.348,arrow_simon_vert,2021.1.2,Win32,59.90176111,,,,,,,,,,,,,,,,,,,,,,,,,,,,,,,,,,,,,,
,,,left,1,1.3017,0,0.896541934,#a3d0fb,"[""0.25"",""0""]",left_blue.png,left,5,2,22,3,1,,,left,left_blue.png,down_orange.png,down,right,up,6111811863a65868cb3522fe,2021-09-11_16h27.43.348,arrow_simon_vert,2021.1.2,Win32,59.90176111,,,,,,,,,,,,,,,,,,,,,,,,,,,,,,,,,,,,,,
,,,down,1,1.2108,0,0.781752102,#f3af84,"[""0"",""-0.25""]",down_orange.png,down,5,3,23,2,1,,,left,left_blue.png,down_orange.png,down,left,down,6111811863a65868cb3522fe,2021-09-11_16h27.43.348,arrow_simon_vert,2021.1.2,Win32,59.90176111,,,,,,,,,,,,,,,,,,,,,,,,,,,,,,,,,,,,,,
,,,left,1,0.9518,0,0.28381547,#a3d0fb,"[""-0.25"",""0""]",left_blue.png,left,6,0,24,2,1,,,left,left_blue.png,down_orange.png,down,left,down,6111811863a65868cb3522fe,2021-09-11_16h27.43.348,arrow_simon_vert,2021.1.2,Win32,59.90176111,,,,,,,,,,,,,,,,,,,,,,,,,,,,,,,,,,,,,,
,,,up,0,0.8367,1,0.449014229,#f3af84,"[""0"",""0.25""]",down_orange.png,down,6,1,25,3,1,,,left,left_blue.png,down_orange.png,down,right,up,6111811863a65868cb3522fe,2021-09-11_16h27.43.348,arrow_simon_vert,2021.1.2,Win32,59.90176111,,,,,,,,,,,,,,,,,,,,,,,,,,,,,,,,,,,,,,
,,,left,1,0.9976,0,0.5658609,#a3d0fb,"[""0.25"",""0""]",left_blue.png,left,6,2,26,3,1,,,left,left_blue.png,down_orange.png,down,right,up,6111811863a65868cb3522fe,2021-09-11_16h27.43.348,arrow_simon_vert,2021.1.2,Win32,59.90176111,,,,,,,,,,,,,,,,,,,,,,,,,,,,,,,,,,,,,,
,,,down,1,0.5079,0,0.013974429,#f3af84,"[""0"",""-0.25""]",down_orange.png,down,6,3,27,2,1,,,left,left_blue.png,down_orange.png,down,left,down,6111811863a65868cb3522fe,2021-09-11_16h27.43.348,arrow_simon_vert,2021.1.2,Win32,59.90176111,,,,,,,,,,,,,,,,,,,,,,,,,,,,,,,,,,,,,,
,,,left,1,0.7346,0,0.328866628,#a3d0fb,"[""-0.25"",""0""]",left_blue.png,left,7,0,28,2,1,,,left,left_blue.png,down_orange.png,down,left,down,6111811863a65868cb3522fe,2021-09-11_16h27.43.348,arrow_simon_vert,2021.1.2,Win32,59.90176111,,,,,,,,,,,,,,,,,,,,,,,,,,,,,,,,,,,,,,
,,,up,1,0.6349,0,0.228907578,#f3af84,"[""0"",""0.25""]",up_orange.png,up,7,1,29,1,1,,,right,right_blue.png,up_orange.png,up,right,up,6111811863a65868cb3522fe,2021-09-11_16h27.43.348,arrow_simon_vert,2021.1.2,Win32,59.90176111,,,,,,,,,,,,,,,,,,,,,,,,,,,,,,,,,,,,,,
,,,right,1,1.1928,0,0.856300066,#a3d0fb,"[""0.25"",""0""]",right_blue.png,right,7,2,30,1,1,,,right,right_blue.png,up_orange.png,up,right,up,6111811863a65868cb3522fe,2021-09-11_16h27.43.348,arrow_simon_vert,2021.1.2,Win32,59.90176111,,,,,,,,,,,,,,,,,,,,,,,,,,,,,,,,,,,,,,
,,,up,1,0.9271,0,0.412634288,#f3af84,"[""0"",""-0.25""]",up_orange.png,up,7,3,31,0,1,,,right,right_blue.png,up_orange.png,up,left,down,6111811863a65868cb3522fe,2021-09-11_16h27.43.348,arrow_simon_vert,2021.1.2,Win32,59.90176111,,,,,,,,,,,,,,,,,,,,,,,,,,,,,,,,,,,,,,
,,,left,1,0.8437,0,0.446950595,#a3d0fb,"[""0.25"",""0""]",left_blue.png,left,8,0,32,3,1,,,left,left_blue.png,down_orange.png,down,right,up,6111811863a65868cb3522fe,2021-09-11_16h27.43.348,arrow_simon_vert,2021.1.2,Win32,59.90176111,,,,,,,,,,,,,,,,,,,,,,,,,,,,,,,,,,,,,,
,,,up,1,0.8731,0,0.536692703,#f3af84,"[""0"",""0.25""]",up_orange.png,up,8,1,33,1,1,,,right,right_blue.png,up_orange.png,up,right,up,6111811863a65868cb3522fe,2021-09-11_16h27.43.348,arrow_simon_vert,2021.1.2,Win32,59.90176111,,,,,,,,,,,,,,,,,,,,,,,,,,,,,,,,,,,,,,
,,,right,1,0.9095,0,0.503315412,#a3d0fb,"[""0.25"",""0""]",right_blue.png,right,8,2,34,1,1,,,right,right_blue.png,up_orange.png,up,right,up,6111811863a65868cb3522fe,2021-09-11_16h27.43.348,arrow_simon_vert,2021.1.2,Win32,59.90176111,,,,,,,,,,,,,,,,,,,,,,,,,,,,,,,,,,,,,,
,,,up,1,0.4848,0,0.103694041,#f3af84,"[""0"",""0.25""]",up_orange.png,up,8,3,35,1,1,,,right,right_blue.png,up_orange.png,up,right,up,6111811863a65868cb3522fe,2021-09-11_16h27.43.348,arrow_simon_vert,2021.1.2,Win32,59.90176111,,,,,,,,,,,,,,,,,,,,,,,,,,,,,,,,,,,,,,
,,,right,1,1.0389,0,0.605764351,#a3d0fb,"[""-0.25"",""0""]",right_blue.png,right,9,0,36,0,1,,,right,right_blue.png,up_orange.png,up,left,down,6111811863a65868cb3522fe,2021-09-11_16h27.43.348,arrow_simon_vert,2021.1.2,Win32,59.90176111,,,,,,,,,,,,,,,,,,,,,,,,,,,,,,,,,,,,,,
,,,up,1,0.6347,0,0.225302611,#f3af84,"[""0"",""0.25""]",up_orange.png,up,9,1,37,1,1,,,right,right_blue.png,up_orange.png,up,right,up,6111811863a65868cb3522fe,2021-09-11_16h27.43.348,arrow_simon_vert,2021.1.2,Win32,59.90176111,,,,,,,,,,,,,,,,,,,,,,,,,,,,,,,,,,,,,,
,,,left,1,0.8345,0,0.466088223,#a3d0fb,"[""-0.25"",""0""]",left_blue.png,left,9,2,38,2,1,,,left,left_blue.png,down_orange.png,down,left,down,6111811863a65868cb3522fe,2021-09-11_16h27.43.348,arrow_simon_vert,2021.1.2,Win32,59.90176111,,,,,,,,,,,,,,,,,,,,,,,,,,,,,,,,,,,,,,
,,,up,1,1.0264,0,0.693223434,#f3af84,"[""0"",""0.25""]",up_orange.png,up,9,3,39,1,1,,,right,right_blue.png,up_orange.png,up,right,up,6111811863a65868cb3522fe,2021-09-11_16h27.43.348,arrow_simon_vert,2021.1.2,Win32,59.90176111,,,,,,,,,,,,,,,,,,,,,,,,,,,,,,,,,,,,,,
,,,left,1,0.5294,0,0.143699274,#a3d0fb,"[""-0.25"",""0""]",left_blue.png,left,10,0,40,2,1,,,left,left_blue.png,down_orange.png,down,left,down,6111811863a65868cb3522fe,2021-09-11_16h27.43.348,arrow_simon_vert,2021.1.2,Win32,59.90176111,,,,,,,,,,,,,,,,,,,,,,,,,,,,,,,,,,,,,,
,,,down,1,1.0445,0,0.675916494,#f3af84,"[""0"",""-0.25""]",down_orange.png,down,10,1,41,2,1,,,left,left_blue.png,down_orange.png,down,left,down,6111811863a65868cb3522fe,2021-09-11_16h27.43.348,arrow_simon_vert,2021.1.2,Win32,59.90176111,,,,,,,,,,,,,,,,,,,,,,,,,,,,,,,,,,,,,,
,,,left,1,1.1275,0,0.724112582,#a3d0fb,"[""-0.25"",""0""]",left_blue.png,left,10,2,42,2,1,,,left,left_blue.png,down_orange.png,down,left,down,6111811863a65868cb3522fe,2021-09-11_16h27.43.348,arrow_simon_vert,2021.1.2,Win32,59.90176111,,,,,,,,,,,,,,,,,,,,,,,,,,,,,,,,,,,,,,
,,,up,1,1.2208,0,0.908704882,#f3af84,"[""0"",""0.25""]",up_orange.png,up,10,3,43,1,1,,,right,right_blue.png,up_orange.png,up,right,up,6111811863a65868cb3522fe,2021-09-11_16h27.43.348,arrow_simon_vert,2021.1.2,Win32,59.90176111,,,,,,,,,,,,,,,,,,,,,,,,,,,,,,,,,,,,,,
,,,right,1,0.7849,0,0.413700298,#a3d0fb,"[""0.25"",""0""]",right_blue.png,right,11,0,44,1,1,,,right,right_blue.png,up_orange.png,up,right,up,6111811863a65868cb3522fe,2021-09-11_16h27.43.348,arrow_simon_vert,2021.1.2,Win32,59.90176111,,,,,,,,,,,,,,,,,,,,,,,,,,,,,,,,,,,,,,
,,,up,1,0.5512,0,0.004199475,#f3af84,"[""0"",""-0.25""]",up_orange.png,up,11,1,45,0,1,,,right,right_blue.png,up_orange.png,up,left,down,6111811863a65868cb3522fe,2021-09-11_16h27.43.348,arrow_simon_vert,2021.1.2,Win32,59.90176111,,,,,,,,,,,,,,,,,,,,,,,,,,,,,,,,,,,,,,
,,,right,1,1.135,0,0.776475513,#a3d0fb,"[""0.25"",""0""]",right_blue.png,right,11,2,46,1,1,,,right,right_blue.png,up_orange.png,up,right,up,6111811863a65868cb3522fe,2021-09-11_16h27.43.348,arrow_simon_vert,2021.1.2,Win32,59.90176111,,,,,,,,,,,,,,,,,,,,,,,,,,,,,,,,,,,,,,
,,,up,1,0.9521,0,0.502291807,#f3af84,"[""0"",""-0.25""]",up_orange.png,up,11,3,47,0,1,,,right,right_blue.png,up_orange.png,up,left,down,6111811863a65868cb3522fe,2021-09-11_16h27.43.348,arrow_simon_vert,2021.1.2,Win32,59.90176111,,,,,,,,,,,,,,,,,,,,,,,,,,,,,,,,,,,,,,
,,,right,1,0.6004,0,0.160143004,#a3d0fb,"[""-0.25"",""0""]",right_blue.png,right,12,0,48,0,1,,,right,right_blue.png,up_orange.png,up,left,down,6111811863a65868cb3522fe,2021-09-11_16h27.43.348,arrow_simon_vert,2021.1.2,Win32,59.90176111,,,,,,,,,,,,,,,,,,,,,,,,,,,,,,,,,,,,,,
,,,up,1,0.76,0,0.288700708,#f3af84,"[""0"",""-0.25""]",up_orange.png,up,12,1,49,0,1,,,right,right_blue.png,up_orange.png,up,left,down,6111811863a65868cb3522fe,2021-09-11_16h27.43.348,arrow_simon_vert,2021.1.2,Win32,59.90176111,,,,,,,,,,,,,,,,,,,,,,,,,,,,,,,,,,,,,,
,,,right,1,0.7512,0,0.300765244,#a3d0fb,"[""-0.25"",""0""]",right_blue.png,right,12,2,50,0,1,,,right,right_blue.png,up_orange.png,up,left,down,6111811863a65868cb3522fe,2021-09-11_16h27.43.348,arrow_simon_vert,2021.1.2,Win32,59.90176111,,,,,,,,,,,,,,,,,,,,,,,,,,,,,,,,,,,,,,
,,,down,1,0.631,0,0.140492886,#f3af84,"[""0"",""0.25""]",down_orange.png,down,12,3,51,3,1,,,left,left_blue.png,down_orange.png,down,right,up,6111811863a65868cb3522fe,2021-09-11_16h27.43.348,arrow_simon_vert,2021.1.2,Win32,59.90176111,,,,,,,,,,,,,,,,,,,,,,,,,,,,,,,,,,,,,,
,,,right,1,1.252,0,0.902960719,#a3d0fb,"[""0.25"",""0""]",right_blue.png,right,13,0,52,1,1,,,right,right_blue.png,up_orange.png,up,right,up,6111811863a65868cb3522fe,2021-09-11_16h27.43.348,arrow_simon_vert,2021.1.2,Win32,59.90176111,,,,,,,,,,,,,,,,,,,,,,,,,,,,,,,,,,,,,,
,,,down,1,0.6845,0,0.267365727,#f3af84,"[""0"",""0.25""]",down_orange.png,down,13,1,53,3,1,,,left,left_blue.png,down_orange.png,down,right,up,6111811863a65868cb3522fe,2021-09-11_16h27.43.348,arrow_simon_vert,2021.1.2,Win32,59.90176111,,,,,,,,,,,,,,,,,,,,,,,,,,,,,,,,,,,,,,
,,,right,1,1.0227,0,0.694799021,#a3d0fb,"[""0.25"",""0""]",right_blue.png,right,13,2,54,1,1,,,right,right_blue.png,up_orange.png,up,right,up,6111811863a65868cb3522fe,2021-09-11_16h27.43.348,arrow_simon_vert,2021.1.2,Win32,59.90176111,,,,,,,,,,,,,,,,,,,,,,,,,,,,,,,,,,,,,,
,,,down,1,0.6173,0,0.133128179,#f3af84,"[""0"",""0.25""]",down_orange.png,down,13,3,55,3,1,,,left,left_blue.png,down_orange.png,down,right,up,6111811863a65868cb3522fe,2021-09-11_16h27.43.348,arrow_simon_vert,2021.1.2,Win32,59.90176111,,,,,,,,,,,,,,,,,,,,,,,,,,,,,,,,,,,,,,
,,,left,1,1.3593,0,0.814251221,#a3d0fb,"[""-0.25"",""0""]",left_blue.png,left,14,0,56,2,1,,,left,left_blue.png,down_orange.png,down,left,down,6111811863a65868cb3522fe,2021-09-11_16h27.43.348,arrow_simon_vert,2021.1.2,Win32,59.90176111,,,,,,,,,,,,,,,,,,,,,,,,,,,,,,,,,,,,,,
,,,up,1,1.0353,0,0.517760668,#f3af84,"[""0"",""-0.25""]",up_orange.png,up,14,1,57,0,1,,,right,right_blue.png,up_orange.png,up,left,down,6111811863a65868cb3522fe,2021-09-11_16h27.43.348,arrow_simon_vert,2021.1.2,Win32,59.90176111,,,,,,,,,,,,,,,,,,,,,,,,,,,,,,,,,,,,,,
,,,left,1,0.5846,0,0.157953533,#a3d0fb,"[""-0.25"",""0""]",left_blue.png,left,14,2,58,2,1,,,left,left_blue.png,down_orange.png,down,left,down,6111811863a65868cb3522fe,2021-09-11_16h27.43.348,arrow_simon_vert,2021.1.2,Win32,59.90176111,,,,,,,,,,,,,,,,,,,,,,,,,,,,,,,,,,,,,,
,,,down,1,1.1522,0,0.799552006,#f3af84,"[""0"",""-0.25""]",down_orange.png,down,14,3,59,2,1,,,left,left_blue.png,down_orange.png,down,left,down,6111811863a65868cb3522fe,2021-09-11_16h27.43.348,arrow_simon_vert,2021.1.2,Win32,59.90176111,,,,,,,,,,,,,,,,,,,,,,,,,,,,,,,,,,,,,,
,,,,,,,,,,,,,,,,,,,,,,,,,6111811863a65868cb3522fe,2021-09-11_16h27.43.348,arrow_simon_vert,2021.1.2,Win32,59.90176111,space,5.6892,0,0,0,0,1,,,,,,,,,,,,,,,,,,,,,,,,,,,,,,,
,,,left,1,1.0853,0,0.609634373,#a3d0fb,"[""-0.25"",""0""]",left_blue.png,left,0,0,0,2,1,,,left,left_blue.png,down_orange.png,down,left,down,6111811863a65868cb3522fe,2021-09-11_16h27.43.348,arrow_simon_vert,2021.1.2,Win32,59.90176111,,,,,,,,,,,,,,,,,,,,,,,,,,,,,,,,,,,,,,
,,,down,1,0.44,0,0.052490438,#f3af84,"[""0"",""-0.25""]",down_orange.png,down,0,1,1,2,1,,,left,left_blue.png,down_orange.png,down,left,down,6111811863a65868cb3522fe,2021-09-11_16h27.43.348,arrow_simon_vert,2021.1.2,Win32,59.90176111,,,,,,,,,,,,,,,,,,,,,,,,,,,,,,,,,,,,,,
,,,right,1,0.9596,0,0.570374998,#a3d0fb,"[""-0.25"",""0""]",right_blue.png,right,0,2,2,0,1,,,right,right_blue.png,up_orange.png,up,left,down,6111811863a65868cb3522fe,2021-09-11_16h27.43.348,arrow_simon_vert,2021.1.2,Win32,59.90176111,,,,,,,,,,,,,,,,,,,,,,,,,,,,,,,,,,,,,,
,,,up,1,0.5249,0,0.006142769,#f3af84,"[""0"",""-0.25""]",up_orange.png,up,0,3,3,0,1,,,right,right_blue.png,up_orange.png,up,left,down,6111811863a65868cb3522fe,2021-09-11_16h27.43.348,arrow_simon_vert,2021.1.2,Win32,59.90176111,,,,,,,,,,,,,,,,,,,,,,,,,,,,,,,,,,,,,,
,,,right,1,1.0516,0,0.685347502,#a3d0fb,"[""0.25"",""0""]",right_blue.png,right,1,0,4,1,1,,,right,right_blue.png,up_orange.png,up,right,up,6111811863a65868cb3522fe,2021-09-11_16h27.43.348,arrow_simon_vert,2021.1.2,Win32,59.90176111,,,,,,,,,,,,,,,,,,,,,,,,,,,,,,,,,,,,,,
,,,up,1,1.2854,0,0.827589356,#f3af84,"[""0"",""-0.25""]",up_orange.png,up,1,1,5,0,1,,,right,right_blue.png,up_orange.png,up,left,down,6111811863a65868cb3522fe,2021-09-11_16h27.43.348,arrow_simon_vert,2021.1.2,Win32,59.90176111,,,,,,,,,,,,,,,,,,,,,,,,,,,,,,,,,,,,,,
,,,right,1,0.9348,0,0.569780338,#a3d0fb,"[""0.25"",""0""]",right_blue.png,right,1,2,6,1,1,,,right,right_blue.png,up_orange.png,up,right,up,6111811863a65868cb3522fe,2021-09-11_16h27.43.348,arrow_simon_vert,2021.1.2,Win32,59.90176111,,,,,,,,,,,,,,,,,,,,,,,,,,,,,,,,,,,,,,
,,,up,1,1.1467,0,0.659924512,#f3af84,"[""0"",""0.25""]",up_orange.png,up,1,3,7,1,1,,,right,right_blue.png,up_orange.png,up,right,up,6111811863a65868cb3522fe,2021-09-11_16h27.43.348,arrow_simon_vert,2021.1.2,Win32,59.90176111,,,,,,,,,,,,,,,,,,,,,,,,,,,,,,,,,,,,,,
,,,right,1,0.7348,0,0.303220729,#a3d0fb,"[""0.25"",""0""]",right_blue.png,right,2,0,8,1,1,,,right,right_blue.png,up_orange.png,up,right,up,6111811863a65868cb3522fe,2021-09-11_16h27.43.348,arrow_simon_vert,2021.1.2,Win32,59.90176111,,,,,,,,,,,,,,,,,,,,,,,,,,,,,,,,,,,,,,
,,,up,1,0.7392,0,0.31413808,#f3af84,"[""0"",""-0.25""]",up_orange.png,up,2,1,9,0,1,,,right,right_blue.png,up_orange.png,up,left,down,6111811863a65868cb3522fe,2021-09-11_16h27.43.348,arrow_simon_vert,2021.1.2,Win32,59.90176111,,,,,,,,,,,,,,,,,,,,,,,,,,,,,,,,,,,,,,
,,,left,1,1.3224,0,0.91853157,#a3d0fb,"[""-0.25"",""0""]",left_blue.png,left,2,2,10,2,1,,,left,left_blue.png,down_orange.png,down,left,down,6111811863a65868cb3522fe,2021-09-11_16h27.43.348,arrow_simon_vert,2021.1.2,Win32,59.90176111,,,,,,,,,,,,,,,,,,,,,,,,,,,,,,,,,,,,,,
,,,up,1,0.6684,0,0.258663073,#f3af84,"[""0"",""0.25""]",up_orange.png,up,2,3,11,1,1,,,right,right_blue.png,up_orange.png,up,right,up,6111811863a65868cb3522fe,2021-09-11_16h27.43.348,arrow_simon_vert,2021.1.2,Win32,59.90176111,,,,,,,,,,,,,,,,,,,,,,,,,,,,,,,,,,,,,,
,,,left,1,1.2517,0,0.804015895,#a3d0fb,"[""0.25"",""0""]",left_blue.png,left,3,0,12,3,1,,,left,left_blue.png,down_orange.png,down,right,up,6111811863a65868cb3522fe,2021-09-11_16h27.43.348,arrow_simon_vert,2021.1.2,Win32,59.90176111,,,,,,,,,,,,,,,,,,,,,,,,,,,,,,,,,,,,,,
,,,down,1,1.2682,0,0.780634011,#f3af84,"[""0"",""0.25""]",down_orange.png,down,3,1,13,3,1,,,left,left_blue.png,down_orange.png,down,right,up,6111811863a65868cb3522fe,2021-09-11_16h27.43.348,arrow_simon_vert,2021.1.2,Win32,59.90176111,,,,,,,,,,,,,,,,,,,,,,,,,,,,,,,,,,,,,,
,,,right,1,0.7084,0,0.252158523,#a3d0fb,"[""0.25"",""0""]",right_blue.png,right,3,2,14,1,1,,,right,right_blue.png,up_orange.png,up,right,up,6111811863a65868cb3522fe,2021-09-11_16h27.43.348,arrow_simon_vert,2021.1.2,Win32,59.90176111,,,,,,,,,,,,,,,,,,,,,,,,,,,,,,,,,,,,,,
,,,down,1,0.7956,0,0.346339147,#f3af84,"[""0"",""0.25""]",down_orange.png,down,3,3,15,3,1,,,left,left_blue.png,down_orange.png,down,right,up,6111811863a65868cb3522fe,2021-09-11_16h27.43.348,arrow_simon_vert,2021.1.2,Win32,59.90176111,,,,,,,,,,,,,,,,,,,,,,,,,,,,,,,,,,,,,,
,,,right,1,0.9603,0,0.512927955,#a3d0fb,"[""-0.25"",""0""]",right_blue.png,right,4,0,16,0,1,,,right,right_blue.png,up_orange.png,up,left,down,6111811863a65868cb3522fe,2021-09-11_16h27.43.348,arrow_simon_vert,2021.1.2,Win32,59.90176111,,,,,,,,,,,,,,,,,,,,,,,,,,,,,,,,,,,,,,
,,,up,1,0.7344,0,0.324676505,#f3af84,"[""0"",""0.25""]",up_orange.png,up,4,1,17,1,1,,,right,right_blue.png,up_orange.png,up,right,up,6111811863a65868cb3522fe,2021-09-11_16h27.43.348,arrow_simon_vert,2021.1.2,Win32,59.90176111,,,,,,,,,,,,,,,,,,,,,,,,,,,,,,,,,,,,,,
,,,left,1,0.7403,0,0.202680145,#a3d0fb,"[""0.25"",""0""]",left_blue.png,left,4,2,18,3,1,,,left,left_blue.png,down_orange.png,down,right,up,6111811863a65868cb3522fe,2021-09-11_16h27.43.348,arrow_simon_vert,2021.1.2,Win32,59.90176111,,,,,,,,,,,,,,,,,,,,,,,,,,,,,,,,,,,,,,
,,,up,1,0.7104,0,0.36500314,#f3af84,"[""0"",""0.25""]",up_orange.png,up,4,3,19,1,1,,,right,right_blue.png,up_orange.png,up,right,up,6111811863a65868cb3522fe,2021-09-11_16h27.43.348,arrow_simon_vert,2021.1.2,Win32,59.90176111,,,,,,,,,,,,,,,,,,,,,,,,,,,,,,,,,,,,,,
,,,left,1,0.6702,0,0.262610544,#a3d0fb,"[""-0.25"",""0""]",left_blue.png,left,5,0,20,2,1,,,left,left_blue.png,down_orange.png,down,left,down,6111811863a65868cb3522fe,2021-09-11_16h27.43.348,arrow_simon_vert,2021.1.2,Win32,59.90176111,,,,,,,,,,,,,,,,,,,,,,,,,,,,,,,,,,,,,,
,,,down,1,1.4235,0,0.991350666,#f3af84,"[""0"",""-0.25""]",down_orange.png,down,5,1,21,2,1,,,left,left_blue.png,down_orange.png,down,left,down,6111811863a65868cb3522fe,2021-09-11_16h27.43.348,arrow_simon_vert,2021.1.2,Win32,59.90176111,,,,,,,,,,,,,,,,,,,,,,,,,,,,,,,,,,,,,,
,,,right,1,0.6123,0,0.134612907,#a3d0fb,"[""-0.25"",""0""]",right_blue.png,right,5,2,22,0,1,,,right,right_blue.png,up_orange.png,up,left,down,6111811863a65868cb3522fe,2021-09-11_16h27.43.348,arrow_simon_vert,2021.1.2,Win32,59.90176111,,,,,,,,,,,,,,,,,,,,,,,,,,,,,,,,,,,,,,
,,,up,1,0.9448,0,0.520660011,#f3af84,"[""0"",""0.25""]",up_orange.png,up,5,3,23,1,1,,,right,right_blue.png,up_orange.png,up,right,up,6111811863a65868cb3522fe,2021-09-11_16h27.43.348,arrow_simon_vert,2021.1.2,Win32,59.90176111,,,,,,,,,,,,,,,,,,,,,,,,,,,,,,,,,,,,,,
,,,right,1,1.039,0,0.642976623,#a3d0fb,"[""0.25"",""0""]",right_blue.png,right,6,0,24,1,1,,,right,right_blue.png,up_orange.png,up,right,up,6111811863a65868cb3522fe,2021-09-11_16h27.43.348,arrow_simon_vert,2021.1.2,Win32,59.90176111,,,,,,,,,,,,,,,,,,,,,,,,,,,,,,,,,,,,,,
,,,up,1,1.2651,0,0.818727626,#f3af84,"[""0"",""-0.25""]",up_orange.png,up,6,1,25,0,1,,,right,right_blue.png,up_orange.png,up,left,down,6111811863a65868cb3522fe,2021-09-11_16h27.43.348,arrow_simon_vert,2021.1.2,Win32,59.90176111,,,,,,,,,,,,,,,,,,,,,,,,,,,,,,,,,,,,,,
,,,right,1,0.7688,0,0.392131481,#a3d0fb,"[""0.25"",""0""]",right_blue.png,right,6,2,26,1,1,,,right,right_blue.png,up_orange.png,up,right,up,6111811863a65868cb3522fe,2021-09-11_16h27.43.348,arrow_simon_vert,2021.1.2,Win32,59.90176111,,,,,,,,,,,,,,,,,,,,,,,,,,,,,,,,,,,,,,
,,,down,1,1.1449,0,0.713293407,#f3af84,"[""0"",""0.25""]",down_orange.png,down,6,3,27,3,1,,,left,left_blue.png,down_orange.png,down,right,up,6111811863a65868cb3522fe,2021-09-11_16h27.43.348,arrow_simon_vert,2021.1.2,Win32,59.90176111,,,,,,,,,,,,,,,,,,,,,,,,,,,,,,,,,,,,,,
,,,left,1,0.8017,0,0.432291612,#a3d0fb,"[""-0.25"",""0""]",left_blue.png,left,7,0,28,2,1,,,left,left_blue.png,down_orange.png,down,left,down,6111811863a65868cb3522fe,2021-09-11_16h27.43.348,arrow_simon_vert,2021.1.2,Win32,59.90176111,,,,,,,,,,,,,,,,,,,,,,,,,,,,,,,,,,,,,,
,,,down,1,0.8684,0,0.500831325,#f3af84,"[""0"",""-0.25""]",down_orange.png,down,7,1,29,2,1,,,left,left_blue.png,down_orange.png,down,left,down,6111811863a65868cb3522fe,2021-09-11_16h27.43.348,arrow_simon_vert,2021.1.2,Win32,59.90176111,,,,,,,,,,,,,,,,,,,,,,,,,,,,,,,,,,,,,,
,,,right,1,0.4197,0,0.011729468,#a3d0fb,"[""0.25"",""0""]",right_blue.png,right,7,2,30,1,1,,,right,right_blue.png,up_orange.png,up,right,up,6111811863a65868cb3522fe,2021-09-11_16h27.43.348,arrow_simon_vert,2021.1.2,Win32,59.90176111,,,,,,,,,,,,,,,,,,,,,,,,,,,,,,,,,,,,,,
,,,down,1,1.0452,0,0.620667924,#f3af84,"[""0"",""0.25""]",down_orange.png,down,7,3,31,3,1,,,left,left_blue.png,down_orange.png,down,right,up,6111811863a65868cb3522fe,2021-09-11_16h27.43.348,arrow_simon_vert,2021.1.2,Win32,59.90176111,,,,,,,,,,,,,,,,,,,,,,,,,,,,,,,,,,,,,,
,,,left,1,0.8548,0,0.444365695,#a3d0fb,"[""0.25"",""0""]",left_blue.png,left,8,0,32,3,1,,,left,left_blue.png,down_orange.png,down,right,up,6111811863a65868cb3522fe,2021-09-11_16h27.43.348,arrow_simon_vert,2021.1.2,Win32,59.90176111,,,,,,,,,,,,,,,,,,,,,,,,,,,,,,,,,,,,,,
,,,up,1,1.4349,0,0.954570363,#f3af84,"[""0"",""-0.25""]",up_orange.png,up,8,1,33,0,1,,,right,right_blue.png,up_orange.png,up,left,down,6111811863a65868cb3522fe,2021-09-11_16h27.43.348,arrow_simon_vert,2021.1.2,Win32,59.90176111,,,,,,,,,,,,,,,,,,,,,,,,,,,,,,,,,,,,,,
,,,left,1,0.9346,0,0.519790191,#a3d0fb,"[""0.25"",""0""]",left_blue.png,left,8,2,34,3,1,,,left,left_blue.png,down_orange.png,down,right,up,6111811863a65868cb3522fe,2021-09-11_16h27.43.348,arrow_simon_vert,2021.1.2,Win32,59.90176111,,,,,,,,,,,,,,,,,,,,,,,,,,,,,,,,,,,,,,
,,,down,1,1.1107,0,0.740088482,#f3af84,"[""0"",""-0.25""]",down_orange.png,down,8,3,35,2,1,,,left,left_blue.png,down_orange.png,down,left,down,6111811863a65868cb3522fe,2021-09-11_16h27.43.348,arrow_simon_vert,2021.1.2,Win32,59.90176111,,,,,,,,,,,,,,,,,,,,,,,,,,,,,,,,,,,,,,
,,,left,1,1.2058,0,0.814918855,#a3d0fb,"[""-0.25"",""0""]",left_blue.png,left,9,0,36,2,1,,,left,left_blue.png,down_orange.png,down,left,down,6111811863a65868cb3522fe,2021-09-11_16h27.43.348,arrow_simon_vert,2021.1.2,Win32,59.90176111,,,,,,,,,,,,,,,,,,,,,,,,,,,,,,,,,,,,,,
,,,up,1,1.0382,0,0.681225472,#f3af84,"[""0"",""0.25""]",up_orange.png,up,9,1,37,1,1,,,right,right_blue.png,up_orange.png,up,right,up,6111811863a65868cb3522fe,2021-09-11_16h27.43.348,arrow_simon_vert,2021.1.2,Win32,59.90176111,,,,,,,,,,,,,,,,,,,,,,,,,,,,,,,,,,,,,,
,,,left,1,0.669,0,0.23497097,#a3d0fb,"[""-0.25"",""0""]",left_blue.png,left,9,2,38,2,1,,,left,left_blue.png,down_orange.png,down,left,down,6111811863a65868cb3522fe,2021-09-11_16h27.43.348,arrow_simon_vert,2021.1.2,Win32,59.90176111,,,,,,,,,,,,,,,,,,,,,,,,,,,,,,,,,,,,,,
,,,down,1,1.085,0,0.60598536,#f3af84,"[""0"",""0.25""]",down_orange.png,down,9,3,39,3,1,,,left,left_blue.png,down_orange.png,down,right,up,6111811863a65868cb3522fe,2021-09-11_16h27.43.348,arrow_simon_vert,2021.1.2,Win32,59.90176111,,,,,,,,,,,,,,,,,,,,,,,,,,,,,,,,,,,,,,
,,,left,1,0.9182,0,0.52946206,#a3d0fb,"[""-0.25"",""0""]",left_blue.png,left,10,0,40,2,1,,,left,left_blue.png,down_orange.png,down,left,down,6111811863a65868cb3522fe,2021-09-11_16h27.43.348,arrow_simon_vert,2021.1.2,Win32,59.90176111,,,,,,,,,,,,,,,,,,,,,,,,,,,,,,,,,,,,,,
,,,down,1,1.0427,0,0.576306954,#f3af84,"[""0"",""0.25""]",down_orange.png,down,10,1,41,3,1,,,left,left_blue.png,down_orange.png,down,right,up,6111811863a65868cb3522fe,2021-09-11_16h27.43.348,arrow_simon_vert,2021.1.2,Win32,59.90176111,,,,,,,,,,,,,,,,,,,,,,,,,,,,,,,,,,,,,,
,,,left,1,0.7009,0,0.249205997,#a3d0fb,"[""0.25"",""0""]",left_blue.png,left,10,2,42,3,1,,,left,left_blue.png,down_orange.png,down,right,up,6111811863a65868cb3522fe,2021-09-11_16h27.43.348,arrow_simon_vert,2021.1.2,Win32,59.90176111,,,,,,,,,,,,,,,,,,,,,,,,,,,,,,,,,,,,,,
,,,up,1,0.5136,0,0.053676696,#f3af84,"[""0"",""0.25""]",up_orange.png,up,10,3,43,1,1,,,right,right_blue.png,up_orange.png,up,right,up,6111811863a65868cb3522fe,2021-09-11_16h27.43.348,arrow_simon_vert,2021.1.2,Win32,59.90176111,,,,,,,,,,,,,,,,,,,,,,,,,,,,,,,,,,,,,,
,,,right,1,0.48,0,0.056333153,#a3d0fb,"[""-0.25"",""0""]",right_blue.png,right,11,0,44,0,1,,,right,right_blue.png,up_orange.png,up,left,down,6111811863a65868cb3522fe,2021-09-11_16h27.43.348,arrow_simon_vert,2021.1.2,Win32,59.90176111,,,,,,,,,,,,,,,,,,,,,,,,,,,,,,,,,,,,,,
,,,down,1,1.1094,0,0.71150995,#f3af84,"[""0"",""0.25""]",down_orange.png,down,11,1,45,3,1,,,left,left_blue.png,down_orange.png,down,right,up,6111811863a65868cb3522fe,2021-09-11_16h27.43.348,arrow_simon_vert,2021.1.2,Win32,59.90176111,,,,,,,,,,,,,,,,,,,,,,,,,,,,,,,,,,,,,,
,,,right,1,1.3653,0,0.983672674,#a3d0fb,"[""0.25"",""0""]",right_blue.png,right,11,2,46,1,1,,,right,right_blue.png,up_orange.png,up,right,up,6111811863a65868cb3522fe,2021-09-11_16h27.43.348,arrow_simon_vert,2021.1.2,Win32,59.90176111,,,,,,,,,,,,,,,,,,,,,,,,,,,,,,,,,,,,,,
,,,down,1,1.3259,0,0.905733906,#f3af84,"[""0"",""-0.25""]",down_orange.png,down,11,3,47,2,1,,,left,left_blue.png,down_orange.png,down,left,down,6111811863a65868cb3522fe,2021-09-11_16h27.43.348,arrow_simon_vert,2021.1.2,Win32,59.90176111,,,,,,,,,,,,,,,,,,,,,,,,,,,,,,,,,,,,,,
,,,left,1,1.3627,0,0.947080113,#a3d0fb,"[""-0.25"",""0""]",left_blue.png,left,12,0,48,2,1,,,left,left_blue.png,down_orange.png,down,left,down,6111811863a65868cb3522fe,2021-09-11_16h27.43.348,arrow_simon_vert,2021.1.2,Win32,59.90176111,,,,,,,,,,,,,,,,,,,,,,,,,,,,,,,,,,,,,,
,,,up,1,1.1784,0,0.672530301,#f3af84,"[""0"",""-0.25""]",up_orange.png,up,12,1,49,0,1,,,right,right_blue.png,up_orange.png,up,left,down,6111811863a65868cb3522fe,2021-09-11_16h27.43.348,arrow_simon_vert,2021.1.2,Win32,59.90176111,,,,,,,,,,,,,,,,,,,,,,,,,,,,,,,,,,,,,,
,,,right,1,1.1927,0,0.782782364,#a3d0fb,"[""-0.25"",""0""]",right_blue.png,right,12,2,50,0,1,,,right,right_blue.png,up_orange.png,up,left,down,6111811863a65868cb3522fe,2021-09-11_16h27.43.348,arrow_simon_vert,2021.1.2,Win32,59.90176111,,,,,,,,,,,,,,,,,,,,,,,,,,,,,,,,,,,,,,
,,,down,1,0.7083,0,0.15157145,#f3af84,"[""0"",""-0.25""]",down_orange.png,down,12,3,51,2,1,,,left,left_blue.png,down_orange.png,down,left,down,6111811863a65868cb3522fe,2021-09-11_16h27.43.348,arrow_simon_vert,2021.1.2,Win32,59.90176111,,,,,,,,,,,,,,,,,,,,,,,,,,,,,,,,,,,,,,
,,,right,1,0.5235,0,0.056831522,#a3d0fb,"[""-0.25"",""0""]",right_blue.png,right,13,0,52,0,1,,,right,right_blue.png,up_orange.png,up,left,down,6111811863a65868cb3522fe,2021-09-11_16h27.43.348,arrow_simon_vert,2021.1.2,Win32,59.90176111,,,,,,,,,,,,,,,,,,,,,,,,,,,,,,,,,,,,,,
,,,up,1,0.5515,0,0.047845937,#f3af84,"[""0"",""-0.25""]",up_orange.png,up,13,1,53,0,1,,,right,right_blue.png,up_orange.png,up,left,down,6111811863a65868cb3522fe,2021-09-11_16h27.43.348,arrow_simon_vert,2021.1.2,Win32,59.90176111,,,,,,,,,,,,,,,,,,,,,,,,,,,,,,,,,,,,,,
,,,left,1,0.8872,0,0.466544176,#a3d0fb,"[""0.25"",""0""]",left_blue.png,left,13,2,54,3,1,,,left,left_blue.png,down_orange.png,down,right,up,6111811863a65868cb3522fe,2021-09-11_16h27.43.348,arrow_simon_vert,2021.1.2,Win32,59.90176111,,,,,,,,,,,,,,,,,,,,,,,,,,,,,,,,,,,,,,
,,,up,1,0.9369,0,0.494307301,#f3af84,"[""0"",""-0.25""]",up_orange.png,up,13,3,55,0,1,,,right,right_blue.png,up_orange.png,up,left,down,6111811863a65868cb3522fe,2021-09-11_16h27.43.348,arrow_simon_vert,2021.1.2,Win32,59.90176111,,,,,,,,,,,,,,,,,,,,,,,,,,,,,,,,,,,,,,
,,,left,1,0.6231,0,0.15626675,#a3d0fb,"[""-0.25"",""0""]",left_blue.png,left,14,0,56,2,1,,,left,left_blue.png,down_orange.png,down,left,down,6111811863a65868cb3522fe,2021-09-11_16h27.43.348,arrow_simon_vert,2021.1.2,Win32,59.90176111,,,,,,,,,,,,,,,,,,,,,,,,,,,,,,,,,,,,,,
,,,down,1,0.8403,0,0.35679349,#f3af84,"[""0"",""0.25""]",down_orange.png,down,14,1,57,3,1,,,left,left_blue.png,down_orange.png,down,right,up,6111811863a65868cb3522fe,2021-09-11_16h27.43.348,arrow_simon_vert,2021.1.2,Win32,59.90176111,,,,,,,,,,,,,,,,,,,,,,,,,,,,,,,,,,,,,,
,,,left,1,0.5567,0,0.102143894,#a3d0fb,"[""0.25"",""0""]",left_blue.png,left,14,2,58,3,1,,,left,left_blue.png,down_orange.png,down,right,up,6111811863a65868cb3522fe,2021-09-11_16h27.43.348,arrow_simon_vert,2021.1.2,Win32,59.90176111,,,,,,,,,,,,,,,,,,,,,,,,,,,,,,,,,,,,,,
,,,up,1,0.6765,0,0.238808125,#f3af84,"[""0"",""-0.25""]",up_orange.png,up,14,3,59,0,1,,,right,right_blue.png,up_orange.png,up,left,down,6111811863a65868cb3522fe,2021-09-11_16h27.43.348,arrow_simon_vert,2021.1.2,Win32,59.90176111,,,,,,,,,,,,,,,,,,,,,,,,,,,,,,,,,,,,,,
,,,,,,,,,,,,,,,,,,,,,,,,,6111811863a65868cb3522fe,2021-09-11_16h27.43.348,arrow_simon_vert,2021.1.2,Win32,59.90176111,space,1.8689,1,0,1,0,1,,,,,,,,,,,,,,,,,,,,,,,,,,,,,,,
,,,,,,,,,,,,,,,,,,,,,,,,,6111811863a65868cb3522fe,2021-09-11_16h27.43.348,arrow_simon_vert,2021.1.2,Win32,59.90176111,,,,,,,,space,0,36.7901,right,2.6221,0,0,0,0,1,,,,,,,,,,,,,,,,,,,,,
,,,,,,,,,,,,,,,,,,,,,,,,,6111811863a65868cb3522fe,2021-09-11_16h27.43.348,arrow_simon_vert,2021.1.2,Win32,59.90176111,,,,,,,,,,,up,2.0642,1,0,1,0,1,,,,,,,,,,,,,,,,,,,,,
,,,,,,,,,,,,,,,,,,,,,,,,,6111811863a65868cb3522fe,2021-09-11_16h27.43.348,arrow_simon_vert,2021.1.2,Win32,59.90176111,,,,,,,,,,,right,2.3623,2,0,2,0,1,,,,,,,,,,,,,,,,,,,,,
,,,,,,,,,,,,,,,,,,,,,,,,,6111811863a65868cb3522fe,2021-09-11_16h27.43.348,arrow_simon_vert,2021.1.2,Win32,59.90176111,,,,,,,,,,,down,2.3459,3,0,3,0,1,,,,,,,,,,,,,,,,,,,,,
,,,,,,,,,,,,,,,,,,,,,,,,,6111811863a65868cb3522fe,2021-09-11_16h27.43.348,arrow_simon_vert,2021.1.2,Win32,59.90176111,,,,,,,,,,,right,2.7369,4,0,4,0,1,,,,,,,,,,,,,,,,,,,,,
,,,,,,,,,,,,,,,,,,,,,,,,,6111811863a65868cb3522fe,2021-09-11_16h27.43.348,arrow_simon_vert,2021.1.2,Win32,59.90176111,,,,,,,,,,,up,2.4966,5,0,5,0,1,,,,,,,,,,,,,,,,,,,,,
,,,,,,,,,,,,,,,,,,,,,,,,,6111811863a65868cb3522fe,2021-09-11_16h27.43.348,arrow_simon_vert,2021.1.2,Win32,59.90176111,,,,,,,,,,,right,2.455,6,0,6,0,1,,,,,,,,,,,,,,,,,,,,,
,,,,,,,,,,,,,,,,,,,,,,,,,6111811863a65868cb3522fe,2021-09-11_16h27.43.348,arrow_simon_vert,2021.1.2,Win32,59.90176111,,,,,,,,,,,up,2.5163,7,0,7,0,1,,,,,,,,,,,,,,,,,,,,,
,,,,,,,,,,,,,,,,,,,,,,,,,6111811863a65868cb3522fe,2021-09-11_16h27.43.348,arrow_simon_vert,2021.1.2,Win32,59.90176111,,,,,,,,,,,right,2.5038,8,0,8,0,1,,,,,,,,,,,,,,,,,,,,,
,,,,,,,,,,,,,,,,,,,,,,,,,6111811863a65868cb3522fe,2021-09-11_16h27.43.348,arrow_simon_vert,2021.1.2,Win32,59.90176111,,,,,,,,,,,up,2.4798,9,0,9,0,1,,,,,,,,,,,,,,,,,,,,,
,,,,,,,,,,,,,,,,,,,,,,,,,6111811863a65868cb3522fe,2021-09-11_16h27.43.348,arrow_simon_vert,2021.1.2,Win32,59.90176111,,,,,,,,,,,right,2.4279,10,0,10,0,1,,,,,,,,,,,,,,,,,,,,,
,,,,,,,,,,,,,,,,,,,,,,,,,6111811863a65868cb3522fe,2021-09-11_16h27.43.348,arrow_simon_vert,2021.1.2,Win32,59.90176111,,,,,,,,,,,up,2.4963,11,0,11,0,1,,,,,,,,,,,,,,,,,,,,,
,,,,,,,,,,,,,,,,,,,,,,,,,6111811863a65868cb3522fe,2021-09-11_16h27.43.348,arrow_simon_vert,2021.1.2,Win32,59.90176111,,,,,,,,,,,right,2.4359,12,0,12,0,1,,,,,,,,,,,,,,,,,,,,,
,,,,,,,,,,,,,,,,,,,,,,,,,6111811863a65868cb3522fe,2021-09-11_16h27.43.348,arrow_simon_vert,2021.1.2,Win32,59.90176111,,,,,,,,,,,up,2.4158,13,0,13,0,1,,,,,,,,,,,,,,,,,,,,,
,,,,,,,,,,,,,,,,,,,,,,,,,6111811863a65868cb3522fe,2021-09-11_16h27.43.348,arrow_simon_vert,2021.1.2,Win32,59.90176111,,,,,,,,,,,right,2.4378,14,0,14,0,1,,,,,,,,,,,,,,,,,,,,,
,,,,,,,,,,,,,,,,,,,,,,,,,6111811863a65868cb3522fe,2021-09-11_16h27.43.348,arrow_simon_vert,2021.1.2,Win32,59.90176111,,,,,,,,,,,up,2.4615,15,0,15,0,1,,,,,,,,,,,,,,,,,,,,,
,,,,,,,,,,,,,,,,,,,,,,,,,6111811863a65868cb3522fe,2021-09-11_16h27.43.348,arrow_simon_vert,2021.1.2,Win32,59.90176111,,,,,,,,,,,right,2.4482,16,0,16,0,1,,,,,,,,,,,,,,,,,,,,,
,,,,,,,,,,,,,,,,,,,,,,,,,6111811863a65868cb3522fe,2021-09-11_16h27.43.348,arrow_simon_vert,2021.1.2,Win32,59.90176111,,,,,,,,,,,up,2.4764,17,0,17,0,1,,,,,,,,,,,,,,,,,,,,,
,,,,,,,,,,,,,,,,,,,,,,,,,6111811863a65868cb3522fe,2021-09-11_16h27.43.348,arrow_simon_vert,2021.1.2,Win32,59.90176111,,,,,,,,,,,right,2.3977,18,0,18,0,1,,,,,,,,,,,,,,,,,,,,,
,,,,,,,,,,,,,,,,,,,,,,,,,6111811863a65868cb3522fe,2021-09-11_16h27.43.348,arrow_simon_vert,2021.1.2,Win32,59.90176111,,,,,,,,,,,up,2.4527,19,0,19,0,1,,,,,,,,,,,,,,,,,,,,,
,,,,,,,,,,,,,,,,,,,,,,,,,6111811863a65868cb3522fe,2021-09-11_16h27.43.348,arrow_simon_vert,2021.1.2,Win32,59.90176111,,,,,,,,,,,right,2.4081,20,0,20,0,1,,,,,,,,,,,,,,,,,,,,,
,,,,,,,,,,,,,,,,,,,,,,,,,6111811863a65868cb3522fe,2021-09-11_16h27.43.348,arrow_simon_vert,2021.1.2,Win32,59.90176111,,,,,,,,,,,up,2.4557,21,0,21,0,1,,,,,,,,,,,,,,,,,,,,,
,,,,,,,,,,,,,,,,,,,,,,,,,6111811863a65868cb3522fe,2021-09-11_16h27.43.348,arrow_simon_vert,2021.1.2,Win32,59.90176111,,,,,,,,,,,right,2.4567,22,0,22,0,1,,,,,,,,,,,,,,,,,,,,,
,,,,,,,,,,,,,,,,,,,,,,,,,6111811863a65868cb3522fe,2021-09-11_16h27.43.348,arrow_simon_vert,2021.1.2,Win32,59.90176111,,,,,,,,,,,up,2.4439,23,0,23,0,1,,,,,,,,,,,,,,,,,,,,,
,,,,,,,,,,,,,,,,,,,,,,,,,6111811863a65868cb3522fe,2021-09-11_16h27.43.348,arrow_simon_vert,2021.1.2,Win32,59.90176111,,,,,,,,,,,right,2.338,24,0,24,0,1,,,,,,,,,,,,,,,,,,,,,
,,,,,,,,,,,,,,,,,,,,,,,,,6111811863a65868cb3522fe,2021-09-11_16h27.43.348,arrow_simon_vert,2021.1.2,Win32,59.90176111,,,,,,,,,,,up,2.4215,25,0,25,0,1,,,,,,,,,,,,,,,,,,,,,
,,,,,,,,,,,,,,,,,,,,,,,,,6111811863a65868cb3522fe,2021-09-11_16h27.43.348,arrow_simon_vert,2021.1.2,Win32,59.90176111,,,,,,,,,,,right,2.3576,26,0,26,0,1,,,,,,,,,,,,,,,,,,,,,
,,,,,,,,,,,,,,,,,,,,,,,,,6111811863a65868cb3522fe,2021-09-11_16h27.43.348,arrow_simon_vert,2021.1.2,Win32,59.90176111,,,,,,,,,,,up,2.3806,27,0,27,0,1,,,,,,,,,,,,,,,,,,,,,
,,,,,,,,,,,,,,,,,,,,,,,,,6111811863a65868cb3522fe,2021-09-11_16h27.43.348,arrow_simon_vert,2021.1.2,Win32,59.90176111,,,,,,,,,,,right,2.366,28,0,28,0,1,,,,,,,,,,,,,,,,,,,,,
,,,,,,,,,,,,,,,,,,,,,,,,,6111811863a65868cb3522fe,2021-09-11_16h27.43.348,arrow_simon_vert,2021.1.2,Win32,59.90176111,,,,,,,,,,,up,2.419,29,0,29,0,1,,,,,,,,,,,,,,,,,,,,,
,,,,,,,,,,,,,,,,,,,,,,,,,6111811863a65868cb3522fe,2021-09-11_16h27.43.348,arrow_simon_vert,2021.1.2,Win32,59.90176111,,,,,,,,,,,right,2.4988,30,0,30,0,1,,,,,,,,,,,,,,,,,,,,,
,,,,,,,,,,,,,,,,,,,,,,,,,6111811863a65868cb3522fe,2021-09-11_16h27.43.348,arrow_simon_vert,2021.1.2,Win32,59.90176111,,,,,,,,,,,up,2.4024,31,0,31,0,1,,,,,,,,,,,,,,,,,,,,,
,,,,,,,,,,,,,,,,,,,,,,,,,6111811863a65868cb3522fe,2021-09-11_16h27.43.348,arrow_simon_vert,2021.1.2,Win32,59.90176111,,,,,,,,,,,right,2.4248,32,0,32,0,1,,,,,,,,,,,,,,,,,,,,,
,,,,,,,,,,,,,,,,,,,,,,,,,6111811863a65868cb3522fe,2021-09-11_16h27.43.348,arrow_simon_vert,2021.1.2,Win32,59.90176111,,,,,,,,,,,up,2.4696,33,0,33,0,1,,,,,,,,,,,,,,,,,,,,,
,,,,,,,,,,,,,,,,,,,,,,,,,6111811863a65868cb3522fe,2021-09-11_16h27.43.348,arrow_simon_vert,2021.1.2,Win32,59.90176111,,,,,,,,,,,right,2.3862,34,0,34,0,1,,,,,,,,,,,,,,,,,,,,,
,,,,,,,,,,,,,,,,,,,,,,,,,6111811863a65868cb3522fe,2021-09-11_16h27.43.348,arrow_simon_vert,2021.1.2,Win32,59.90176111,,,,,,,,,,,up,2.419,35,0,35,0,1,,,,,,,,,,,,,,,,,,,,,
,,,,,,,,,,,,,,,,,,,,,,,,,6111811863a65868cb3522fe,2021-09-11_16h27.43.348,arrow_simon_vert,2021.1.2,Win32,59.90176111,,,,,,,,,,,right,2.355,36,0,36,0,1,,,,,,,,,,,,,,,,,,,,,
,,,,,,,,,,,,,,,,,,,,,,,,,6111811863a65868cb3522fe,2021-09-11_16h27.43.348,arrow_simon_vert,2021.1.2,Win32,59.90176111,,,,,,,,,,,up,2.3521,37,0,37,0,1,,,,,,,,,,,,,,,,,,,,,
,,,,,,,,,,,,,,,,,,,,,,,,,6111811863a65868cb3522fe,2021-09-11_16h27.43.348,arrow_simon_vert,2021.1.2,Win32,59.90176111,,,,,,,,,,,right,2.3917,38,0,38,0,1,,,,,,,,,,,,,,,,,,,,,
,,,,,,,,,,,,,,,,,,,,,,,,,6111811863a65868cb3522fe,2021-09-11_16h27.43.348,arrow_simon_vert,2021.1.2,Win32,59.90176111,,,,,,,,,,,up,2.4207,39,0,39,0,1,,,,,,,,,,,,,,,,,,,,,
,,,,,,,,,,,,,,,,,,,,,,,,,6111811863a65868cb3522fe,2021-09-11_16h27.43.348,arrow_simon_vert,2021.1.2,Win32,59.90176111,,,,,,,,,,,right,2.4901,40,0,40,0,1,,,,,,,,,,,,,,,,,,,,,
,,,,,,,,,,,,,,,,,,,,,,,,,6111811863a65868cb3522fe,2021-09-11_16h27.43.348,arrow_simon_vert,2021.1.2,Win32,59.90176111,,,,,,,,,,,up,2.4021,41,0,41,0,1,,,,,,,,,,,,,,,,,,,,,
,,,,,,,,,,,,,,,,,,,,,,,,,6111811863a65868cb3522fe,2021-09-11_16h27.43.348,arrow_simon_vert,2021.1.2,Win32,59.90176111,,,,,,,,,,,right,2.3521,42,0,42,0,1,,,,,,,,,,,,,,,,,,,,,
,,,,,,,,,,,,,,,,,,,,,,,,,6111811863a65868cb3522fe,2021-09-11_16h27.43.348,arrow_simon_vert,2021.1.2,Win32,59.90176111,,,,,,,,,,,up,2.3955,43,0,43,0,1,,,,,,,,,,,,,,,,,,,,,
,,,,,,,,,,,,,,,,,,,,,,,,,6111811863a65868cb3522fe,2021-09-11_16h27.43.348,arrow_simon_vert,2021.1.2,Win32,59.90176111,,,,,,,,,,,right,2.4247,44,0,44,0,1,,,,,,,,,,,,,,,,,,,,,
,,,,,,,,,,,,,,,,,,,,,,,,,6111811863a65868cb3522fe,2021-09-11_16h27.43.348,arrow_simon_vert,2021.1.2,Win32,59.90176111,,,,,,,,,,,up,2.4523,45,0,45,0,1,,,,,,,,,,,,,,,,,,,,,
,,,,,,,,,,,,,,,,,,,,,,,,,6111811863a65868cb3522fe,2021-09-11_16h27.43.348,arrow_simon_vert,2021.1.2,Win32,59.90176111,,,,,,,,,,,right,2.3893,46,0,46,0,1,,,,,,,,,,,,,,,,,,,,,
,,,,,,,,,,,,,,,,,,,,,,,,,6111811863a65868cb3522fe,2021-09-11_16h27.43.348,arrow_simon_vert,2021.1.2,Win32,59.90176111,,,,,,,,,,,up,2.4633,47,0,47,0,1,,,,,,,,,,,,,,,,,,,,,
,,,,,,,,,,,,,,,,,,,,,,,,,6111811863a65868cb3522fe,2021-09-11_16h27.43.348,arrow_simon_vert,2021.1.2,Win32,59.90176111,,,,,,,,,,,right,2.3578,48,0,48,0,1,,,,,,,,,,,,,,,,,,,,,
,,,,,,,,,,,,,,,,,,,,,,,,,6111811863a65868cb3522fe,2021-09-11_16h27.43.348,arrow_simon_vert,2021.1.2,Win32,59.90176111,,,,,,,,,,,up,2.3549,49,0,49,0,1,,,,,,,,,,,,,,,,,,,,,
,,,,,,,,,,,,,,,,,,,,,,,,,6111811863a65868cb3522fe,2021-09-11_16h27.43.348,arrow_simon_vert,2021.1.2,Win32,59.90176111,,,,,,,,,,,right,2.3428,50,0,50,0,1,,,,,,,,,,,,,,,,,,,,,
,,,,,,,,,,,,,,,,,,,,,,,,,6111811863a65868cb3522fe,2021-09-11_16h27.43.348,arrow_simon_vert,2021.1.2,Win32,59.90176111,,,,,,,,,,,up,2.428,51,0,51,0,1,,,,,,,,,,,,,,,,,,,,,
,,,,,,,,,,,,,,,,,,,,,,,,,6111811863a65868cb3522fe,2021-09-11_16h27.43.348,arrow_simon_vert,2021.1.2,Win32,59.90176111,,,,,,,,,,,right,2.3972,52,0,52,0,1,,,,,,,,,,,,,,,,,,,,,
,,,,,,,,,,,,,,,,,,,,,,,,,6111811863a65868cb3522fe,2021-09-11_16h27.43.348,arrow_simon_vert,2021.1.2,Win32,59.90176111,,,,,,,,,,,up,2.553,53,0,53,0,1,,,,,,,,,,,,,,,,,,,,,
,,,,,,,,,,,,,,,,,,,,,,,,,6111811863a65868cb3522fe,2021-09-11_16h27.43.348,arrow_simon_vert,2021.1.2,Win32,59.90176111,,,,,,,,,,,right,2.4921,54,0,54,0,1,,,,,,,,,,,,,,,,,,,,,
,,,,,,,,,,,,,,,,,,,,,,,,,6111811863a65868cb3522fe,2021-09-11_16h27.43.348,arrow_simon_vert,2021.1.2,Win32,59.90176111,,,,,,,,,,,up,2.4406,55,0,55,0,1,,,,,,,,,,,,,,,,,,,,,
,,,,,,,,,,,,,,,,,,,,,,,,,6111811863a65868cb3522fe,2021-09-11_16h27.43.348,arrow_simon_vert,2021.1.2,Win32,59.90176111,,,,,,,,,,,right,2.4438,56,0,56,0,1,,,,,,,,,,,,,,,,,,,,,
,,,,,,,,,,,,,,,,,,,,,,,,,6111811863a65868cb3522fe,2021-09-11_16h27.43.348,arrow_simon_vert,2021.1.2,Win32,59.90176111,,,,,,,,,,,up,2.5227,57,0,57,0,1,,,,,,,,,,,,,,,,,,,,,
,,,,,,,,,,,,,,,,,,,,,,,,,6111811863a65868cb3522fe,2021-09-11_16h27.43.348,arrow_simon_vert,2021.1.2,Win32,59.90176111,,,,,,,,,,,right,2.4079,58,0,58,0,1,,,,,,,,,,,,,,,,,,,,,
,,,,,,,,,,,,,,,,,,,,,,,,,6111811863a65868cb3522fe,2021-09-11_16h27.43.348,arrow_simon_vert,2021.1.2,Win32,59.90176111,,,,,,,,,,,up,2.4549,59,0,59,0,1,,,,,,,,,,,,,,,,,,,,,
,,,,,,0,2.105821168,#a3d0fb,"[""0.25"",""0""]",left_blue.png,left,,,,,,,,left,left_blue.png,down_orange.png,down,right,up,6111811863a65868cb3522fe,2021-09-11_16h27.43.348,arrow_simon_vert,2021.1.2,Win32,59.90176111,,,,,,,,,,,,,,,,,,space,0,50.2871,left,1,1.4982,1,FALSE,FALSE,0,0,0,3,1,,,,,,,
,,,,,,0,2.389125624,#f3af84,"[""0"",""-0.25""]",down_orange.png,down,,,,,,,,left,left_blue.png,down_orange.png,down,left,down,6111811863a65868cb3522fe,2021-09-11_16h27.43.348,arrow_simon_vert,2021.1.2,Win32,59.90176111,,,,,,,,,,,,,,,,,,,,,down,1,1.6864,2,TRUE,FALSE,0,1,1,2,1,,,,,,,
,,,,,,0,2.218097491,#a3d0fb,"[""-0.25"",""0""]",right_blue.png,right,,,,,,,,right,right_blue.png,up_orange.png,up,left,down,6111811863a65868cb3522fe,2021-09-11_16h27.43.348,arrow_simon_vert,2021.1.2,Win32,59.90176111,,,,,,,,,,,,,,,,,,,,,right,1,1.5887,3,FALSE,FALSE,0,2,2,0,1,,,,,,,
,,,,,,0,1.967563959,#f3af84,"[""0"",""-0.25""]",up_orange.png,up,,,,,,,,right,right_blue.png,up_orange.png,up,left,down,6111811863a65868cb3522fe,2021-09-11_16h27.43.348,arrow_simon_vert,2021.1.2,Win32,59.90176111,,,,,,,,,,,,,,,,,,,,,up,1,1.345,4,FALSE,TRUE,0,3,3,0,1,,,,,,,
,,,,,,0,2.275773171,#a3d0fb,"[""0.25"",""0""]",right_blue.png,right,,,,,,,,right,right_blue.png,up_orange.png,up,right,up,6111811863a65868cb3522fe,2021-09-11_16h27.43.348,arrow_simon_vert,2021.1.2,Win32,59.90176111,,,,,,,,,,,,,,,,,,,,,right,1,1.5551,5,FALSE,FALSE,1,0,4,1,1,,,,,,,
,,,,,,0,1.500393684,#f3af84,"[""0"",""0.25""]",up_orange.png,up,,,,,,,,right,right_blue.png,up_orange.png,up,right,up,6111811863a65868cb3522fe,2021-09-11_16h27.43.348,arrow_simon_vert,2021.1.2,Win32,59.90176111,,,,,,,,,,,,,,,,,,,,,up,1,1.1232,6,FALSE,TRUE,1,1,5,1,1,,,,,,,
,,,,,,0,1.864014611,#a3d0fb,"[""-0.25"",""0""]",left_blue.png,left,,,,,,,,left,left_blue.png,down_orange.png,down,left,down,6111811863a65868cb3522fe,2021-09-11_16h27.43.348,arrow_simon_vert,2021.1.2,Win32,59.90176111,,,,,,,,,,,,,,,,,,,,,left,1,1.2843,7,FALSE,TRUE,1,2,6,2,1,,,,,,,
,,,,,,0,2.115168953,#f3af84,"[""0"",""-0.25""]",up_orange.png,up,,,,,,,,right,right_blue.png,up_orange.png,up,left,down,6111811863a65868cb3522fe,2021-09-11_16h27.43.348,arrow_simon_vert,2021.1.2,Win32,59.90176111,,,,,,,,,,,,,,,,,,,,,up,1,1.4902,8,FALSE,FALSE,1,3,7,0,1,,,,,,,
,,,,,,0,1.640688668,#a3d0fb,"[""0.25"",""0""]",right_blue.png,right,,,,,,,,right,right_blue.png,up_orange.png,up,right,up,6111811863a65868cb3522fe,2021-09-11_16h27.43.348,arrow_simon_vert,2021.1.2,Win32,59.90176111,,,,,,,,,,,,,,,,,,,,,right,1,1.6746,9,TRUE,FALSE,2,0,8,1,1,,,,,,,
,,,,,,0,1.915371381,#f3af84,"[""0"",""0.25""]",up_orange.png,up,,,,,,,,right,right_blue.png,up_orange.png,up,right,up,6111811863a65868cb3522fe,2021-09-11_16h27.43.348,arrow_simon_vert,2021.1.2,Win32,59.90176111,,,,,,,,,,,,,,,,,,,,,up,1,1.6364,10,TRUE,FALSE,2,1,9,1,1,,,,,,,
,,,,,,0,2.019637338,#a3d0fb,"[""0.25"",""0""]",right_blue.png,right,,,,,,,,right,right_blue.png,up_orange.png,up,right,up,6111811863a65868cb3522fe,2021-09-11_16h27.43.348,arrow_simon_vert,2021.1.2,Win32,59.90176111,,,,,,,,,,,,,,,,,,,,,right,1,1.4105,11,FALSE,FALSE,2,2,10,1,1,,,,,,,
,,,,,,0,2.15780956,#f3af84,"[""0"",""-0.25""]",up_orange.png,up,,,,,,,,right,right_blue.png,up_orange.png,up,left,down,6111811863a65868cb3522fe,2021-09-11_16h27.43.348,arrow_simon_vert,2021.1.2,Win32,59.90176111,,,,,,,,,,,,,,,,,,,,,up,1,1.5116,12,FALSE,FALSE,2,3,11,0,1,,,,,,,
,,,,,,0,1.67092822,#a3d0fb,"[""0.25"",""0""]",right_blue.png,right,,,,,,,,right,right_blue.png,up_orange.png,up,right,up,6111811863a65868cb3522fe,2021-09-11_16h27.43.348,arrow_simon_vert,2021.1.2,Win32,59.90176111,,,,,,,,,,,,,,,,,,,,,right,1,1.5932,13,FALSE,FALSE,3,0,12,1,1,,,,,,,
,,,,,,0,2.342805341,#f3af84,"[""0"",""0.25""]",down_orange.png,down,,,,,,,,left,left_blue.png,down_orange.png,down,right,up,6111811863a65868cb3522fe,2021-09-11_16h27.43.348,arrow_simon_vert,2021.1.2,Win32,59.90176111,,,,,,,,,,,,,,,,,,,,,down,1,1.7554,14,TRUE,FALSE,3,1,13,3,1,,,,,,,
,,,,,,0,2.252928677,#a3d0fb,"[""0.25"",""0""]",left_blue.png,left,,,,,,,,left,left_blue.png,down_orange.png,down,right,up,6111811863a65868cb3522fe,2021-09-11_16h27.43.348,arrow_simon_vert,2021.1.2,Win32,59.90176111,,,,,,,,,,,,,,,,,,,,,left,1,1.6618,15,TRUE,FALSE,3,2,14,3,1,,,,,,,
,,,,,,0,1.673958838,#f3af84,"[""0"",""0.25""]",down_orange.png,down,,,,,,,,left,left_blue.png,down_orange.png,down,right,up,6111811863a65868cb3522fe,2021-09-11_16h27.43.348,arrow_simon_vert,2021.1.2,Win32,59.90176111,,,,,,,,,,,,,,,,,,,,,down,1,1.6128,16,TRUE,FALSE,3,3,15,3,1,,,,,,,
,,,,,,0,2.195313219,#a3d0fb,"[""0.25"",""0""]",right_blue.png,right,,,,,,,,right,right_blue.png,up_orange.png,up,right,up,6111811863a65868cb3522fe,2021-09-11_16h27.43.348,arrow_simon_vert,2021.1.2,Win32,59.90176111,,,,,,,,,,,,,,,,,,,,,right,1,1.5133,17,FALSE,FALSE,4,0,16,1,1,,,,,,,
,,,,,,0,2.498044103,#f3af84,"[""0"",""0.25""]",down_orange.png,down,,,,,,,,left,left_blue.png,down_orange.png,down,right,up,6111811863a65868cb3522fe,2021-09-11_16h27.43.348,arrow_simon_vert,2021.1.2,Win32,59.90176111,,,,,,,,,,,,,,,,,,,,,up,0,1.8637,18,TRUE,FALSE,4,1,17,3,1,,,,,,,
,,,,,,0,1.646340567,#a3d0fb,"[""-0.25"",""0""]",left_blue.png,left,,,,,,,,left,left_blue.png,down_orange.png,down,left,down,6111811863a65868cb3522fe,2021-09-11_16h27.43.348,arrow_simon_vert,2021.1.2,Win32,59.90176111,,,,,,,,,,,,,,,,,,,,,left,1,1.6864,19,TRUE,FALSE,4,2,18,2,1,,,,,,,
,,,,,,0,2.451204405,#f3af84,"[""0"",""0.25""]",up_orange.png,up,,,,,,,,right,right_blue.png,up_orange.png,up,right,up,6111811863a65868cb3522fe,2021-09-11_16h27.43.348,arrow_simon_vert,2021.1.2,Win32,59.90176111,,,,,,,,,,,,,,,,,,,,,down,0,1.7862,20,TRUE,FALSE,4,3,19,1,1,,,,,,,
,,,,,,0,2.465880752,#a3d0fb,"[""0.25"",""0""]",right_blue.png,right,,,,,,,,right,right_blue.png,up_orange.png,up,right,up,6111811863a65868cb3522fe,2021-09-11_16h27.43.348,arrow_simon_vert,2021.1.2,Win32,59.90176111,,,,,,,,,,,,,,,,,,,,,right,1,1.8367,21,TRUE,FALSE,5,0,20,1,1,,,,,,,
,,,,,,0,1.546639409,#f3af84,"[""0"",""-0.25""]",up_orange.png,up,,,,,,,,right,right_blue.png,up_orange.png,up,left,down,6111811863a65868cb3522fe,2021-09-11_16h27.43.348,arrow_simon_vert,2021.1.2,Win32,59.90176111,,,,,,,,,,,,,,,,,,,,,up,1,1.5474,22,FALSE,FALSE,5,1,21,0,1,,,,,,,
,,,,,,0,1.607499564,#a3d0fb,"[""0.25"",""0""]",right_blue.png,right,,,,,,,,right,right_blue.png,up_orange.png,up,right,up,6111811863a65868cb3522fe,2021-09-11_16h27.43.348,arrow_simon_vert,2021.1.2,Win32,59.90176111,,,,,,,,,,,,,,,,,,,,,right,1,1.5143,23,FALSE,FALSE,5,2,22,1,1,,,,,,,
,,,,,,0,2.129981784,#f3af84,"[""0"",""-0.25""]",up_orange.png,up,,,,,,,,right,right_blue.png,up_orange.png,up,left,down,6111811863a65868cb3522fe,2021-09-11_16h27.43.348,arrow_simon_vert,2021.1.2,Win32,59.90176111,,,,,,,,,,,,,,,,,,,,,up,1,1.6699,24,TRUE,FALSE,5,3,23,0,1,,,,,,,
,,,,,,0,2.425200045,#a3d0fb,"[""-0.25"",""0""]",left_blue.png,left,,,,,,,,left,left_blue.png,down_orange.png,down,left,down,6111811863a65868cb3522fe,2021-09-11_16h27.43.348,arrow_simon_vert,2021.1.2,Win32,59.90176111,,,,,,,,,,,,,,,,,,,,,left,1,1.7303,25,TRUE,FALSE,6,0,24,2,1,,,,,,,
,,,,,,0,1.501992208,#f3af84,"[""0"",""-0.25""]",down_orange.png,down,,,,,,,,left,left_blue.png,down_orange.png,down,left,down,6111811863a65868cb3522fe,2021-09-11_16h27.43.348,arrow_simon_vert,2021.1.2,Win32,59.90176111,,,,,,,,,,,,,,,,,,,,,down,1,1.5533,26,FALSE,FALSE,6,1,25,2,1,,,,,,,
,,,,,,0,1.84069957,#a3d0fb,"[""-0.25"",""0""]",right_blue.png,right,,,,,,,,right,right_blue.png,up_orange.png,up,left,down,6111811863a65868cb3522fe,2021-09-11_16h27.43.348,arrow_simon_vert,2021.1.2,Win32,59.90176111,,,,,,,,,,,,,,,,,,,,,right,1,1.5544,27,FALSE,FALSE,6,2,26,0,1,,,,,,,
,,,,,,0,2.00413376,#f3af84,"[""0"",""0.25""]",down_orange.png,down,,,,,,,,left,left_blue.png,down_orange.png,down,right,up,6111811863a65868cb3522fe,2021-09-11_16h27.43.348,arrow_simon_vert,2021.1.2,Win32,59.90176111,,,,,,,,,,,,,,,,,,,,,down,1,1.5691,28,FALSE,FALSE,6,3,27,3,1,,,,,,,
,,,,,,0,2.121913611,#a3d0fb,"[""-0.25"",""0""]",left_blue.png,left,,,,,,,,left,left_blue.png,down_orange.png,down,left,down,6111811863a65868cb3522fe,2021-09-11_16h27.43.348,arrow_simon_vert,2021.1.2,Win32,59.90176111,,,,,,,,,,,,,,,,,,,,,left,1,1.6199,29,TRUE,FALSE,7,0,28,2,1,,,,,,,
,,,,,,0,2.326229954,#f3af84,"[""0"",""-0.25""]",up_orange.png,up,,,,,,,,right,right_blue.png,up_orange.png,up,left,down,6111811863a65868cb3522fe,2021-09-11_16h27.43.348,arrow_simon_vert,2021.1.2,Win32,59.90176111,,,,,,,,,,,,,,,,,,,,,down,0,1.6577,30,TRUE,FALSE,7,1,29,0,1,,,,,,,
,,,,,,0,2.245234707,#a3d0fb,"[""0.25"",""0""]",right_blue.png,right,,,,,,,,right,right_blue.png,up_orange.png,up,right,up,6111811863a65868cb3522fe,2021-09-11_16h27.43.348,arrow_simon_vert,2021.1.2,Win32,59.90176111,,,,,,,,,,,,,,,,,,,,,right,1,1.5535,31,FALSE,FALSE,7,2,30,1,1,,,,,,,
,,,,,,0,2.386742292,#f3af84,"[""0"",""0.25""]",down_orange.png,down,,,,,,,,left,left_blue.png,down_orange.png,down,right,up,6111811863a65868cb3522fe,2021-09-11_16h27.43.348,arrow_simon_vert,2021.1.2,Win32,59.90176111,,,,,,,,,,,,,,,,,,,,,down,1,1.7678,32,TRUE,FALSE,7,3,31,3,1,,,,,,,
,,,,,,0,2.324855246,#a3d0fb,"[""-0.25"",""0""]",left_blue.png,left,,,,,,,,left,left_blue.png,down_orange.png,down,left,down,6111811863a65868cb3522fe,2021-09-11_16h27.43.348,arrow_simon_vert,2021.1.2,Win32,59.90176111,,,,,,,,,,,,,,,,,,,,,left,1,1.6373,33,TRUE,FALSE,8,0,32,2,1,,,,,,,
,,,,,,0,1.689703048,#f3af84,"[""0"",""-0.25""]",down_orange.png,down,,,,,,,,left,left_blue.png,down_orange.png,down,left,down,6111811863a65868cb3522fe,2021-09-11_16h27.43.348,arrow_simon_vert,2021.1.2,Win32,59.90176111,,,,,,,,,,,,,,,,,,,,,down,1,1.6047,34,TRUE,FALSE,8,1,33,2,1,,,,,,,
,,,,,,0,2.046708443,#a3d0fb,"[""-0.25"",""0""]",right_blue.png,right,,,,,,,,right,right_blue.png,up_orange.png,up,left,down,6111811863a65868cb3522fe,2021-09-11_16h27.43.348,arrow_simon_vert,2021.1.2,Win32,59.90176111,,,,,,,,,,,,,,,,,,,,,right,1,1.5529,35,FALSE,FALSE,8,2,34,0,1,,,,,,,
,,,,,,0,2.161253348,#f3af84,"[""0"",""0.25""]",down_orange.png,down,,,,,,,,left,left_blue.png,down_orange.png,down,right,up,6111811863a65868cb3522fe,2021-09-11_16h27.43.348,arrow_simon_vert,2021.1.2,Win32,59.90176111,,,,,,,,,,,,,,,,,,,,,down,1,1.5848,36,FALSE,FALSE,8,3,35,3,1,,,,,,,
,,,,,,0,1.55335046,#a3d0fb,"[""0.25"",""0""]",left_blue.png,left,,,,,,,,left,left_blue.png,down_orange.png,down,right,up,6111811863a65868cb3522fe,2021-09-11_16h27.43.348,arrow_simon_vert,2021.1.2,Win32,59.90176111,,,,,,,,,,,,,,,,,,,,,left,1,1.4524,37,FALSE,FALSE,9,0,36,3,1,,,,,,,
,,,,,,0,2.211624887,#f3af84,"[""0"",""0.25""]",up_orange.png,up,,,,,,,,right,right_blue.png,up_orange.png,up,right,up,6111811863a65868cb3522fe,2021-09-11_16h27.43.348,arrow_simon_vert,2021.1.2,Win32,59.90176111,,,,,,,,,,,,,,,,,,,,,up,1,1.5555,38,FALSE,FALSE,9,1,37,1,1,,,,,,,
,,,,,,0,1.964718021,#a3d0fb,"[""0.25"",""0""]",right_blue.png,right,,,,,,,,right,right_blue.png,up_orange.png,up,right,up,6111811863a65868cb3522fe,2021-09-11_16h27.43.348,arrow_simon_vert,2021.1.2,Win32,59.90176111,,,,,,,,,,,,,,,,,,,,,right,1,1.522,39,FALSE,FALSE,9,2,38,1,1,,,,,,,
,,,,,,0,2.253267669,#f3af84,"[""0"",""0.25""]",down_orange.png,down,,,,,,,,left,left_blue.png,down_orange.png,down,right,up,6111811863a65868cb3522fe,2021-09-11_16h27.43.348,arrow_simon_vert,2021.1.2,Win32,59.90176111,,,,,,,,,,,,,,,,,,,,,down,1,1.6759,40,TRUE,FALSE,9,3,39,3,1,,,,,,,
,,,,,,0,2.066704771,#a3d0fb,"[""0.25"",""0""]",right_blue.png,right,,,,,,,,right,right_blue.png,up_orange.png,up,right,up,6111811863a65868cb3522fe,2021-09-11_16h27.43.348,arrow_simon_vert,2021.1.2,Win32,59.90176111,,,,,,,,,,,,,,,,,,,,,right,1,1.662,41,TRUE,FALSE,10,0,40,1,1,,,,,,,
,,,,,,0,2.05301083,#f3af84,"[""0"",""-0.25""]",down_orange.png,down,,,,,,,,left,left_blue.png,down_orange.png,down,left,down,6111811863a65868cb3522fe,2021-09-11_16h27.43.348,arrow_simon_vert,2021.1.2,Win32,59.90176111,,,,,,,,,,,,,,,,,,,,,down,1,1.6275,42,TRUE,FALSE,10,1,41,2,1,,,,,,,
,,,,,,0,2.188207934,#a3d0fb,"[""0.25"",""0""]",left_blue.png,left,,,,,,,,left,left_blue.png,down_orange.png,down,right,up,6111811863a65868cb3522fe,2021-09-11_16h27.43.348,arrow_simon_vert,2021.1.2,Win32,59.90176111,,,,,,,,,,,,,,,,,,,,,left,1,1.6204,43,TRUE,FALSE,10,2,42,3,1,,,,,,,
,,,,,,0,2.32125188,#f3af84,"[""0"",""-0.25""]",up_orange.png,up,,,,,,,,right,right_blue.png,up_orange.png,up,left,down,6111811863a65868cb3522fe,2021-09-11_16h27.43.348,arrow_simon_vert,2021.1.2,Win32,59.90176111,,,,,,,,,,,,,,,,,,,,,up,1,1.8532,44,TRUE,FALSE,10,3,43,0,1,,,,,,,
,,,,,,0,1.58358781,#a3d0fb,"[""-0.25"",""0""]",right_blue.png,right,,,,,,,,right,right_blue.png,up_orange.png,up,left,down,6111811863a65868cb3522fe,2021-09-11_16h27.43.348,arrow_simon_vert,2021.1.2,Win32,59.90176111,,,,,,,,,,,,,,,,,,,,,right,1,1.5699,45,FALSE,FALSE,11,0,44,0,1,,,,,,,
,,,,,,0,2.264633541,#f3af84,"[""0"",""-0.25""]",up_orange.png,up,,,,,,,,right,right_blue.png,up_orange.png,up,left,down,6111811863a65868cb3522fe,2021-09-11_16h27.43.348,arrow_simon_vert,2021.1.2,Win32,59.90176111,,,,,,,,,,,,,,,,,,,,,down,0,1.6199,46,TRUE,FALSE,11,1,45,0,1,,,,,,,
,,,,,,0,1.844214986,#a3d0fb,"[""0.25"",""0""]",left_blue.png,left,,,,,,,,left,left_blue.png,down_orange.png,down,right,up,6111811863a65868cb3522fe,2021-09-11_16h27.43.348,arrow_simon_vert,2021.1.2,Win32,59.90176111,,,,,,,,,,,,,,,,,,,,,left,1,1.2529,47,FALSE,TRUE,11,2,46,3,1,,,,,,,
,,,,,,0,2.36554499,#f3af84,"[""0"",""-0.25""]",up_orange.png,up,,,,,,,,right,right_blue.png,up_orange.png,up,left,down,6111811863a65868cb3522fe,2021-09-11_16h27.43.348,arrow_simon_vert,2021.1.2,Win32,59.90176111,,,,,,,,,,,,,,,,,,,,,up,1,1.7747,48,TRUE,FALSE,11,3,47,0,1,,,,,,,
,,,,,,0,1.52355236,#a3d0fb,"[""-0.25"",""0""]",left_blue.png,left,,,,,,,,left,left_blue.png,down_orange.png,down,left,down,6111811863a65868cb3522fe,2021-09-11_16h27.43.348,arrow_simon_vert,2021.1.2,Win32,59.90176111,,,,,,,,,,,,,,,,,,,,,left,1,1.5643,49,FALSE,FALSE,12,0,48,2,1,,,,,,,
,,,,,,0,1.688394791,#f3af84,"[""0"",""-0.25""]",down_orange.png,down,,,,,,,,left,left_blue.png,down_orange.png,down,left,down,6111811863a65868cb3522fe,2021-09-11_16h27.43.348,arrow_simon_vert,2021.1.2,Win32,59.90176111,,,,,,,,,,,,,,,,,,,,,down,1,1.5813,50,FALSE,FALSE,12,1,49,2,1,,,,,,,
,,,,,,0,2.077146701,#a3d0fb,"[""-0.25"",""0""]",left_blue.png,left,,,,,,,,left,left_blue.png,down_orange.png,down,left,down,6111811863a65868cb3522fe,2021-09-11_16h27.43.348,arrow_simon_vert,2021.1.2,Win32,59.90176111,,,,,,,,,,,,,,,,,,,,,left,1,1.6866,51,TRUE,FALSE,12,2,50,2,1,,,,,,,
,,,,,,0,1.866361862,#f3af84,"[""0"",""0.25""]",down_orange.png,down,,,,,,,,left,left_blue.png,down_orange.png,down,right,up,6111811863a65868cb3522fe,2021-09-11_16h27.43.348,arrow_simon_vert,2021.1.2,Win32,59.90176111,,,,,,,,,,,,,,,,,,,,,down,1,1.597,52,FALSE,FALSE,12,3,51,3,1,,,,,,,
,,,,,,0,1.597225585,#a3d0fb,"[""-0.25"",""0""]",left_blue.png,left,,,,,,,,left,left_blue.png,down_orange.png,down,left,down,6111811863a65868cb3522fe,2021-09-11_16h27.43.348,arrow_simon_vert,2021.1.2,Win32,59.90176111,,,,,,,,,,,,,,,,,,,,,left,1,1.5911,53,FALSE,FALSE,13,0,52,2,1,,,,,,,
,,,,,,0,1.707537103,#f3af84,"[""0"",""-0.25""]",up_orange.png,up,,,,,,,,right,right_blue.png,up_orange.png,up,left,down,6111811863a65868cb3522fe,2021-09-11_16h27.43.348,arrow_simon_vert,2021.1.2,Win32,59.90176111,,,,,,,,,,,,,,,,,,,,,up,1,1.4015,54,FALSE,FALSE,13,1,53,0,1,,,,,,,
,,,,,,0,1.636036477,#a3d0fb,"[""0.25"",""0""]",left_blue.png,left,,,,,,,,left,left_blue.png,down_orange.png,down,right,up,6111811863a65868cb3522fe,2021-09-11_16h27.43.348,arrow_simon_vert,2021.1.2,Win32,59.90176111,,,,,,,,,,,,,,,,,,,,,left,1,1.5216,55,FALSE,FALSE,13,2,54,3,1,,,,,,,
,,,,,,0,2.246471285,#f3af84,"[""0"",""-0.25""]",down_orange.png,down,,,,,,,,left,left_blue.png,down_orange.png,down,left,down,6111811863a65868cb3522fe,2021-09-11_16h27.43.348,arrow_simon_vert,2021.1.2,Win32,59.90176111,,,,,,,,,,,,,,,,,,,,,down,1,1.588,56,FALSE,FALSE,13,3,55,2,1,,,,,,,
,,,,,,0,2.162063855,#a3d0fb,"[""-0.25"",""0""]",right_blue.png,right,,,,,,,,right,right_blue.png,up_orange.png,up,left,down,6111811863a65868cb3522fe,2021-09-11_16h27.43.348,arrow_simon_vert,2021.1.2,Win32,59.90176111,,,,,,,,,,,,,,,,,,,,,right,1,1.5467,57,FALSE,FALSE,14,0,56,0,1,,,,,,,
,,,,,,0,2.357059264,#f3af84,"[""0"",""0.25""]",up_orange.png,up,,,,,,,,right,right_blue.png,up_orange.png,up,right,up,6111811863a65868cb3522fe,2021-09-11_16h27.43.348,arrow_simon_vert,2021.1.2,Win32,59.90176111,,,,,,,,,,,,,,,,,,,,,up,1,1.6517,58,TRUE,FALSE,14,1,57,1,1,,,,,,,
,,,,,,0,2.343004791,#a3d0fb,"[""0.25"",""0""]",left_blue.png,left,,,,,,,,left,left_blue.png,down_orange.png,down,right,up,6111811863a65868cb3522fe,2021-09-11_16h27.43.348,arrow_simon_vert,2021.1.2,Win32,59.90176111,,,,,,,,,,,,,,,,,,,,,left,1,1.6987,59,TRUE,FALSE,14,2,58,3,1,,,,,,,
,,,,,,0,2.104339359,#f3af84,"[""0"",""-0.25""]",down_orange.png,down,,,,,,,,left,left_blue.png,down_orange.png,down,left,down,6111811863a65868cb3522fe,2021-09-11_16h27.43.348,arrow_simon_vert,2021.1.2,Win32,59.90176111,,,,,,,,,,,,,,,,,,,,,down,1,1.4908,60,FALSE,FALSE,14,3,59,2,1,,,,,,,
,,,,,,,,,,,,,,,,,,,,,,,,,6111811863a65868cb3522fe,2021-09-11_16h27.43.348,arrow_simon_vert,2021.1.2,Win32,59.90176111,,,,,,,,,,,,,,,,,,,,,,,,,,,,,,,,space,32.6034,0,0,0,0,1
,,,,,,0,1.63227197,#a3d0fb,"[""0.25"",""0""]",right_blue.png,right,,,,,,,,right,right_blue.png,up_orange.png,up,right,up,6111811863a65868cb3522fe,2021-09-11_16h27.43.348,arrow_simon_vert,2021.1.2,Win32,59.90176111,,,,,,,,,,,,,,,,,,,,,right,1,1.8647,1,TRUE,FALSE,0,0,0,1,1,,,,,,,
,,,,,,0,2.492223281,#f3af84,"[""0"",""-0.25""]",down_orange.png,down,,,,,,,,left,left_blue.png,down_orange.png,down,left,down,6111811863a65868cb3522fe,2021-09-11_16h27.43.348,arrow_simon_vert,2021.1.2,Win32,59.90176111,,,,,,,,,,,,,,,,,,,,,down,1,1.9972,2,TRUE,FALSE,0,1,1,2,1,,,,,,,
,,,,,,0,2.462320026,#a3d0fb,"[""-0.25"",""0""]",left_blue.png,left,,,,,,,,left,left_blue.png,down_orange.png,down,left,down,6111811863a65868cb3522fe,2021-09-11_16h27.43.348,arrow_simon_vert,2021.1.2,Win32,59.90176111,,,,,,,,,,,,,,,,,,,,,right,0,1.6745,3,TRUE,FALSE,0,2,2,2,1,,,,,,,
,,,,,,0,2.449987898,#f3af84,"[""0"",""-0.25""]",up_orange.png,up,,,,,,,,right,right_blue.png,up_orange.png,up,left,down,6111811863a65868cb3522fe,2021-09-11_16h27.43.348,arrow_simon_vert,2021.1.2,Win32,59.90176111,,,,,,,,,,,,,,,,,,,,,down,0,1.8581,4,TRUE,FALSE,0,3,3,0,1,,,,,,,
,,,,,,0,1.783333644,#a3d0fb,"[""0.25"",""0""]",right_blue.png,right,,,,,,,,right,right_blue.png,up_orange.png,up,right,up,6111811863a65868cb3522fe,2021-09-11_16h27.43.348,arrow_simon_vert,2021.1.2,Win32,59.90176111,,,,,,,,,,,,,,,,,,,,,right,1,1.486,5,FALSE,FALSE,1,0,4,1,1,,,,,,,
,,,,,,0,1.524705159,#f3af84,"[""0"",""0.25""]",down_orange.png,down,,,,,,,,left,left_blue.png,down_orange.png,down,right,up,6111811863a65868cb3522fe,2021-09-11_16h27.43.348,arrow_simon_vert,2021.1.2,Win32,59.90176111,,,,,,,,,,,,,,,,,,,,,down,1,1.5197,6,FALSE,FALSE,1,1,5,3,1,,,,,,,
,,,,,,0,1.68417213,#a3d0fb,"[""0.25"",""0""]",left_blue.png,left,,,,,,,,left,left_blue.png,down_orange.png,down,right,up,6111811863a65868cb3522fe,2021-09-11_16h27.43.348,arrow_simon_vert,2021.1.2,Win32,59.90176111,,,,,,,,,,,,,,,,,,,,,left,1,1.5215,7,FALSE,FALSE,1,2,6,3,1,,,,,,,
,,,,,,0,2.106552272,#f3af84,"[""0"",""0.25""]",down_orange.png,down,,,,,,,,left,left_blue.png,down_orange.png,down,right,up,6111811863a65868cb3522fe,2021-09-11_16h27.43.348,arrow_simon_vert,2021.1.2,Win32,59.90176111,,,,,,,,,,,,,,,,,,,,,down,1,1.586,8,FALSE,FALSE,1,3,7,3,1,,,,,,,
,,,,,,0,2.334791961,#a3d0fb,"[""0.25"",""0""]",left_blue.png,left,,,,,,,,left,left_blue.png,down_orange.png,down,right,up,6111811863a65868cb3522fe,2021-09-11_16h27.43.348,arrow_simon_vert,2021.1.2,Win32,59.90176111,,,,,,,,,,,,,,,,,,,,,left,1,1.7573,9,TRUE,FALSE,2,0,8,3,1,,,,,,,
,,,,,,0,1.829566406,#f3af84,"[""0"",""-0.25""]",up_orange.png,up,,,,,,,,right,right_blue.png,up_orange.png,up,left,down,6111811863a65868cb3522fe,2021-09-11_16h27.43.348,arrow_simon_vert,2021.1.2,Win32,59.90176111,,,,,,,,,,,,,,,,,,,,,up,1,1.6294,10,TRUE,FALSE,2,1,9,0,1,,,,,,,
,,,,,,0,2.37581923,#a3d0fb,"[""0.25"",""0""]",right_blue.png,right,,,,,,,,right,right_blue.png,up_orange.png,up,right,up,6111811863a65868cb3522fe,2021-09-11_16h27.43.348,arrow_simon_vert,2021.1.2,Win32,59.90176111,,,,,,,,,,,,,,,,,,,,,right,1,1.6294,11,TRUE,FALSE,2,2,10,1,1,,,,,,,
,,,,,,0,2.335272663,#f3af84,"[""0"",""-0.25""]",up_orange.png,up,,,,,,,,right,right_blue.png,up_orange.png,up,left,down,6111811863a65868cb3522fe,2021-09-11_16h27.43.348,arrow_simon_vert,2021.1.2,Win32,59.90176111,,,,,,,,,,,,,,,,,,,,,down,0,1.6792,12,TRUE,FALSE,2,3,11,0,1,,,,,,,
,,,,,,0,2.396094708,#a3d0fb,"[""-0.25"",""0""]",right_blue.png,right,,,,,,,,right,right_blue.png,up_orange.png,up,left,down,6111811863a65868cb3522fe,2021-09-11_16h27.43.348,arrow_simon_vert,2021.1.2,Win32,59.90176111,,,,,,,,,,,,,,,,,,,,,left,0,1.7492,13,TRUE,FALSE,3,0,12,0,1,,,,,,,
,,,,,,0,2.241841234,#f3af84,"[""0"",""0.25""]",down_orange.png,down,,,,,,,,left,left_blue.png,down_orange.png,down,right,up,6111811863a65868cb3522fe,2021-09-11_16h27.43.348,arrow_simon_vert,2021.1.2,Win32,59.90176111,,,,,,,,,,,,,,,,,,,,,down,1,1.6469,14,TRUE,FALSE,3,1,13,3,1,,,,,,,
,,,,,,0,2.296515145,#a3d0fb,"[""0.25"",""0""]",left_blue.png,left,,,,,,,,left,left_blue.png,down_orange.png,down,right,up,6111811863a65868cb3522fe,2021-09-11_16h27.43.348,arrow_simon_vert,2021.1.2,Win32,59.90176111,,,,,,,,,,,,,,,,,,,,,right,0,1.6038,15,TRUE,FALSE,3,2,14,3,1,,,,,,,
,,,,,,0,2.405825326,#f3af84,"[""0"",""0.25""]",up_orange.png,up,,,,,,,,right,right_blue.png,up_orange.png,up,right,up,6111811863a65868cb3522fe,2021-09-11_16h27.43.348,arrow_simon_vert,2021.1.2,Win32,59.90176111,,,,,,,,,,,,,,,,,,,,,up,1,1.722,16,TRUE,FALSE,3,3,15,1,1,,,,,,,
,,,,,,0,2.230638467,#a3d0fb,"[""-0.25"",""0""]",right_blue.png,right,,,,,,,,right,right_blue.png,up_orange.png,up,left,down,6111811863a65868cb3522fe,2021-09-11_16h27.43.348,arrow_simon_vert,2021.1.2,Win32,59.90176111,,,,,,,,,,,,,,,,,,,,,right,1,1.6264,17,TRUE,FALSE,4,0,16,0,1,,,,,,,
,,,,,,0,2.059291783,#f3af84,"[""0"",""-0.25""]",up_orange.png,up,,,,,,,,right,right_blue.png,up_orange.png,up,left,down,6111811863a65868cb3522fe,2021-09-11_16h27.43.348,arrow_simon_vert,2021.1.2,Win32,59.90176111,,,,,,,,,,,,,,,,,,,,,up,1,1.5198,18,FALSE,FALSE,4,1,17,0,1,,,,,,,
,,,,,,0,2.299900038,#a3d0fb,"[""-0.25"",""0""]",left_blue.png,left,,,,,,,,left,left_blue.png,down_orange.png,down,left,down,6111811863a65868cb3522fe,2021-09-11_16h27.43.348,arrow_simon_vert,2021.1.2,Win32,59.90176111,,,,,,,,,,,,,,,,,,,,,right,0,1.624,19,TRUE,FALSE,4,2,18,2,1,,,,,,,
,,,,,,0,1.757430003,#f3af84,"[""0"",""0.25""]",up_orange.png,up,,,,,,,,right,right_blue.png,up_orange.png,up,right,up,6111811863a65868cb3522fe,2021-09-11_16h27.43.348,arrow_simon_vert,2021.1.2,Win32,59.90176111,,,,,,,,,,,,,,,,,,,,,up,1,1.5456,20,FALSE,FALSE,4,3,19,1,1,,,,,,,
,,,,,,0,1.799399779,#a3d0fb,"[""-0.25"",""0""]",left_blue.png,left,,,,,,,,left,left_blue.png,down_orange.png,down,left,down,6111811863a65868cb3522fe,2021-09-11_16h27.43.348,arrow_simon_vert,2021.1.2,Win32,59.90176111,,,,,,,,,,,,,,,,,,,,,left,1,1.5656,21,FALSE,FALSE,5,0,20,2,1,,,,,,,
,,,,,,0,2.009002964,#f3af84,"[""0"",""0.25""]",up_orange.png,up,,,,,,,,right,right_blue.png,up_orange.png,up,right,up,6111811863a65868cb3522fe,2021-09-11_16h27.43.348,arrow_simon_vert,2021.1.2,Win32,59.90176111,,,,,,,,,,,,,,,,,,,,,up,1,1.3856,22,FALSE,TRUE,5,1,21,1,1,,,,,,,
,,,,,,0,2.36067115,#a3d0fb,"[""0.25"",""0""]",left_blue.png,left,,,,,,,,left,left_blue.png,down_orange.png,down,right,up,6111811863a65868cb3522fe,2021-09-11_16h27.43.348,arrow_simon_vert,2021.1.2,Win32,59.90176111,,,,,,,,,,,,,,,,,,,,,right,0,1.6103,23,TRUE,FALSE,5,2,22,3,1,,,,,,,
,,,,,,0,2.474102283,#f3af84,"[""0"",""0.25""]",down_orange.png,down,,,,,,,,left,left_blue.png,down_orange.png,down,right,up,6111811863a65868cb3522fe,2021-09-11_16h27.43.348,arrow_simon_vert,2021.1.2,Win32,59.90176111,,,,,,,,,,,,,,,,,,,,,up,0,1.6197,24,TRUE,FALSE,5,3,23,3,1,,,,,,,
,,,,,,0,1.809654875,#a3d0fb,"[""-0.25"",""0""]",right_blue.png,right,,,,,,,,right,right_blue.png,up_orange.png,up,left,down,6111811863a65868cb3522fe,2021-09-11_16h27.43.348,arrow_simon_vert,2021.1.2,Win32,59.90176111,,,,,,,,,,,,,,,,,,,,,right,1,1.5457,25,FALSE,FALSE,6,0,24,0,1,,,,,,,
,,,,,,0,2.101991018,#f3af84,"[""0"",""0.25""]",up_orange.png,up,,,,,,,,right,right_blue.png,up_orange.png,up,right,up,6111811863a65868cb3522fe,2021-09-11_16h27.43.348,arrow_simon_vert,2021.1.2,Win32,59.90176111,,,,,,,,,,,,,,,,,,,,,up,1,1.5548,26,FALSE,FALSE,6,1,25,1,1,,,,,,,
,,,,,,0,2.309971382,#a3d0fb,"[""-0.25"",""0""]",right_blue.png,right,,,,,,,,right,right_blue.png,up_orange.png,up,left,down,6111811863a65868cb3522fe,2021-09-11_16h27.43.348,arrow_simon_vert,2021.1.2,Win32,59.90176111,,,,,,,,,,,,,,,,,,,,,right,1,1.6804,27,TRUE,FALSE,6,2,26,0,1,,,,,,,
,,,,,,0,1.848567757,#f3af84,"[""0"",""0.25""]",up_orange.png,up,,,,,,,,right,right_blue.png,up_orange.png,up,right,up,6111811863a65868cb3522fe,2021-09-11_16h27.43.348,arrow_simon_vert,2021.1.2,Win32,59.90176111,,,,,,,,,,,,,,,,,,,,,up,1,1.6107,28,TRUE,FALSE,6,3,27,1,1,,,,,,,
,,,,,,0,1.858172897,#a3d0fb,"[""0.25"",""0""]",left_blue.png,left,,,,,,,,left,left_blue.png,down_orange.png,down,right,up,6111811863a65868cb3522fe,2021-09-11_16h27.43.348,arrow_simon_vert,2021.1.2,Win32,59.90176111,,,,,,,,,,,,,,,,,,,,,left,1,1.5867,29,FALSE,FALSE,7,0,28,3,1,,,,,,,
,,,,,,0,2.333690579,#f3af84,"[""0"",""-0.25""]",down_orange.png,down,,,,,,,,left,left_blue.png,down_orange.png,down,left,down,6111811863a65868cb3522fe,2021-09-11_16h27.43.348,arrow_simon_vert,2021.1.2,Win32,59.90176111,,,,,,,,,,,,,,,,,,,,,up,0,1.6386,30,TRUE,FALSE,7,1,29,2,1,,,,,,,
,,,,,,0,2.382194905,#a3d0fb,"[""-0.25"",""0""]",left_blue.png,left,,,,,,,,left,left_blue.png,down_orange.png,down,left,down,6111811863a65868cb3522fe,2021-09-11_16h27.43.348,arrow_simon_vert,2021.1.2,Win32,59.90176111,,,,,,,,,,,,,,,,,,,,,left,1,1.772,31,TRUE,FALSE,7,2,30,2,1,,,,,,,
,,,,,,0,1.578765396,#f3af84,"[""0"",""0.25""]",up_orange.png,up,,,,,,,,right,right_blue.png,up_orange.png,up,right,up,6111811863a65868cb3522fe,2021-09-11_16h27.43.348,arrow_simon_vert,2021.1.2,Win32,59.90176111,,,,,,,,,,,,,,,,,,,,,up,1,1.5192,32,FALSE,FALSE,7,3,31,1,1,,,,,,,
,,,,,,0,1.667901176,#a3d0fb,"[""-0.25"",""0""]",left_blue.png,left,,,,,,,,left,left_blue.png,down_orange.png,down,left,down,6111811863a65868cb3522fe,2021-09-11_16h27.43.348,arrow_simon_vert,2021.1.2,Win32,59.90176111,,,,,,,,,,,,,,,,,,,,,left,1,1.5526,33,FALSE,FALSE,8,0,32,2,1,,,,,,,
,,,,,,0,1.54366306,#f3af84,"[""0"",""-0.25""]",up_orange.png,up,,,,,,,,right,right_blue.png,up_orange.png,up,left,down,6111811863a65868cb3522fe,2021-09-11_16h27.43.348,arrow_simon_vert,2021.1.2,Win32,59.90176111,,,,,,,,,,,,,,,,,,,,,up,1,1.6306,34,TRUE,FALSE,8,1,33,0,1,,,,,,,
,,,,,,0,2.08014686,#a3d0fb,"[""-0.25"",""0""]",right_blue.png,right,,,,,,,,right,right_blue.png,up_orange.png,up,left,down,6111811863a65868cb3522fe,2021-09-11_16h27.43.348,arrow_simon_vert,2021.1.2,Win32,59.90176111,,,,,,,,,,,,,,,,,,,,,right,1,1.5419,35,FALSE,FALSE,8,2,34,0,1,,,,,,,
,,,,,,0,2.185178602,#f3af84,"[""0"",""0.25""]",down_orange.png,down,,,,,,,,left,left_blue.png,down_orange.png,down,right,up,6111811863a65868cb3522fe,2021-09-11_16h27.43.348,arrow_simon_vert,2021.1.2,Win32,59.90176111,,,,,,,,,,,,,,,,,,,,,down,1,1.6534,36,TRUE,FALSE,8,3,35,3,1,,,,,,,
,,,,,,0,1.696166996,#a3d0fb,"[""0.25"",""0""]",left_blue.png,left,,,,,,,,left,left_blue.png,down_orange.png,down,right,up,6111811863a65868cb3522fe,2021-09-11_16h27.43.348,arrow_simon_vert,2021.1.2,Win32,59.90176111,,,,,,,,,,,,,,,,,,,,,left,1,1.5866,37,FALSE,FALSE,9,0,36,3,1,,,,,,,
,,,,,,0,2.31574634,#f3af84,"[""0"",""0.25""]",up_orange.png,up,,,,,,,,right,right_blue.png,up_orange.png,up,right,up,6111811863a65868cb3522fe,2021-09-11_16h27.43.348,arrow_simon_vert,2021.1.2,Win32,59.90176111,,,,,,,,,,,,,,,,,,,,,up,1,1.6265,38,TRUE,FALSE,9,1,37,1,1,,,,,,,
,,,,,,0,2.339368107,#a3d0fb,"[""-0.25"",""0""]",left_blue.png,left,,,,,,,,left,left_blue.png,down_orange.png,down,left,down,6111811863a65868cb3522fe,2021-09-11_16h27.43.348,arrow_simon_vert,2021.1.2,Win32,59.90176111,,,,,,,,,,,,,,,,,,,,,left,1,1.7265,39,TRUE,FALSE,9,2,38,2,1,,,,,,,
,,,,,,0,1.902966803,#f3af84,"[""0"",""0.25""]",up_orange.png,up,,,,,,,,right,right_blue.png,up_orange.png,up,right,up,6111811863a65868cb3522fe,2021-09-11_16h27.43.348,arrow_simon_vert,2021.1.2,Win32,59.90176111,,,,,,,,,,,,,,,,,,,,,up,1,1.4194,40,FALSE,FALSE,9,3,39,1,1,,,,,,,
,,,,,,0,2.054620402,#a3d0fb,"[""0.25"",""0""]",right_blue.png,right,,,,,,,,right,right_blue.png,up_orange.png,up,right,up,6111811863a65868cb3522fe,2021-09-11_16h27.43.348,arrow_simon_vert,2021.1.2,Win32,59.90176111,,,,,,,,,,,,,,,,,,,,,right,1,1.4539,41,FALSE,FALSE,10,0,40,1,1,,,,,,,
,,,,,,0,2.033734995,#f3af84,"[""0"",""0.25""]",up_orange.png,up,,,,,,,,right,right_blue.png,up_orange.png,up,right,up,6111811863a65868cb3522fe,2021-09-11_16h27.43.348,arrow_simon_vert,2021.1.2,Win32,59.90176111,,,,,,,,,,,,,,,,,,,,,up,1,1.4767,42,FALSE,FALSE,10,1,41,1,1,,,,,,,
,,,,,,0,1.680166953,#a3d0fb,"[""-0.25"",""0""]",right_blue.png,right,,,,,,,,right,right_blue.png,up_orange.png,up,left,down,6111811863a65868cb3522fe,2021-09-11_16h27.43.348,arrow_simon_vert,2021.1.2,Win32,59.90176111,,,,,,,,,,,,,,,,,,,,,right,1,1.5694,43,FALSE,FALSE,10,2,42,0,1,,,,,,,
,,,,,,0,1.814433015,#f3af84,"[""0"",""-0.25""]",down_orange.png,down,,,,,,,,left,left_blue.png,down_orange.png,down,left,down,6111811863a65868cb3522fe,2021-09-11_16h27.43.348,arrow_simon_vert,2021.1.2,Win32,59.90176111,,,,,,,,,,,,,,,,,,,,,down,1,1.4865,44,FALSE,FALSE,10,3,43,2,1,,,,,,,
,,,,,,0,2.207223281,#a3d0fb,"[""-0.25"",""0""]",left_blue.png,left,,,,,,,,left,left_blue.png,down_orange.png,down,left,down,6111811863a65868cb3522fe,2021-09-11_16h27.43.348,arrow_simon_vert,2021.1.2,Win32,59.90176111,,,,,,,,,,,,,,,,,,,,,left,1,1.53,45,FALSE,FALSE,11,0,44,2,1,,,,,,,
,,,,,,0,1.713423166,#f3af84,"[""0"",""-0.25""]",up_orange.png,up,,,,,,,,right,right_blue.png,up_orange.png,up,left,down,6111811863a65868cb3522fe,2021-09-11_16h27.43.348,arrow_simon_vert,2021.1.2,Win32,59.90176111,,,,,,,,,,,,,,,,,,,,,up,1,1.5794,46,FALSE,FALSE,11,1,45,0,1,,,,,,,
,,,,,,0,1.820618622,#a3d0fb,"[""-0.25"",""0""]",left_blue.png,left,,,,,,,,left,left_blue.png,down_orange.png,down,left,down,6111811863a65868cb3522fe,2021-09-11_16h27.43.348,arrow_simon_vert,2021.1.2,Win32,59.90176111,,,,,,,,,,,,,,,,,,,,,left,1,1.6026,47,TRUE,FALSE,11,2,46,2,1,,,,,,,
,,,,,,0,1.642275539,#f3af84,"[""0"",""-0.25""]",up_orange.png,up,,,,,,,,right,right_blue.png,up_orange.png,up,left,down,6111811863a65868cb3522fe,2021-09-11_16h27.43.348,arrow_simon_vert,2021.1.2,Win32,59.90176111,,,,,,,,,,,,,,,,,,,,,up,1,1.5768,48,FALSE,FALSE,11,3,47,0,1,,,,,,,
,,,,,,0,2.093685447,#a3d0fb,"[""0.25"",""0""]",right_blue.png,right,,,,,,,,right,right_blue.png,up_orange.png,up,right,up,6111811863a65868cb3522fe,2021-09-11_16h27.43.348,arrow_simon_vert,2021.1.2,Win32,59.90176111,,,,,,,,,,,,,,,,,,,,,right,1,1.5131,49,FALSE,FALSE,12,0,48,1,1,,,,,,,
,,,,,,0,1.636890862,#f3af84,"[""0"",""-0.25""]",down_orange.png,down,,,,,,,,left,left_blue.png,down_orange.png,down,left,down,6111811863a65868cb3522fe,2021-09-11_16h27.43.348,arrow_simon_vert,2021.1.2,Win32,59.90176111,,,,,,,,,,,,,,,,,,,,,down,1,1.5042,50,FALSE,FALSE,12,1,49,2,1,,,,,,,
,,,,,,0,1.949008206,#a3d0fb,"[""-0.25"",""0""]",left_blue.png,left,,,,,,,,left,left_blue.png,down_orange.png,down,left,down,6111811863a65868cb3522fe,2021-09-11_16h27.43.348,arrow_simon_vert,2021.1.2,Win32,59.90176111,,,,,,,,,,,,,,,,,,,,,left,1,1.5027,51,FALSE,FALSE,12,2,50,2,1,,,,,,,
,,,,,,0,1.670362797,#f3af84,"[""0"",""-0.25""]",down_orange.png,down,,,,,,,,left,left_blue.png,down_orange.png,down,left,down,6111811863a65868cb3522fe,2021-09-11_16h27.43.348,arrow_simon_vert,2021.1.2,Win32,59.90176111,,,,,,,,,,,,,,,,,,,,,down,1,1.5371,52,FALSE,FALSE,12,3,51,2,1,,,,,,,
,,,,,,0,2.251322654,#a3d0fb,"[""-0.25"",""0""]",left_blue.png,left,,,,,,,,left,left_blue.png,down_orange.png,down,left,down,6111811863a65868cb3522fe,2021-09-11_16h27.43.348,arrow_simon_vert,2021.1.2,Win32,59.90176111,,,,,,,,,,,,,,,,,,,,,left,1,1.7756,53,TRUE,FALSE,13,0,52,2,1,,,,,,,
,,,,,,0,1.641502381,#f3af84,"[""0"",""0.25""]",down_orange.png,down,,,,,,,,left,left_blue.png,down_orange.png,down,right,up,6111811863a65868cb3522fe,2021-09-11_16h27.43.348,arrow_simon_vert,2021.1.2,Win32,59.90176111,,,,,,,,,,,,,,,,,,,,,down,1,1.5747,54,FALSE,FALSE,13,1,53,3,1,,,,,,,
,,,,,,0,2.35285151,#a3d0fb,"[""0.25"",""0""]",left_blue.png,left,,,,,,,,left,left_blue.png,down_orange.png,down,right,up,6111811863a65868cb3522fe,2021-09-11_16h27.43.348,arrow_simon_vert,2021.1.2,Win32,59.90176111,,,,,,,,,,,,,,,,,,,,,right,0,1.6647,55,TRUE,FALSE,13,2,54,3,1,,,,,,,
,,,,,,0,1.892970731,#f3af84,"[""0"",""-0.25""]",up_orange.png,up,,,,,,,,right,right_blue.png,up_orange.png,up,left,down,6111811863a65868cb3522fe,2021-09-11_16h27.43.348,arrow_simon_vert,2021.1.2,Win32,59.90176111,,,,,,,,,,,,,,,,,,,,,up,1,1.6188,56,TRUE,FALSE,13,3,55,0,1,,,,,,,
,,,,,,0,1.779904449,#a3d0fb,"[""-0.25"",""0""]",right_blue.png,right,,,,,,,,right,right_blue.png,up_orange.png,up,left,down,6111811863a65868cb3522fe,2021-09-11_16h27.43.348,arrow_simon_vert,2021.1.2,Win32,59.90176111,,,,,,,,,,,,,,,,,,,,,right,1,1.6362,57,TRUE,FALSE,14,0,56,0,1,,,,,,,
,,,,,,0,2.30564668,#f3af84,"[""0"",""0.25""]",down_orange.png,down,,,,,,,,left,left_blue.png,down_orange.png,down,right,up,6111811863a65868cb3522fe,2021-09-11_16h27.43.348,arrow_simon_vert,2021.1.2,Win32,59.90176111,,,,,,,,,,,,,,,,,,,,,down,1,1.7902,58,TRUE,FALSE,14,1,57,3,1,,,,,,,
,,,,,,0,1.610042255,#a3d0fb,"[""0.25"",""0""]",left_blue.png,left,,,,,,,,left,left_blue.png,down_orange.png,down,right,up,6111811863a65868cb3522fe,2021-09-11_16h27.43.348,arrow_simon_vert,2021.1.2,Win32,59.90176111,,,,,,,,,,,,,,,,,,,,,left,1,1.5913,59,FALSE,FALSE,14,2,58,3,1,,,,,,,
,,,,,,0,1.95905768,#f3af84,"[""0"",""0.25""]",up_orange.png,up,,,,,,,,right,right_blue.png,up_orange.png,up,right,up,6111811863a65868cb3522fe,2021-09-11_16h27.43.348,arrow_simon_vert,2021.1.2,Win32,59.90176111,,,,,,,,,,,,,,,,,,,,,up,1,1.4607,60,FALSE,FALSE,14,3,59,1,1,,,,,,,
,,,,,,,,,,,,,,,,,,,,,,,,,6111811863a65868cb3522fe,2021-09-11_16h27.43.348,arrow_simon_vert,2021.1.2,Win32,59.90176111,,,,,,,,,,,,,,,,,,,,,,,,,,,,,,,,space,17.1927,1,0,1,0,1
,,,,,,0,2.195338079,#a3d0fb,"[""0.25"",""0""]",left_blue.png,left,,,,,,,,left,left_blue.png,down_orange.png,down,right,up,6111811863a65868cb3522fe,2021-09-11_16h27.43.348,arrow_simon_vert,2021.1.2,Win32,59.90176111,,,,,,,,,,,,,,,,,,,,,left,1,1.5901,1,FALSE,FALSE,0,0,0,3,1,,,,,,,
,,,,,,0,2.49490022,#f3af84,"[""0"",""0.25""]",down_orange.png,down,,,,,,,,left,left_blue.png,down_orange.png,down,right,up,6111811863a65868cb3522fe,2021-09-11_16h27.43.348,arrow_simon_vert,2021.1.2,Win32,59.90176111,,,,,,,,,,,,,,,,,,,,,up,0,1.6797,2,TRUE,FALSE,0,1,1,3,1,,,,,,,
,,,,,,0,2.374621698,#a3d0fb,"[""0.25"",""0""]",left_blue.png,left,,,,,,,,left,left_blue.png,down_orange.png,down,right,up,6111811863a65868cb3522fe,2021-09-11_16h27.43.348,arrow_simon_vert,2021.1.2,Win32,59.90176111,,,,,,,,,,,,,,,,,,,,,right,0,1.6697,3,TRUE,FALSE,0,2,2,3,1,,,,,,,
,,,,,,0,2.0188196,#f3af84,"[""0"",""0.25""]",down_orange.png,down,,,,,,,,left,left_blue.png,down_orange.png,down,right,up,6111811863a65868cb3522fe,2021-09-11_16h27.43.348,arrow_simon_vert,2021.1.2,Win32,59.90176111,,,,,,,,,,,,,,,,,,,,,down,1,1.6309,4,TRUE,FALSE,0,3,3,3,1,,,,,,,
,,,,,,0,1.87476063,#a3d0fb,"[""0.25"",""0""]",left_blue.png,left,,,,,,,,left,left_blue.png,down_orange.png,down,right,up,6111811863a65868cb3522fe,2021-09-11_16h27.43.348,arrow_simon_vert,2021.1.2,Win32,59.90176111,,,,,,,,,,,,,,,,,,,,,left,1,1.5212,5,FALSE,FALSE,1,0,4,3,1,,,,,,,
,,,,,,0,1.690211939,#f3af84,"[""0"",""0.25""]",up_orange.png,up,,,,,,,,right,right_blue.png,up_orange.png,up,right,up,6111811863a65868cb3522fe,2021-09-11_16h27.43.348,arrow_simon_vert,2021.1.2,Win32,59.90176111,,,,,,,,,,,,,,,,,,,,,up,1,1.5909,6,FALSE,FALSE,1,1,5,1,1,,,,,,,
,,,,,,0,1.92777822,#a3d0fb,"[""0.25"",""0""]",left_blue.png,left,,,,,,,,left,left_blue.png,down_orange.png,down,right,up,6111811863a65868cb3522fe,2021-09-11_16h27.43.348,arrow_simon_vert,2021.1.2,Win32,59.90176111,,,,,,,,,,,,,,,,,,,,,left,1,1.5706,7,FALSE,FALSE,1,2,6,3,1,,,,,,,
,,,,,,0,2.460422964,#f3af84,"[""0"",""-0.25""]",down_orange.png,down,,,,,,,,left,left_blue.png,down_orange.png,down,left,down,6111811863a65868cb3522fe,2021-09-11_16h27.43.348,arrow_simon_vert,2021.1.2,Win32,59.90176111,,,,,,,,,,,,,,,,,,,,,down,1,1.6871,8,TRUE,FALSE,1,3,7,2,1,,,,,,,
,,,,,,0,2.107783737,#a3d0fb,"[""-0.25"",""0""]",left_blue.png,left,,,,,,,,left,left_blue.png,down_orange.png,down,left,down,6111811863a65868cb3522fe,2021-09-11_16h27.43.348,arrow_simon_vert,2021.1.2,Win32,59.90176111,,,,,,,,,,,,,,,,,,,,,left,1,1.4934,9,FALSE,FALSE,2,0,8,2,1,,,,,,,
,,,,,,0,2.024634222,#f3af84,"[""0"",""-0.25""]",up_orange.png,up,,,,,,,,right,right_blue.png,up_orange.png,up,left,down,6111811863a65868cb3522fe,2021-09-11_16h27.43.348,arrow_simon_vert,2021.1.2,Win32,59.90176111,,,,,,,,,,,,,,,,,,,,,up,1,1.6374,10,TRUE,FALSE,2,1,9,0,1,,,,,,,
,,,,,,0,1.549827306,#a3d0fb,"[""0.25"",""0""]",left_blue.png,left,,,,,,,,left,left_blue.png,down_orange.png,down,right,up,6111811863a65868cb3522fe,2021-09-11_16h27.43.348,arrow_simon_vert,2021.1.2,Win32,59.90176111,,,,,,,,,,,,,,,,,,,,,left,1,1.492,11,FALSE,FALSE,2,2,10,3,1,,,,,,,
,,,,,,1,2.275683086,#f3af84,"[""0"",""-0.25""]",up_orange.png,up,,,,,,,,right,right_blue.png,up_orange.png,up,left,down,6111811863a65868cb3522fe,2021-09-11_16h27.43.348,arrow_simon_vert,2021.1.2,Win32,59.90176111,,,,,,,,,,,,,,,,,,,,,down,0,1.5918,12,FALSE,FALSE,2,3,11,0,1,,,,,,,
,,,,,,0,1.609762494,#a3d0fb,"[""-0.25"",""0""]",right_blue.png,right,,,,,,,,right,right_blue.png,up_orange.png,up,left,down,6111811863a65868cb3522fe,2021-09-11_16h27.43.348,arrow_simon_vert,2021.1.2,Win32,59.90176111,,,,,,,,,,,,,,,,,,,,,right,1,1.5713,13,FALSE,FALSE,3,0,12,0,1,,,,,,,
,,,,,,0,1.59514098,#f3af84,"[""0"",""0.25""]",down_orange.png,down,,,,,,,,left,left_blue.png,down_orange.png,down,right,up,6111811863a65868cb3522fe,2021-09-11_16h27.43.348,arrow_simon_vert,2021.1.2,Win32,59.90176111,,,,,,,,,,,,,,,,,,,,,down,1,1.5706,14,FALSE,FALSE,3,1,13,3,1,,,,,,,
,,,,,,0,2.335464267,#a3d0fb,"[""0.25"",""0""]",left_blue.png,left,,,,,,,,left,left_blue.png,down_orange.png,down,right,up,6111811863a65868cb3522fe,2021-09-11_16h27.43.348,arrow_simon_vert,2021.1.2,Win32,59.90176111,,,,,,,,,,,,,,,,,,,,,left,1,1.7031,15,TRUE,FALSE,3,2,14,3,1,,,,,,,
,,,,,,0,1.712275353,#f3af84,"[""0"",""0.25""]",down_orange.png,down,,,,,,,,left,left_blue.png,down_orange.png,down,right,up,6111811863a65868cb3522fe,2021-09-11_16h27.43.348,arrow_simon_vert,2021.1.2,Win32,59.90176111,,,,,,,,,,,,,,,,,,,,,down,1,1.6192,16,TRUE,FALSE,3,3,15,3,1,,,,,,,
,,,,,,0,2.032914709,#a3d0fb,"[""0.25"",""0""]",left_blue.png,left,,,,,,,,left,left_blue.png,down_orange.png,down,right,up,6111811863a65868cb3522fe,2021-09-11_16h27.43.348,arrow_simon_vert,2021.1.2,Win32,59.90176111,,,,,,,,,,,,,,,,,,,,,left,1,1.4526,17,FALSE,FALSE,4,0,16,3,1,,,,,,,
,,,,,,0,1.778831658,#f3af84,"[""0"",""-0.25""]",up_orange.png,up,,,,,,,,right,right_blue.png,up_orange.png,up,left,down,6111811863a65868cb3522fe,2021-09-11_16h27.43.348,arrow_simon_vert,2021.1.2,Win32,59.90176111,,,,,,,,,,,,,,,,,,,,,up,1,1.5865,18,FALSE,FALSE,4,1,17,0,1,,,,,,,
,,,,,,0,1.841189338,#a3d0fb,"[""0.25"",""0""]",right_blue.png,right,,,,,,,,right,right_blue.png,up_orange.png,up,right,up,6111811863a65868cb3522fe,2021-09-11_16h27.43.348,arrow_simon_vert,2021.1.2,Win32,59.90176111,,,,,,,,,,,,,,,,,,,,,right,1,1.5375,19,FALSE,FALSE,4,2,18,1,1,,,,,,,
,,,,,,0,1.640118312,#f3af84,"[""0"",""0.25""]",down_orange.png,down,,,,,,,,left,left_blue.png,down_orange.png,down,right,up,6111811863a65868cb3522fe,2021-09-11_16h27.43.348,arrow_simon_vert,2021.1.2,Win32,59.90176111,,,,,,,,,,,,,,,,,,,,,down,1,1.5192,20,FALSE,FALSE,4,3,19,3,1,,,,,,,
,,,,,,0,2.061624685,#a3d0fb,"[""-0.25"",""0""]",left_blue.png,left,,,,,,,,left,left_blue.png,down_orange.png,down,left,down,6111811863a65868cb3522fe,2021-09-11_16h27.43.348,arrow_simon_vert,2021.1.2,Win32,59.90176111,,,,,,,,,,,,,,,,,,,,,left,1,1.6765,21,TRUE,FALSE,5,0,20,2,1,,,,,,,
,,,,,,0,2.342949862,#f3af84,"[""0"",""-0.25""]",up_orange.png,up,,,,,,,,right,right_blue.png,up_orange.png,up,left,down,6111811863a65868cb3522fe,2021-09-11_16h27.43.348,arrow_simon_vert,2021.1.2,Win32,59.90176111,,,,,,,,,,,,,,,,,,,,,up,1,1.7962,22,TRUE,FALSE,5,1,21,0,1,,,,,,,
,,,,,,0,2.022549758,#a3d0fb,"[""-0.25"",""0""]",left_blue.png,left,,,,,,,,left,left_blue.png,down_orange.png,down,left,down,6111811863a65868cb3522fe,2021-09-11_16h27.43.348,arrow_simon_vert,2021.1.2,Win32,59.90176111,,,,,,,,,,,,,,,,,,,,,left,1,1.5689,23,FALSE,FALSE,5,2,22,2,1,,,,,,,
,,,,,,0,2.246597106,#f3af84,"[""0"",""-0.25""]",down_orange.png,down,,,,,,,,left,left_blue.png,down_orange.png,down,left,down,6111811863a65868cb3522fe,2021-09-11_16h27.43.348,arrow_simon_vert,2021.1.2,Win32,59.90176111,,,,,,,,,,,,,,,,,,,,,down,1,1.6041,24,TRUE,FALSE,5,3,23,2,1,,,,,,,
,,,,,,0,2.136222905,#a3d0fb,"[""-0.25"",""0""]",right_blue.png,right,,,,,,,,right,right_blue.png,up_orange.png,up,left,down,6111811863a65868cb3522fe,2021-09-11_16h27.43.348,arrow_simon_vert,2021.1.2,Win32,59.90176111,,,,,,,,,,,,,,,,,,,,,right,1,1.5478,25,FALSE,FALSE,6,0,24,0,1,,,,,,,
,,,,,,0,1.923224134,#f3af84,"[""0"",""0.25""]",up_orange.png,up,,,,,,,,right,right_blue.png,up_orange.png,up,right,up,6111811863a65868cb3522fe,2021-09-11_16h27.43.348,arrow_simon_vert,2021.1.2,Win32,59.90176111,,,,,,,,,,,,,,,,,,,,,up,1,1.5053,26,FALSE,FALSE,6,1,25,1,1,,,,,,,
,,,,,,0,2.04949644,#a3d0fb,"[""-0.25"",""0""]",right_blue.png,right,,,,,,,,right,right_blue.png,up_orange.png,up,left,down,6111811863a65868cb3522fe,2021-09-11_16h27.43.348,arrow_simon_vert,2021.1.2,Win32,59.90176111,,,,,,,,,,,,,,,,,,,,,right,1,1.6875,27,TRUE,FALSE,6,2,26,0,1,,,,,,,
,,,,,,0,1.763033343,#f3af84,"[""0"",""-0.25""]",down_orange.png,down,,,,,,,,left,left_blue.png,down_orange.png,down,left,down,6111811863a65868cb3522fe,2021-09-11_16h27.43.348,arrow_simon_vert,2021.1.2,Win32,59.90176111,,,,,,,,,,,,,,,,,,,,,down,1,1.6253,28,TRUE,FALSE,6,3,27,2,1,,,,,,,
,,,,,,0,1.663905235,#a3d0fb,"[""0.25"",""0""]",right_blue.png,right,,,,,,,,right,right_blue.png,up_orange.png,up,right,up,6111811863a65868cb3522fe,2021-09-11_16h27.43.348,arrow_simon_vert,2021.1.2,Win32,59.90176111,,,,,,,,,,,,,,,,,,,,,right,1,1.47,29,FALSE,FALSE,7,0,28,1,1,,,,,,,
,,,,,,0,1.845600358,#f3af84,"[""0"",""-0.25""]",down_orange.png,down,,,,,,,,left,left_blue.png,down_orange.png,down,left,down,6111811863a65868cb3522fe,2021-09-11_16h27.43.348,arrow_simon_vert,2021.1.2,Win32,59.90176111,,,,,,,,,,,,,,,,,,,,,down,1,1.5893,30,FALSE,FALSE,7,1,29,2,1,,,,,,,
,,,,,,0,2.091177351,#a3d0fb,"[""0.25"",""0""]",right_blue.png,right,,,,,,,,right,right_blue.png,up_orange.png,up,right,up,6111811863a65868cb3522fe,2021-09-11_16h27.43.348,arrow_simon_vert,2021.1.2,Win32,59.90176111,,,,,,,,,,,,,,,,,,,,,right,1,1.6582,31,TRUE,FALSE,7,2,30,1,1,,,,,,,
,,,,,,0,1.537067617,#f3af84,"[""0"",""0.25""]",up_orange.png,up,,,,,,,,right,right_blue.png,up_orange.png,up,right,up,6111811863a65868cb3522fe,2021-09-11_16h27.43.348,arrow_simon_vert,2021.1.2,Win32,59.90176111,,,,,,,,,,,,,,,,,,,,,up,1,1.5699,32,FALSE,FALSE,7,3,31,1,1,,,,,,,
,,,,,,0,1.550307819,#a3d0fb,"[""0.25"",""0""]",right_blue.png,right,,,,,,,,right,right_blue.png,up_orange.png,up,right,up,6111811863a65868cb3522fe,2021-09-11_16h27.43.348,arrow_simon_vert,2021.1.2,Win32,59.90176111,,,,,,,,,,,,,,,,,,,,,right,1,1.4936,33,FALSE,FALSE,8,0,32,1,1,,,,,,,
,,,,,,0,2.278018656,#f3af84,"[""0"",""0.25""]",up_orange.png,up,,,,,,,,right,right_blue.png,up_orange.png,up,right,up,6111811863a65868cb3522fe,2021-09-11_16h27.43.348,arrow_simon_vert,2021.1.2,Win32,59.90176111,,,,,,,,,,,,,,,,,,,,,up,1,1.5862,34,FALSE,FALSE,8,1,33,1,1,,,,,,,
,,,,,,0,1.543494509,#a3d0fb,"[""-0.25"",""0""]",left_blue.png,left,,,,,,,,left,left_blue.png,down_orange.png,down,left,down,6111811863a65868cb3522fe,2021-09-11_16h27.43.348,arrow_simon_vert,2021.1.2,Win32,59.90176111,,,,,,,,,,,,,,,,,,,,,left,1,1.4778,35,FALSE,FALSE,8,2,34,2,1,,,,,,,
,,,,,,0,1.980117091,#f3af84,"[""0"",""0.25""]",up_orange.png,up,,,,,,,,right,right_blue.png,up_orange.png,up,right,up,6111811863a65868cb3522fe,2021-09-11_16h27.43.348,arrow_simon_vert,2021.1.2,Win32,59.90176111,,,,,,,,,,,,,,,,,,,,,up,1,1.5921,36,FALSE,FALSE,8,3,35,1,1,,,,,,,
,,,,,,0,1.849235928,#a3d0fb,"[""-0.25"",""0""]",left_blue.png,left,,,,,,,,left,left_blue.png,down_orange.png,down,left,down,6111811863a65868cb3522fe,2021-09-11_16h27.43.348,arrow_simon_vert,2021.1.2,Win32,59.90176111,,,,,,,,,,,,,,,,,,,,,left,1,1.6361,37,TRUE,FALSE,9,0,36,2,1,,,,,,,
,,,,,,0,2.292996151,#f3af84,"[""0"",""-0.25""]",down_orange.png,down,,,,,,,,left,left_blue.png,down_orange.png,down,left,down,6111811863a65868cb3522fe,2021-09-11_16h27.43.348,arrow_simon_vert,2021.1.2,Win32,59.90176111,,,,,,,,,,,,,,,,,,,,,down,1,1.6037,38,TRUE,FALSE,9,1,37,2,1,,,,,,,
,,,,,,0,2.413037983,#a3d0fb,"[""-0.25"",""0""]",right_blue.png,right,,,,,,,,right,right_blue.png,up_orange.png,up,left,down,6111811863a65868cb3522fe,2021-09-11_16h27.43.348,arrow_simon_vert,2021.1.2,Win32,59.90176111,,,,,,,,,,,,,,,,,,,,,left,0,1.726,39,TRUE,FALSE,9,2,38,0,1,,,,,,,
,,,,,,0,1.904840571,#f3af84,"[""0"",""0.25""]",up_orange.png,up,,,,,,,,right,right_blue.png,up_orange.png,up,right,up,6111811863a65868cb3522fe,2021-09-11_16h27.43.348,arrow_simon_vert,2021.1.2,Win32,59.90176111,,,,,,,,,,,,,,,,,,,,,up,1,1.4191,40,FALSE,FALSE,9,3,39,1,1,,,,,,,
,,,,,,0,2.128163023,#a3d0fb,"[""0.25"",""0""]",right_blue.png,right,,,,,,,,right,right_blue.png,up_orange.png,up,right,up,6111811863a65868cb3522fe,2021-09-11_16h27.43.348,arrow_simon_vert,2021.1.2,Win32,59.90176111,,,,,,,,,,,,,,,,,,,,,right,1,1.504,41,FALSE,FALSE,10,0,40,1,1,,,,,,,
,,,,,,0,1.882496905,#f3af84,"[""0"",""0.25""]",up_orange.png,up,,,,,,,,right,right_blue.png,up_orange.png,up,right,up,6111811863a65868cb3522fe,2021-09-11_16h27.43.348,arrow_simon_vert,2021.1.2,Win32,59.90176111,,,,,,,,,,,,,,,,,,,,,up,1,1.423,42,FALSE,FALSE,10,1,41,1,1,,,,,,,
,,,,,,0,1.943145749,#a3d0fb,"[""-0.25"",""0""]",right_blue.png,right,,,,,,,,right,right_blue.png,up_orange.png,up,left,down,6111811863a65868cb3522fe,2021-09-11_16h27.43.348,arrow_simon_vert,2021.1.2,Win32,59.90176111,,,,,,,,,,,,,,,,,,,,,right,1,1.5199,43,FALSE,FALSE,10,2,42,0,1,,,,,,,
,,,,,,0,1.729614995,#f3af84,"[""0"",""-0.25""]",down_orange.png,down,,,,,,,,left,left_blue.png,down_orange.png,down,left,down,6111811863a65868cb3522fe,2021-09-11_16h27.43.348,arrow_simon_vert,2021.1.2,Win32,59.90176111,,,,,,,,,,,,,,,,,,,,,down,1,1.5027,44,FALSE,FALSE,10,3,43,2,1,,,,,,,
,,,,,,0,2.384339156,#a3d0fb,"[""0.25"",""0""]",left_blue.png,left,,,,,,,,left,left_blue.png,down_orange.png,down,right,up,6111811863a65868cb3522fe,2021-09-11_16h27.43.348,arrow_simon_vert,2021.1.2,Win32,59.90176111,,,,,,,,,,,,,,,,,,,,,right,0,1.6531,45,TRUE,FALSE,11,0,44,3,1,,,,,,,
,,,,,,0,1.627706482,#f3af84,"[""0"",""-0.25""]",down_orange.png,down,,,,,,,,left,left_blue.png,down_orange.png,down,left,down,6111811863a65868cb3522fe,2021-09-11_16h27.43.348,arrow_simon_vert,2021.1.2,Win32,59.90176111,,,,,,,,,,,,,,,,,,,,,down,1,1.5123,46,FALSE,FALSE,11,1,45,2,1,,,,,,,
,,,,,,0,2.023933054,#a3d0fb,"[""-0.25"",""0""]",right_blue.png,right,,,,,,,,right,right_blue.png,up_orange.png,up,left,down,6111811863a65868cb3522fe,2021-09-11_16h27.43.348,arrow_simon_vert,2021.1.2,Win32,59.90176111,,,,,,,,,,,,,,,,,,,,,right,1,1.5696,47,FALSE,FALSE,11,2,46,0,1,,,,,,,
,,,,,,0,2.111729536,#f3af84,"[""0"",""-0.25""]",down_orange.png,down,,,,,,,,left,left_blue.png,down_orange.png,down,left,down,6111811863a65868cb3522fe,2021-09-11_16h27.43.348,arrow_simon_vert,2021.1.2,Win32,59.90176111,,,,,,,,,,,,,,,,,,,,,down,1,1.5358,48,FALSE,FALSE,11,3,47,2,1,,,,,,,
,,,,,,0,1.869822647,#a3d0fb,"[""0.25"",""0""]",right_blue.png,right,,,,,,,,right,right_blue.png,up_orange.png,up,right,up,6111811863a65868cb3522fe,2021-09-11_16h27.43.348,arrow_simon_vert,2021.1.2,Win32,59.90176111,,,,,,,,,,,,,,,,,,,,,right,1,1.276,49,FALSE,TRUE,12,0,48,1,1,,,,,,,
,,,,,,0,2.019496709,#f3af84,"[""0"",""0.25""]",down_orange.png,down,,,,,,,,left,left_blue.png,down_orange.png,down,right,up,6111811863a65868cb3522fe,2021-09-11_16h27.43.348,arrow_simon_vert,2021.1.2,Win32,59.90176111,,,,,,,,,,,,,,,,,,,,,down,1,1.5962,50,FALSE,FALSE,12,1,49,3,1,,,,,,,
,,,,,,0,2.23627936,#a3d0fb,"[""-0.25"",""0""]",right_blue.png,right,,,,,,,,right,right_blue.png,up_orange.png,up,left,down,6111811863a65868cb3522fe,2021-09-11_16h27.43.348,arrow_simon_vert,2021.1.2,Win32,59.90176111,,,,,,,,,,,,,,,,,,,,,right,1,1.6645,51,TRUE,FALSE,12,2,50,0,1,,,,,,,
,,,,,,0,2.206551805,#f3af84,"[""0"",""-0.25""]",down_orange.png,down,,,,,,,,left,left_blue.png,down_orange.png,down,left,down,6111811863a65868cb3522fe,2021-09-11_16h27.43.348,arrow_simon_vert,2021.1.2,Win32,59.90176111,,,,,,,,,,,,,,,,,,,,,down,1,1.6031,52,TRUE,FALSE,12,3,51,2,1,,,,,,,
,,,,,,0,1.838029951,#a3d0fb,"[""-0.25"",""0""]",right_blue.png,right,,,,,,,,right,right_blue.png,up_orange.png,up,left,down,6111811863a65868cb3522fe,2021-09-11_16h27.43.348,arrow_simon_vert,2021.1.2,Win32,59.90176111,,,,,,,,,,,,,,,,,,,,,right,1,1.5377,53,FALSE,FALSE,13,0,52,0,1,,,,,,,
,,,,,,0,2.176805493,#f3af84,"[""0"",""-0.25""]",up_orange.png,up,,,,,,,,right,right_blue.png,up_orange.png,up,left,down,6111811863a65868cb3522fe,2021-09-11_16h27.43.348,arrow_simon_vert,2021.1.2,Win32,59.90176111,,,,,,,,,,,,,,,,,,,,,up,1,1.6496,54,TRUE,FALSE,13,1,53,0,1,,,,,,,
,,,,,,0,1.972274845,#a3d0fb,"[""-0.25"",""0""]",right_blue.png,right,,,,,,,,right,right_blue.png,up_orange.png,up,left,down,6111811863a65868cb3522fe,2021-09-11_16h27.43.348,arrow_simon_vert,2021.1.2,Win32,59.90176111,,,,,,,,,,,,,,,,,,,,,right,1,1.5916,55,FALSE,FALSE,13,2,54,0,1,,,,,,,
,,,,,,0,2.320240204,#f3af84,"[""0"",""0.25""]",up_orange.png,up,,,,,,,,right,right_blue.png,up_orange.png,up,right,up,6111811863a65868cb3522fe,2021-09-11_16h27.43.348,arrow_simon_vert,2021.1.2,Win32,59.90176111,,,,,,,,,,,,,,,,,,,,,up,1,1.719,56,TRUE,FALSE,13,3,55,1,1,,,,,,,
,,,,,,0,2.432818196,#a3d0fb,"[""0.25"",""0""]",right_blue.png,right,,,,,,,,right,right_blue.png,up_orange.png,up,right,up,6111811863a65868cb3522fe,2021-09-11_16h27.43.348,arrow_simon_vert,2021.1.2,Win32,59.90176111,,,,,,,,,,,,,,,,,,,,,right,1,1.7446,57,TRUE,FALSE,14,0,56,1,1,,,,,,,
,,,,,,0,1.965810461,#f3af84,"[""0"",""-0.25""]",up_orange.png,up,,,,,,,,right,right_blue.png,up_orange.png,up,left,down,6111811863a65868cb3522fe,2021-09-11_16h27.43.348,arrow_simon_vert,2021.1.2,Win32,59.90176111,,,,,,,,,,,,,,,,,,,,,up,1,1.5791,58,FALSE,FALSE,14,1,57,0,1,,,,,,,
,,,,,,0,1.861303662,#a3d0fb,"[""0.25"",""0""]",left_blue.png,left,,,,,,,,left,left_blue.png,down_orange.png,down,right,up,6111811863a65868cb3522fe,2021-09-11_16h27.43.348,arrow_simon_vert,2021.1.2,Win32,59.90176111,,,,,,,,,,,,,,,,,,,,,left,1,1.5251,59,FALSE,FALSE,14,2,58,3,1,,,,,,,
,,,,,,0,1.770187057,#f3af84,"[""0"",""-0.25""]",down_orange.png,down,,,,,,,,left,left_blue.png,down_orange.png,down,left,down,6111811863a65868cb3522fe,2021-09-11_16h27.43.348,arrow_simon_vert,2021.1.2,Win32,59.90176111,,,,,,,,,,,,,,,,,,,,,down,1,1.4575,60,FALSE,FALSE,14,3,59,2,1,,,,,,,
,,,,,,,,,,,,,,,,,,,,,,,,,6111811863a65868cb3522fe,2021-09-11_16h27.43.348,arrow_simon_vert,2021.1.2,Win32,59.90176111,,,,,,,,,,,,,,,,,,,,,,,,,,,,,,,,space,35.1682,2,0,2,0,1
,,,,,,0,2.181448127,#a3d0fb,"[""-0.25"",""0""]",right_blue.png,right,,,,,,,,right,right_blue.png,up_orange.png,up,left,down,6111811863a65868cb3522fe,2021-09-11_16h27.43.348,arrow_simon_vert,2021.1.2,Win32,59.90176111,,,,,,,,,,,,,,,,,,,,,right,1,1.7356,1,TRUE,FALSE,0,0,0,0,1,,,,,,,
,,,,,,0,1.58599621,#f3af84,"[""0"",""0.25""]",up_orange.png,up,,,,,,,,right,right_blue.png,up_orange.png,up,right,up,6111811863a65868cb3522fe,2021-09-11_16h27.43.348,arrow_simon_vert,2021.1.2,Win32,59.90176111,,,,,,,,,,,,,,,,,,,,,up,1,1.4288,2,FALSE,FALSE,0,1,1,1,1,,,,,,,
,,,,,,0,1.985681521,#a3d0fb,"[""-0.25"",""0""]",right_blue.png,right,,,,,,,,right,right_blue.png,up_orange.png,up,left,down,6111811863a65868cb3522fe,2021-09-11_16h27.43.348,arrow_simon_vert,2021.1.2,Win32,59.90176111,,,,,,,,,,,,,,,,,,,,,right,1,1.6616,3,TRUE,FALSE,0,2,2,0,1,,,,,,,
,,,,,,0,2.338791708,#f3af84,"[""0"",""0.25""]",down_orange.png,down,,,,,,,,left,left_blue.png,down_orange.png,down,right,up,6111811863a65868cb3522fe,2021-09-11_16h27.43.348,arrow_simon_vert,2021.1.2,Win32,59.90176111,,,,,,,,,,,,,,,,,,,,,up,0,1.7018,4,TRUE,FALSE,0,3,3,3,1,,,,,,,
,,,,,,0,2.074265124,#a3d0fb,"[""-0.25"",""0""]",right_blue.png,right,,,,,,,,right,right_blue.png,up_orange.png,up,left,down,6111811863a65868cb3522fe,2021-09-11_16h27.43.348,arrow_simon_vert,2021.1.2,Win32,59.90176111,,,,,,,,,,,,,,,,,,,,,right,1,1.6862,5,TRUE,FALSE,1,0,4,0,1,,,,,,,
,,,,,,0,1.523878601,#f3af84,"[""0"",""-0.25""]",up_orange.png,up,,,,,,,,right,right_blue.png,up_orange.png,up,left,down,6111811863a65868cb3522fe,2021-09-11_16h27.43.348,arrow_simon_vert,2021.1.2,Win32,59.90176111,,,,,,,,,,,,,,,,,,,,,up,1,1.4211,6,FALSE,FALSE,1,1,5,0,1,,,,,,,
,,,,,,0,1.641989128,#a3d0fb,"[""-0.25"",""0""]",right_blue.png,right,,,,,,,,right,right_blue.png,up_orange.png,up,left,down,6111811863a65868cb3522fe,2021-09-11_16h27.43.348,arrow_simon_vert,2021.1.2,Win32,59.90176111,,,,,,,,,,,,,,,,,,,,,right,1,1.4109,7,FALSE,FALSE,1,2,6,0,1,,,,,,,
,,,,,,0,2.365615928,#f3af84,"[""0"",""0.25""]",down_orange.png,down,,,,,,,,left,left_blue.png,down_orange.png,down,right,up,6111811863a65868cb3522fe,2021-09-11_16h27.43.348,arrow_simon_vert,2021.1.2,Win32,59.90176111,,,,,,,,,,,,,,,,,,,,,up,0,1.7884,8,TRUE,FALSE,1,3,7,3,1,,,,,,,
,,,,,,0,2.332393243,#a3d0fb,"[""-0.25"",""0""]",left_blue.png,left,,,,,,,,left,left_blue.png,down_orange.png,down,left,down,6111811863a65868cb3522fe,2021-09-11_16h27.43.348,arrow_simon_vert,2021.1.2,Win32,59.90176111,,,,,,,,,,,,,,,,,,,,,left,1,1.7702,9,TRUE,FALSE,2,0,8,2,1,,,,,,,
,,,,,,0,2.343420423,#f3af84,"[""0"",""0.25""]",down_orange.png,down,,,,,,,,left,left_blue.png,down_orange.png,down,right,up,6111811863a65868cb3522fe,2021-09-11_16h27.43.348,arrow_simon_vert,2021.1.2,Win32,59.90176111,,,,,,,,,,,,,,,,,,,,,down,1,1.7298,10,TRUE,FALSE,2,1,9,3,1,,,,,,,
,,,,,,0,2.057590255,#a3d0fb,"[""0.25"",""0""]",right_blue.png,right,,,,,,,,right,right_blue.png,up_orange.png,up,right,up,6111811863a65868cb3522fe,2021-09-11_16h27.43.348,arrow_simon_vert,2021.1.2,Win32,59.90176111,,,,,,,,,,,,,,,,,,,,,right,1,1.4092,11,FALSE,FALSE,2,2,10,1,1,,,,,,,
,,,,,,0,1.786665227,#f3af84,"[""0"",""-0.25""]",up_orange.png,up,,,,,,,,right,right_blue.png,up_orange.png,up,left,down,6111811863a65868cb3522fe,2021-09-11_16h27.43.348,arrow_simon_vert,2021.1.2,Win32,59.90176111,,,,,,,,,,,,,,,,,,,,,up,1,1.5368,12,FALSE,FALSE,2,3,11,0,1,,,,,,,
,,,,,,0,2.070974785,#a3d0fb,"[""-0.25"",""0""]",right_blue.png,right,,,,,,,,right,right_blue.png,up_orange.png,up,left,down,6111811863a65868cb3522fe,2021-09-11_16h27.43.348,arrow_simon_vert,2021.1.2,Win32,59.90176111,,,,,,,,,,,,,,,,,,,,,right,1,1.7922,13,TRUE,FALSE,3,0,12,0,1,,,,,,,
,,,,,,0,1.730979308,#f3af84,"[""0"",""0.25""]",down_orange.png,down,,,,,,,,left,left_blue.png,down_orange.png,down,right,up,6111811863a65868cb3522fe,2021-09-11_16h27.43.348,arrow_simon_vert,2021.1.2,Win32,59.90176111,,,,,,,,,,,,,,,,,,,,,down,1,1.6404,14,TRUE,FALSE,3,1,13,3,1,,,,,,,
,,,,,,0,1.929604036,#a3d0fb,"[""0.25"",""0""]",right_blue.png,right,,,,,,,,right,right_blue.png,up_orange.png,up,right,up,6111811863a65868cb3522fe,2021-09-11_16h27.43.348,arrow_simon_vert,2021.1.2,Win32,59.90176111,,,,,,,,,,,,,,,,,,,,,right,1,1.2535,15,FALSE,TRUE,3,2,14,1,1,,,,,,,
