instruct_resp_simon.keys,instruct_resp_simon.corr,instruct_resp_simon.rt,trial_resp_simon.keys,trial_resp_simon.corr,trial_resp_simon.rt,kerr,target_onset,target_color,target_pos,target_file,target_resp,trials_train_simon.thisRepN,trials_train_simon.thisTrialN,trials_train_simon.thisN,trials_train_simon.thisIndex,trials_train_simon.ran,odd_target_pos,even_target_pos,odd_target_resp,odd_target_file,even_target_file,even_target_resp,odd_target_side,even_target_side,participant,date,expName,psychopyVersion,OS,frameRate,train_block_note_resp.keys,train_block_note_resp.rt,blocks_train.thisRepN,blocks_train.thisTrialN,blocks_train.thisN,blocks_train.thisIndex,blocks_train.ran,instruct_resp_timing.keys,instruct_resp_timing.corr,instruct_resp_timing.rt,trial_resp_timing.keys,trial_resp_timing.rt,trials_train_timing.thisRepN,trials_train_timing.thisTrialN,trials_train_timing.thisN,trials_train_timing.thisIndex,trials_train_timing.ran,instruct_resp.keys,instruct_resp.corr,instruct_resp.rt,trial_resp.keys,trial_resp.corr,trial_resp.rt,trial_num,too_slow,too_soon,trials.thisRepN,trials.thisTrialN,trials.thisN,trials.thisIndex,trials.ran,block_note_resp.keys,block_note_resp.rt,blocks.thisRepN,blocks.thisTrialN,blocks.thisN,blocks.thisIndex,blocks.ran
space,0,117.3866,left,1,2.1936,0,0.807829241,#a3d0fb,"[""0.25"",""0""]",left_blue.png,left,0,0,0,3,1,,,left,left_blue.png,down_orange.png,down,right,up,61157d9bcc5084cae1e75a86,2021-09-11_16h45.10.790,arrow_simon_vert,2021.1.2,MacIntel,59.99880002,,,,,,,,,,,,,,,,,,,,,,,,,,,,,,,,,,,,,,
,,,up,1,1.0845,0,0.414220775,#f3af84,"[""0"",""0.25""]",up_orange.png,up,0,1,1,1,1,,,right,right_blue.png,up_orange.png,up,right,up,61157d9bcc5084cae1e75a86,2021-09-11_16h45.10.790,arrow_simon_vert,2021.1.2,MacIntel,59.99880002,,,,,,,,,,,,,,,,,,,,,,,,,,,,,,,,,,,,,,
,,,left,1,1.2385,0,0.581054634,#a3d0fb,"[""0.25"",""0""]",left_blue.png,left,0,2,2,3,1,,,left,left_blue.png,down_orange.png,down,right,up,61157d9bcc5084cae1e75a86,2021-09-11_16h45.10.790,arrow_simon_vert,2021.1.2,MacIntel,59.99880002,,,,,,,,,,,,,,,,,,,,,,,,,,,,,,,,,,,,,,
,,,down,1,1.5669,0,0.95353545,#f3af84,"[""0"",""-0.25""]",down_orange.png,down,0,3,3,2,1,,,left,left_blue.png,down_orange.png,down,left,down,61157d9bcc5084cae1e75a86,2021-09-11_16h45.10.790,arrow_simon_vert,2021.1.2,MacIntel,59.99880002,,,,,,,,,,,,,,,,,,,,,,,,,,,,,,,,,,,,,,
,,,right,1,1.062,0,0.602650654,#a3d0fb,"[""0.25"",""0""]",right_blue.png,right,1,0,4,1,1,,,right,right_blue.png,up_orange.png,up,right,up,61157d9bcc5084cae1e75a86,2021-09-11_16h45.10.790,arrow_simon_vert,2021.1.2,MacIntel,59.99880002,,,,,,,,,,,,,,,,,,,,,,,,,,,,,,,,,,,,,,
,,,up,1,0.6993,0,0.17367729,#f3af84,"[""0"",""0.25""]",up_orange.png,up,1,1,5,1,1,,,right,right_blue.png,up_orange.png,up,right,up,61157d9bcc5084cae1e75a86,2021-09-11_16h45.10.790,arrow_simon_vert,2021.1.2,MacIntel,59.99880002,,,,,,,,,,,,,,,,,,,,,,,,,,,,,,,,,,,,,,
,,,right,1,1.4319,0,0.906744997,#a3d0fb,"[""-0.25"",""0""]",right_blue.png,right,1,2,6,0,1,,,right,right_blue.png,up_orange.png,up,left,down,61157d9bcc5084cae1e75a86,2021-09-11_16h45.10.790,arrow_simon_vert,2021.1.2,MacIntel,59.99880002,,,,,,,,,,,,,,,,,,,,,,,,,,,,,,,,,,,,,,
,,,down,1,1.1157,0,0.485594324,#f3af84,"[""0"",""-0.25""]",down_orange.png,down,1,3,7,2,1,,,left,left_blue.png,down_orange.png,down,left,down,61157d9bcc5084cae1e75a86,2021-09-11_16h45.10.790,arrow_simon_vert,2021.1.2,MacIntel,59.99880002,,,,,,,,,,,,,,,,,,,,,,,,,,,,,,,,,,,,,,
,,,left,1,0.9333,0,0.461144946,#a3d0fb,"[""-0.25"",""0""]",left_blue.png,left,2,0,8,2,1,,,left,left_blue.png,down_orange.png,down,left,down,61157d9bcc5084cae1e75a86,2021-09-11_16h45.10.790,arrow_simon_vert,2021.1.2,MacIntel,59.99880002,,,,,,,,,,,,,,,,,,,,,,,,,,,,,,,,,,,,,,
,,,up,1,0.5735,0,0.104271268,#f3af84,"[""0"",""0.25""]",up_orange.png,up,2,1,9,1,1,,,right,right_blue.png,up_orange.png,up,right,up,61157d9bcc5084cae1e75a86,2021-09-11_16h45.10.790,arrow_simon_vert,2021.1.2,MacIntel,59.99880002,,,,,,,,,,,,,,,,,,,,,,,,,,,,,,,,,,,,,,
,,,right,1,0.5672,0,0.014626639,#a3d0fb,"[""-0.25"",""0""]",right_blue.png,right,2,2,10,0,1,,,right,right_blue.png,up_orange.png,up,left,down,61157d9bcc5084cae1e75a86,2021-09-11_16h45.10.790,arrow_simon_vert,2021.1.2,MacIntel,59.99880002,,,,,,,,,,,,,,,,,,,,,,,,,,,,,,,,,,,,,,
,,,up,1,1.0138,0,0.554903421,#f3af84,"[""0"",""0.25""]",up_orange.png,up,2,3,11,1,1,,,right,right_blue.png,up_orange.png,up,right,up,61157d9bcc5084cae1e75a86,2021-09-11_16h45.10.790,arrow_simon_vert,2021.1.2,MacIntel,59.99880002,,,,,,,,,,,,,,,,,,,,,,,,,,,,,,,,,,,,,,
,,,right,1,0.8341,0,0.41936998,#a3d0fb,"[""0.25"",""0""]",right_blue.png,right,3,0,12,1,1,,,right,right_blue.png,up_orange.png,up,right,up,61157d9bcc5084cae1e75a86,2021-09-11_16h45.10.790,arrow_simon_vert,2021.1.2,MacIntel,59.99880002,,,,,,,,,,,,,,,,,,,,,,,,,,,,,,,,,,,,,,
,,,up,1,0.4975,0,0.012475656,#f3af84,"[""0"",""0.25""]",up_orange.png,up,3,1,13,1,1,,,right,right_blue.png,up_orange.png,up,right,up,61157d9bcc5084cae1e75a86,2021-09-11_16h45.10.790,arrow_simon_vert,2021.1.2,MacIntel,59.99880002,,,,,,,,,,,,,,,,,,,,,,,,,,,,,,,,,,,,,,
,,,left,1,1.1503,0,0.632147431,#a3d0fb,"[""0.25"",""0""]",left_blue.png,left,3,2,14,3,1,,,left,left_blue.png,down_orange.png,down,right,up,61157d9bcc5084cae1e75a86,2021-09-11_16h45.10.790,arrow_simon_vert,2021.1.2,MacIntel,59.99880002,,,,,,,,,,,,,,,,,,,,,,,,,,,,,,,,,,,,,,
,,,down,1,1.532,0,0.906035322,#f3af84,"[""0"",""-0.25""]",down_orange.png,down,3,3,15,2,1,,,left,left_blue.png,down_orange.png,down,left,down,61157d9bcc5084cae1e75a86,2021-09-11_16h45.10.790,arrow_simon_vert,2021.1.2,MacIntel,59.99880002,,,,,,,,,,,,,,,,,,,,,,,,,,,,,,,,,,,,,,
,,,left,1,1.2334,0,0.715480708,#a3d0fb,"[""0.25"",""0""]",left_blue.png,left,4,0,16,3,1,,,left,left_blue.png,down_orange.png,down,right,up,61157d9bcc5084cae1e75a86,2021-09-11_16h45.10.790,arrow_simon_vert,2021.1.2,MacIntel,59.99880002,,,,,,,,,,,,,,,,,,,,,,,,,,,,,,,,,,,,,,
,,,up,1,1.002,0,0.304132131,#f3af84,"[""0"",""-0.25""]",up_orange.png,up,4,1,17,0,1,,,right,right_blue.png,up_orange.png,up,left,down,61157d9bcc5084cae1e75a86,2021-09-11_16h45.10.790,arrow_simon_vert,2021.1.2,MacIntel,59.99880002,,,,,,,,,,,,,,,,,,,,,,,,,,,,,,,,,,,,,,
,,,left,1,1.0819,0,0.530309019,#a3d0fb,"[""0.25"",""0""]",left_blue.png,left,4,2,18,3,1,,,left,left_blue.png,down_orange.png,down,right,up,61157d9bcc5084cae1e75a86,2021-09-11_16h45.10.790,arrow_simon_vert,2021.1.2,MacIntel,59.99880002,,,,,,,,,,,,,,,,,,,,,,,,,,,,,,,,,,,,,,
,,,down,1,0.9355,0,0.319768948,#f3af84,"[""0"",""-0.25""]",down_orange.png,down,4,3,19,2,1,,,left,left_blue.png,down_orange.png,down,left,down,61157d9bcc5084cae1e75a86,2021-09-11_16h45.10.790,arrow_simon_vert,2021.1.2,MacIntel,59.99880002,,,,,,,,,,,,,,,,,,,,,,,,,,,,,,,,,,,,,,
,,,left,1,1.4654,0,0.987498164,#a3d0fb,"[""0.25"",""0""]",left_blue.png,left,5,0,20,3,1,,,left,left_blue.png,down_orange.png,down,right,up,61157d9bcc5084cae1e75a86,2021-09-11_16h45.10.790,arrow_simon_vert,2021.1.2,MacIntel,59.99880002,,,,,,,,,,,,,,,,,,,,,,,,,,,,,,,,,,,,,,
,,,up,1,0.7666,0,0.138690176,#f3af84,"[""0"",""-0.25""]",up_orange.png,up,5,1,21,0,1,,,right,right_blue.png,up_orange.png,up,left,down,61157d9bcc5084cae1e75a86,2021-09-11_16h45.10.790,arrow_simon_vert,2021.1.2,MacIntel,59.99880002,,,,,,,,,,,,,,,,,,,,,,,,,,,,,,,,,,,,,,
,,,right,1,1.4684,0,0.793250248,#a3d0fb,"[""-0.25"",""0""]",right_blue.png,right,5,2,22,0,1,,,right,right_blue.png,up_orange.png,up,left,down,61157d9bcc5084cae1e75a86,2021-09-11_16h45.10.790,arrow_simon_vert,2021.1.2,MacIntel,59.99880002,,,,,,,,,,,,,,,,,,,,,,,,,,,,,,,,,,,,,,
,,,up,1,1.4475,0,0.942491612,#f3af84,"[""0"",""-0.25""]",up_orange.png,up,5,3,23,0,1,,,right,right_blue.png,up_orange.png,up,left,down,61157d9bcc5084cae1e75a86,2021-09-11_16h45.10.790,arrow_simon_vert,2021.1.2,MacIntel,59.99880002,,,,,,,,,,,,,,,,,,,,,,,,,,,,,,,,,,,,,,
,,,left,1,0.5524,0,0.017209282,#a3d0fb,"[""-0.25"",""0""]",left_blue.png,left,6,0,24,2,1,,,left,left_blue.png,down_orange.png,down,left,down,61157d9bcc5084cae1e75a86,2021-09-11_16h45.10.790,arrow_simon_vert,2021.1.2,MacIntel,59.99880002,,,,,,,,,,,,,,,,,,,,,,,,,,,,,,,,,,,,,,
,,,down,1,0.9823,0,0.38414271,#f3af84,"[""0"",""-0.25""]",down_orange.png,down,6,1,25,2,1,,,left,left_blue.png,down_orange.png,down,left,down,61157d9bcc5084cae1e75a86,2021-09-11_16h45.10.790,arrow_simon_vert,2021.1.2,MacIntel,59.99880002,,,,,,,,,,,,,,,,,,,,,,,,,,,,,,,,,,,,,,
,,,left,1,0.9144,0,0.432848116,#a3d0fb,"[""-0.25"",""0""]",left_blue.png,left,6,2,26,2,1,,,left,left_blue.png,down_orange.png,down,left,down,61157d9bcc5084cae1e75a86,2021-09-11_16h45.10.790,arrow_simon_vert,2021.1.2,MacIntel,59.99880002,,,,,,,,,,,,,,,,,,,,,,,,,,,,,,,,,,,,,,
,,,down,1,1.3678,0,0.667797508,#f3af84,"[""0"",""0.25""]",down_orange.png,down,6,3,27,3,1,,,left,left_blue.png,down_orange.png,down,right,up,61157d9bcc5084cae1e75a86,2021-09-11_16h45.10.790,arrow_simon_vert,2021.1.2,MacIntel,59.99880002,,,,,,,,,,,,,,,,,,,,,,,,,,,,,,,,,,,,,,
,,,right,1,1.5673,0,0.970085783,#a3d0fb,"[""-0.25"",""0""]",right_blue.png,right,7,0,28,0,1,,,right,right_blue.png,up_orange.png,up,left,down,61157d9bcc5084cae1e75a86,2021-09-11_16h45.10.790,arrow_simon_vert,2021.1.2,MacIntel,59.99880002,,,,,,,,,,,,,,,,,,,,,,,,,,,,,,,,,,,,,,
,,,down,1,0.9553,0,0.430695565,#f3af84,"[""0"",""0.25""]",down_orange.png,down,7,1,29,3,1,,,left,left_blue.png,down_orange.png,down,right,up,61157d9bcc5084cae1e75a86,2021-09-11_16h45.10.790,arrow_simon_vert,2021.1.2,MacIntel,59.99880002,,,,,,,,,,,,,,,,,,,,,,,,,,,,,,,,,,,,,,
,,,right,1,1.0146,0,0.568606439,#a3d0fb,"[""0.25"",""0""]",right_blue.png,right,7,2,30,1,1,,,right,right_blue.png,up_orange.png,up,right,up,61157d9bcc5084cae1e75a86,2021-09-11_16h45.10.790,arrow_simon_vert,2021.1.2,MacIntel,59.99880002,,,,,,,,,,,,,,,,,,,,,,,,,,,,,,,,,,,,,,
,,,up,1,1.235,0,0.678306228,#f3af84,"[""0"",""0.25""]",up_orange.png,up,7,3,31,1,1,,,right,right_blue.png,up_orange.png,up,right,up,61157d9bcc5084cae1e75a86,2021-09-11_16h45.10.790,arrow_simon_vert,2021.1.2,MacIntel,59.99880002,,,,,,,,,,,,,,,,,,,,,,,,,,,,,,,,,,,,,,
,,,right,1,0.7997,0,0.334966611,#a3d0fb,"[""-0.25"",""0""]",right_blue.png,right,8,0,32,0,1,,,right,right_blue.png,up_orange.png,up,left,down,61157d9bcc5084cae1e75a86,2021-09-11_16h45.10.790,arrow_simon_vert,2021.1.2,MacIntel,59.99880002,,,,,,,,,,,,,,,,,,,,,,,,,,,,,,,,,,,,,,
,,,up,1,1.1853,0,0.679935401,#f3af84,"[""0"",""-0.25""]",up_orange.png,up,8,1,33,0,1,,,right,right_blue.png,up_orange.png,up,left,down,61157d9bcc5084cae1e75a86,2021-09-11_16h45.10.790,arrow_simon_vert,2021.1.2,MacIntel,59.99880002,,,,,,,,,,,,,,,,,,,,,,,,,,,,,,,,,,,,,,
,,,right,1,0.6304,0,0.177561163,#a3d0fb,"[""0.25"",""0""]",right_blue.png,right,8,2,34,1,1,,,right,right_blue.png,up_orange.png,up,right,up,61157d9bcc5084cae1e75a86,2021-09-11_16h45.10.790,arrow_simon_vert,2021.1.2,MacIntel,59.99880002,,,,,,,,,,,,,,,,,,,,,,,,,,,,,,,,,,,,,,
,,,up,1,1.0892,0,0.667587627,#f3af84,"[""0"",""0.25""]",up_orange.png,up,8,3,35,1,1,,,right,right_blue.png,up_orange.png,up,right,up,61157d9bcc5084cae1e75a86,2021-09-11_16h45.10.790,arrow_simon_vert,2021.1.2,MacIntel,59.99880002,,,,,,,,,,,,,,,,,,,,,,,,,,,,,,,,,,,,,,
,,,left,1,1.1018,0,0.674445291,#a3d0fb,"[""0.25"",""0""]",left_blue.png,left,9,0,36,3,1,,,left,left_blue.png,down_orange.png,down,right,up,61157d9bcc5084cae1e75a86,2021-09-11_16h45.10.790,arrow_simon_vert,2021.1.2,MacIntel,59.99880002,,,,,,,,,,,,,,,,,,,,,,,,,,,,,,,,,,,,,,
,,,down,1,1.1045,0,0.548909659,#f3af84,"[""0"",""-0.25""]",down_orange.png,down,9,1,37,2,1,,,left,left_blue.png,down_orange.png,down,left,down,61157d9bcc5084cae1e75a86,2021-09-11_16h45.10.790,arrow_simon_vert,2021.1.2,MacIntel,59.99880002,,,,,,,,,,,,,,,,,,,,,,,,,,,,,,,,,,,,,,
,,,left,1,1.4215,0,0.947813522,#a3d0fb,"[""-0.25"",""0""]",left_blue.png,left,9,2,38,2,1,,,left,left_blue.png,down_orange.png,down,left,down,61157d9bcc5084cae1e75a86,2021-09-11_16h45.10.790,arrow_simon_vert,2021.1.2,MacIntel,59.99880002,,,,,,,,,,,,,,,,,,,,,,,,,,,,,,,,,,,,,,
,,,down,1,0.8698,0,0.341596056,#f3af84,"[""0"",""0.25""]",down_orange.png,down,9,3,39,3,1,,,left,left_blue.png,down_orange.png,down,right,up,61157d9bcc5084cae1e75a86,2021-09-11_16h45.10.790,arrow_simon_vert,2021.1.2,MacIntel,59.99880002,,,,,,,,,,,,,,,,,,,,,,,,,,,,,,,,,,,,,,
,,,left,1,1.4728,0,0.998273177,#a3d0fb,"[""0.25"",""0""]",left_blue.png,left,10,0,40,3,1,,,left,left_blue.png,down_orange.png,down,right,up,61157d9bcc5084cae1e75a86,2021-09-11_16h45.10.790,arrow_simon_vert,2021.1.2,MacIntel,59.99880002,,,,,,,,,,,,,,,,,,,,,,,,,,,,,,,,,,,,,,
,,,up,1,1.4569,0,0.92446189,#f3af84,"[""0"",""-0.25""]",up_orange.png,up,10,1,41,0,1,,,right,right_blue.png,up_orange.png,up,left,down,61157d9bcc5084cae1e75a86,2021-09-11_16h45.10.790,arrow_simon_vert,2021.1.2,MacIntel,59.99880002,,,,,,,,,,,,,,,,,,,,,,,,,,,,,,,,,,,,,,
,,,left,1,0.668,0,0.235524859,#a3d0fb,"[""-0.25"",""0""]",left_blue.png,left,10,2,42,2,1,,,left,left_blue.png,down_orange.png,down,left,down,61157d9bcc5084cae1e75a86,2021-09-11_16h45.10.790,arrow_simon_vert,2021.1.2,MacIntel,59.99880002,,,,,,,,,,,,,,,,,,,,,,,,,,,,,,,,,,,,,,
,,,down,1,1.1972,0,0.613211657,#f3af84,"[""0"",""0.25""]",down_orange.png,down,10,3,43,3,1,,,left,left_blue.png,down_orange.png,down,right,up,61157d9bcc5084cae1e75a86,2021-09-11_16h45.10.790,arrow_simon_vert,2021.1.2,MacIntel,59.99880002,,,,,,,,,,,,,,,,,,,,,,,,,,,,,,,,,,,,,,
,,,left,1,0.6007,0,0.077455968,#a3d0fb,"[""0.25"",""0""]",left_blue.png,left,11,0,44,3,1,,,left,left_blue.png,down_orange.png,down,right,up,61157d9bcc5084cae1e75a86,2021-09-11_16h45.10.790,arrow_simon_vert,2021.1.2,MacIntel,59.99880002,,,,,,,,,,,,,,,,,,,,,,,,,,,,,,,,,,,,,,
,,,down,1,0.7663,0,0.227545645,#f3af84,"[""0"",""-0.25""]",down_orange.png,down,11,1,45,2,1,,,left,left_blue.png,down_orange.png,down,left,down,61157d9bcc5084cae1e75a86,2021-09-11_16h45.10.790,arrow_simon_vert,2021.1.2,MacIntel,59.99880002,,,,,,,,,,,,,,,,,,,,,,,,,,,,,,,,,,,,,,
,,,right,1,1.4639,0,0.830922739,#a3d0fb,"[""0.25"",""0""]",right_blue.png,right,11,2,46,1,1,,,right,right_blue.png,up_orange.png,up,right,up,61157d9bcc5084cae1e75a86,2021-09-11_16h45.10.790,arrow_simon_vert,2021.1.2,MacIntel,59.99880002,,,,,,,,,,,,,,,,,,,,,,,,,,,,,,,,,,,,,,
,,,up,1,1.425,0,0.910380105,#f3af84,"[""0"",""-0.25""]",up_orange.png,up,11,3,47,0,1,,,right,right_blue.png,up_orange.png,up,left,down,61157d9bcc5084cae1e75a86,2021-09-11_16h45.10.790,arrow_simon_vert,2021.1.2,MacIntel,59.99880002,,,,,,,,,,,,,,,,,,,,,,,,,,,,,,,,,,,,,,
,,,left,1,1.1257,0,0.693722966,#a3d0fb,"[""-0.25"",""0""]",left_blue.png,left,12,0,48,2,1,,,left,left_blue.png,down_orange.png,down,left,down,61157d9bcc5084cae1e75a86,2021-09-11_16h45.10.790,arrow_simon_vert,2021.1.2,MacIntel,59.99880002,,,,,,,,,,,,,,,,,,,,,,,,,,,,,,,,,,,,,,
,,,down,1,1.4023,0,0.742641103,#f3af84,"[""0"",""0.25""]",down_orange.png,down,12,1,49,3,1,,,left,left_blue.png,down_orange.png,down,right,up,61157d9bcc5084cae1e75a86,2021-09-11_16h45.10.790,arrow_simon_vert,2021.1.2,MacIntel,59.99880002,,,,,,,,,,,,,,,,,,,,,,,,,,,,,,,,,,,,,,
,,,right,1,1.3003,0,0.832649186,#a3d0fb,"[""-0.25"",""0""]",right_blue.png,right,12,2,50,0,1,,,right,right_blue.png,up_orange.png,up,left,down,61157d9bcc5084cae1e75a86,2021-09-11_16h45.10.790,arrow_simon_vert,2021.1.2,MacIntel,59.99880002,,,,,,,,,,,,,,,,,,,,,,,,,,,,,,,,,,,,,,
,,,down,1,0.6497,0,0.145168996,#f3af84,"[""0"",""0.25""]",down_orange.png,down,12,3,51,3,1,,,left,left_blue.png,down_orange.png,down,right,up,61157d9bcc5084cae1e75a86,2021-09-11_16h45.10.790,arrow_simon_vert,2021.1.2,MacIntel,59.99880002,,,,,,,,,,,,,,,,,,,,,,,,,,,,,,,,,,,,,,
,,,right,1,1.0489,0,0.561239116,#a3d0fb,"[""-0.25"",""0""]",right_blue.png,right,13,0,52,0,1,,,right,right_blue.png,up_orange.png,up,left,down,61157d9bcc5084cae1e75a86,2021-09-11_16h45.10.790,arrow_simon_vert,2021.1.2,MacIntel,59.99880002,,,,,,,,,,,,,,,,,,,,,,,,,,,,,,,,,,,,,,
,,,up,1,1.407,0,0.947713623,#f3af84,"[""0"",""0.25""]",up_orange.png,up,13,1,53,1,1,,,right,right_blue.png,up_orange.png,up,right,up,61157d9bcc5084cae1e75a86,2021-09-11_16h45.10.790,arrow_simon_vert,2021.1.2,MacIntel,59.99880002,,,,,,,,,,,,,,,,,,,,,,,,,,,,,,,,,,,,,,
,,,right,1,0.8867,0,0.495521713,#a3d0fb,"[""0.25"",""0""]",right_blue.png,right,13,2,54,1,1,,,right,right_blue.png,up_orange.png,up,right,up,61157d9bcc5084cae1e75a86,2021-09-11_16h45.10.790,arrow_simon_vert,2021.1.2,MacIntel,59.99880002,,,,,,,,,,,,,,,,,,,,,,,,,,,,,,,,,,,,,,
,,,up,1,0.731,0,0.147412357,#f3af84,"[""0"",""-0.25""]",up_orange.png,up,13,3,55,0,1,,,right,right_blue.png,up_orange.png,up,left,down,61157d9bcc5084cae1e75a86,2021-09-11_16h45.10.790,arrow_simon_vert,2021.1.2,MacIntel,59.99880002,,,,,,,,,,,,,,,,,,,,,,,,,,,,,,,,,,,,,,
,,,left,1,1.2668,0,0.847716423,#a3d0fb,"[""-0.25"",""0""]",left_blue.png,left,14,0,56,2,1,,,left,left_blue.png,down_orange.png,down,left,down,61157d9bcc5084cae1e75a86,2021-09-11_16h45.10.790,arrow_simon_vert,2021.1.2,MacIntel,59.99880002,,,,,,,,,,,,,,,,,,,,,,,,,,,,,,,,,,,,,,
,,,down,1,1.14,0,0.620135031,#f3af84,"[""0"",""-0.25""]",down_orange.png,down,14,1,57,2,1,,,left,left_blue.png,down_orange.png,down,left,down,61157d9bcc5084cae1e75a86,2021-09-11_16h45.10.790,arrow_simon_vert,2021.1.2,MacIntel,59.99880002,,,,,,,,,,,,,,,,,,,,,,,,,,,,,,,,,,,,,,
,,,right,1,0.9591,0,0.541354397,#a3d0fb,"[""-0.25"",""0""]",right_blue.png,right,14,2,58,0,1,,,right,right_blue.png,up_orange.png,up,left,down,61157d9bcc5084cae1e75a86,2021-09-11_16h45.10.790,arrow_simon_vert,2021.1.2,MacIntel,59.99880002,,,,,,,,,,,,,,,,,,,,,,,,,,,,,,,,,,,,,,
,,,up,1,0.6443,0,0.220798264,#f3af84,"[""0"",""0.25""]",up_orange.png,up,14,3,59,1,1,,,right,right_blue.png,up_orange.png,up,right,up,61157d9bcc5084cae1e75a86,2021-09-11_16h45.10.790,arrow_simon_vert,2021.1.2,MacIntel,59.99880002,,,,,,,,,,,,,,,,,,,,,,,,,,,,,,,,,,,,,,
,,,,,,,,,,,,,,,,,,,,,,,,,61157d9bcc5084cae1e75a86,2021-09-11_16h45.10.790,arrow_simon_vert,2021.1.2,MacIntel,59.99880002,space,6.463,0,0,0,0,1,,,,,,,,,,,,,,,,,,,,,,,,,,,,,,,
,,,right,1,1.0796,0,0.609650674,#a3d0fb,"[""-0.25"",""0""]",right_blue.png,right,0,0,0,0,1,,,right,right_blue.png,up_orange.png,up,left,down,61157d9bcc5084cae1e75a86,2021-09-11_16h45.10.790,arrow_simon_vert,2021.1.2,MacIntel,59.99880002,,,,,,,,,,,,,,,,,,,,,,,,,,,,,,,,,,,,,,
,,,up,1,0.5991,0,0.185610064,#f3af84,"[""0"",""0.25""]",up_orange.png,up,0,1,1,1,1,,,right,right_blue.png,up_orange.png,up,right,up,61157d9bcc5084cae1e75a86,2021-09-11_16h45.10.790,arrow_simon_vert,2021.1.2,MacIntel,59.99880002,,,,,,,,,,,,,,,,,,,,,,,,,,,,,,,,,,,,,,
,,,right,1,1.4089,0,0.956412008,#a3d0fb,"[""-0.25"",""0""]",right_blue.png,right,0,2,2,0,1,,,right,right_blue.png,up_orange.png,up,left,down,61157d9bcc5084cae1e75a86,2021-09-11_16h45.10.790,arrow_simon_vert,2021.1.2,MacIntel,59.99880002,,,,,,,,,,,,,,,,,,,,,,,,,,,,,,,,,,,,,,
,,,down,1,0.9194,0,0.380993699,#f3af84,"[""0"",""-0.25""]",down_orange.png,down,0,3,3,2,1,,,left,left_blue.png,down_orange.png,down,left,down,61157d9bcc5084cae1e75a86,2021-09-11_16h45.10.790,arrow_simon_vert,2021.1.2,MacIntel,59.99880002,,,,,,,,,,,,,,,,,,,,,,,,,,,,,,,,,,,,,,
,,,left,1,0.5172,0,0.016124015,#a3d0fb,"[""0.25"",""0""]",left_blue.png,left,1,0,4,3,1,,,left,left_blue.png,down_orange.png,down,right,up,61157d9bcc5084cae1e75a86,2021-09-11_16h45.10.790,arrow_simon_vert,2021.1.2,MacIntel,59.99880002,,,,,,,,,,,,,,,,,,,,,,,,,,,,,,,,,,,,,,
,,,down,1,1.8003,0,0.951151114,#f3af84,"[""0"",""0.25""]",down_orange.png,down,1,1,5,3,1,,,left,left_blue.png,down_orange.png,down,right,up,61157d9bcc5084cae1e75a86,2021-09-11_16h45.10.790,arrow_simon_vert,2021.1.2,MacIntel,59.99880002,,,,,,,,,,,,,,,,,,,,,,,,,,,,,,,,,,,,,,
,,,left,1,1.0166,0,0.527262963,#a3d0fb,"[""0.25"",""0""]",left_blue.png,left,1,2,6,3,1,,,left,left_blue.png,down_orange.png,down,right,up,61157d9bcc5084cae1e75a86,2021-09-11_16h45.10.790,arrow_simon_vert,2021.1.2,MacIntel,59.99880002,,,,,,,,,,,,,,,,,,,,,,,,,,,,,,,,,,,,,,
,,,down,1,0.6317,0,0.073139526,#f3af84,"[""0"",""-0.25""]",down_orange.png,down,1,3,7,2,1,,,left,left_blue.png,down_orange.png,down,left,down,61157d9bcc5084cae1e75a86,2021-09-11_16h45.10.790,arrow_simon_vert,2021.1.2,MacIntel,59.99880002,,,,,,,,,,,,,,,,,,,,,,,,,,,,,,,,,,,,,,
,,,left,1,1.2836,0,0.855015457,#a3d0fb,"[""-0.25"",""0""]",left_blue.png,left,2,0,8,2,1,,,left,left_blue.png,down_orange.png,down,left,down,61157d9bcc5084cae1e75a86,2021-09-11_16h45.10.790,arrow_simon_vert,2021.1.2,MacIntel,59.99880002,,,,,,,,,,,,,,,,,,,,,,,,,,,,,,,,,,,,,,
,,,up,1,1.3385,0,0.713835137,#f3af84,"[""0"",""-0.25""]",up_orange.png,up,2,1,9,0,1,,,right,right_blue.png,up_orange.png,up,left,down,61157d9bcc5084cae1e75a86,2021-09-11_16h45.10.790,arrow_simon_vert,2021.1.2,MacIntel,59.99880002,,,,,,,,,,,,,,,,,,,,,,,,,,,,,,,,,,,,,,
,,,right,1,1.0504,0,0.627526641,#a3d0fb,"[""0.25"",""0""]",right_blue.png,right,2,2,10,1,1,,,right,right_blue.png,up_orange.png,up,right,up,61157d9bcc5084cae1e75a86,2021-09-11_16h45.10.790,arrow_simon_vert,2021.1.2,MacIntel,59.99880002,,,,,,,,,,,,,,,,,,,,,,,,,,,,,,,,,,,,,,
,,,down,1,1.5177,0,0.922932999,#f3af84,"[""0"",""0.25""]",down_orange.png,down,2,3,11,3,1,,,left,left_blue.png,down_orange.png,down,right,up,61157d9bcc5084cae1e75a86,2021-09-11_16h45.10.790,arrow_simon_vert,2021.1.2,MacIntel,59.99880002,,,,,,,,,,,,,,,,,,,,,,,,,,,,,,,,,,,,,,
,,,left,1,1.3478,0,0.928856193,#a3d0fb,"[""-0.25"",""0""]",left_blue.png,left,3,0,12,2,1,,,left,left_blue.png,down_orange.png,down,left,down,61157d9bcc5084cae1e75a86,2021-09-11_16h45.10.790,arrow_simon_vert,2021.1.2,MacIntel,59.99880002,,,,,,,,,,,,,,,,,,,,,,,,,,,,,,,,,,,,,,
,,,up,1,0.701,0,0.187577339,#f3af84,"[""0"",""0.25""]",up_orange.png,up,3,1,13,1,1,,,right,right_blue.png,up_orange.png,up,right,up,61157d9bcc5084cae1e75a86,2021-09-11_16h45.10.790,arrow_simon_vert,2021.1.2,MacIntel,59.99880002,,,,,,,,,,,,,,,,,,,,,,,,,,,,,,,,,,,,,,
,,,left,1,1.1205,0,0.712148931,#a3d0fb,"[""-0.25"",""0""]",left_blue.png,left,3,2,14,2,1,,,left,left_blue.png,down_orange.png,down,left,down,61157d9bcc5084cae1e75a86,2021-09-11_16h45.10.790,arrow_simon_vert,2021.1.2,MacIntel,59.99880002,,,,,,,,,,,,,,,,,,,,,,,,,,,,,,,,,,,,,,
,,,up,1,1.1549,0,0.653024771,#f3af84,"[""0"",""0.25""]",up_orange.png,up,3,3,15,1,1,,,right,right_blue.png,up_orange.png,up,right,up,61157d9bcc5084cae1e75a86,2021-09-11_16h45.10.790,arrow_simon_vert,2021.1.2,MacIntel,59.99880002,,,,,,,,,,,,,,,,,,,,,,,,,,,,,,,,,,,,,,
,,,right,1,1.0071,0,0.655781285,#a3d0fb,"[""-0.25"",""0""]",right_blue.png,right,4,0,16,0,1,,,right,right_blue.png,up_orange.png,up,left,down,61157d9bcc5084cae1e75a86,2021-09-11_16h45.10.790,arrow_simon_vert,2021.1.2,MacIntel,59.99880002,,,,,,,,,,,,,,,,,,,,,,,,,,,,,,,,,,,,,,
,,,up,1,0.9682,0,0.391084334,#f3af84,"[""0"",""-0.25""]",up_orange.png,up,4,1,17,0,1,,,right,right_blue.png,up_orange.png,up,left,down,61157d9bcc5084cae1e75a86,2021-09-11_16h45.10.790,arrow_simon_vert,2021.1.2,MacIntel,59.99880002,,,,,,,,,,,,,,,,,,,,,,,,,,,,,,,,,,,,,,
,,,right,1,0.7716,0,0.198680142,#a3d0fb,"[""-0.25"",""0""]",right_blue.png,right,4,2,18,0,1,,,right,right_blue.png,up_orange.png,up,left,down,61157d9bcc5084cae1e75a86,2021-09-11_16h45.10.790,arrow_simon_vert,2021.1.2,MacIntel,59.99880002,,,,,,,,,,,,,,,,,,,,,,,,,,,,,,,,,,,,,,
,,,down,1,1.0001,0,0.322990059,#f3af84,"[""0"",""0.25""]",down_orange.png,down,4,3,19,3,1,,,left,left_blue.png,down_orange.png,down,right,up,61157d9bcc5084cae1e75a86,2021-09-11_16h45.10.790,arrow_simon_vert,2021.1.2,MacIntel,59.99880002,,,,,,,,,,,,,,,,,,,,,,,,,,,,,,,,,,,,,,
,,,right,1,0.6532,0,0.248714698,#a3d0fb,"[""0.25"",""0""]",right_blue.png,right,5,0,20,1,1,,,right,right_blue.png,up_orange.png,up,right,up,61157d9bcc5084cae1e75a86,2021-09-11_16h45.10.790,arrow_simon_vert,2021.1.2,MacIntel,59.99880002,,,,,,,,,,,,,,,,,,,,,,,,,,,,,,,,,,,,,,
,,,up,1,0.9692,0,0.459713165,#f3af84,"[""0"",""-0.25""]",up_orange.png,up,5,1,21,0,1,,,right,right_blue.png,up_orange.png,up,left,down,61157d9bcc5084cae1e75a86,2021-09-11_16h45.10.790,arrow_simon_vert,2021.1.2,MacIntel,59.99880002,,,,,,,,,,,,,,,,,,,,,,,,,,,,,,,,,,,,,,
,,,left,1,1.2819,0,0.819445638,#a3d0fb,"[""-0.25"",""0""]",left_blue.png,left,5,2,22,2,1,,,left,left_blue.png,down_orange.png,down,left,down,61157d9bcc5084cae1e75a86,2021-09-11_16h45.10.790,arrow_simon_vert,2021.1.2,MacIntel,59.99880002,,,,,,,,,,,,,,,,,,,,,,,,,,,,,,,,,,,,,,
,,,up,1,1.2812,0,0.726647495,#f3af84,"[""0"",""0.25""]",up_orange.png,up,5,3,23,1,1,,,right,right_blue.png,up_orange.png,up,right,up,61157d9bcc5084cae1e75a86,2021-09-11_16h45.10.790,arrow_simon_vert,2021.1.2,MacIntel,59.99880002,,,,,,,,,,,,,,,,,,,,,,,,,,,,,,,,,,,,,,
,,,right,1,1.3571,0,0.881682891,#a3d0fb,"[""-0.25"",""0""]",right_blue.png,right,6,0,24,0,1,,,right,right_blue.png,up_orange.png,up,left,down,61157d9bcc5084cae1e75a86,2021-09-11_16h45.10.790,arrow_simon_vert,2021.1.2,MacIntel,59.99880002,,,,,,,,,,,,,,,,,,,,,,,,,,,,,,,,,,,,,,
,,,down,1,1.1497,0,0.564350948,#f3af84,"[""0"",""0.25""]",down_orange.png,down,6,1,25,3,1,,,left,left_blue.png,down_orange.png,down,right,up,61157d9bcc5084cae1e75a86,2021-09-11_16h45.10.790,arrow_simon_vert,2021.1.2,MacIntel,59.99880002,,,,,,,,,,,,,,,,,,,,,,,,,,,,,,,,,,,,,,
,,,right,1,1.1926,0,0.805502242,#a3d0fb,"[""0.25"",""0""]",right_blue.png,right,6,2,26,1,1,,,right,right_blue.png,up_orange.png,up,right,up,61157d9bcc5084cae1e75a86,2021-09-11_16h45.10.790,arrow_simon_vert,2021.1.2,MacIntel,59.99880002,,,,,,,,,,,,,,,,,,,,,,,,,,,,,,,,,,,,,,
,,,up,1,1.3418,0,0.732462142,#f3af84,"[""0"",""-0.25""]",up_orange.png,up,6,3,27,0,1,,,right,right_blue.png,up_orange.png,up,left,down,61157d9bcc5084cae1e75a86,2021-09-11_16h45.10.790,arrow_simon_vert,2021.1.2,MacIntel,59.99880002,,,,,,,,,,,,,,,,,,,,,,,,,,,,,,,,,,,,,,
,,,left,1,1.351,0,0.809674,#a3d0fb,"[""0.25"",""0""]",left_blue.png,left,7,0,28,3,1,,,left,left_blue.png,down_orange.png,down,right,up,61157d9bcc5084cae1e75a86,2021-09-11_16h45.10.790,arrow_simon_vert,2021.1.2,MacIntel,59.99880002,,,,,,,,,,,,,,,,,,,,,,,,,,,,,,,,,,,,,,
,,,down,1,1.4037,0,0.897416542,#f3af84,"[""0"",""-0.25""]",down_orange.png,down,7,1,29,2,1,,,left,left_blue.png,down_orange.png,down,left,down,61157d9bcc5084cae1e75a86,2021-09-11_16h45.10.790,arrow_simon_vert,2021.1.2,MacIntel,59.99880002,,,,,,,,,,,,,,,,,,,,,,,,,,,,,,,,,,,,,,
,,,left,1,0.6727,0,0.293858438,#a3d0fb,"[""-0.25"",""0""]",left_blue.png,left,7,2,30,2,1,,,left,left_blue.png,down_orange.png,down,left,down,61157d9bcc5084cae1e75a86,2021-09-11_16h45.10.790,arrow_simon_vert,2021.1.2,MacIntel,59.99880002,,,,,,,,,,,,,,,,,,,,,,,,,,,,,,,,,,,,,,
,,,down,1,0.7692,0,0.168971137,#f3af84,"[""0"",""0.25""]",down_orange.png,down,7,3,31,3,1,,,left,left_blue.png,down_orange.png,down,right,up,61157d9bcc5084cae1e75a86,2021-09-11_16h45.10.790,arrow_simon_vert,2021.1.2,MacIntel,59.99880002,,,,,,,,,,,,,,,,,,,,,,,,,,,,,,,,,,,,,,
,,,right,1,1.0321,0,0.582342722,#a3d0fb,"[""0.25"",""0""]",right_blue.png,right,8,0,32,1,1,,,right,right_blue.png,up_orange.png,up,right,up,61157d9bcc5084cae1e75a86,2021-09-11_16h45.10.790,arrow_simon_vert,2021.1.2,MacIntel,59.99880002,,,,,,,,,,,,,,,,,,,,,,,,,,,,,,,,,,,,,,
,,,down,1,1.2533,0,0.855872986,#f3af84,"[""0"",""-0.25""]",down_orange.png,down,8,1,33,2,1,,,left,left_blue.png,down_orange.png,down,left,down,61157d9bcc5084cae1e75a86,2021-09-11_16h45.10.790,arrow_simon_vert,2021.1.2,MacIntel,59.99880002,,,,,,,,,,,,,,,,,,,,,,,,,,,,,,,,,,,,,,
,,,right,1,1.0324,0,0.652924135,#a3d0fb,"[""0.25"",""0""]",right_blue.png,right,8,2,34,1,1,,,right,right_blue.png,up_orange.png,up,right,up,61157d9bcc5084cae1e75a86,2021-09-11_16h45.10.790,arrow_simon_vert,2021.1.2,MacIntel,59.99880002,,,,,,,,,,,,,,,,,,,,,,,,,,,,,,,,,,,,,,
,,,down,1,1.5423,0,0.976658459,#f3af84,"[""0"",""0.25""]",down_orange.png,down,8,3,35,3,1,,,left,left_blue.png,down_orange.png,down,right,up,61157d9bcc5084cae1e75a86,2021-09-11_16h45.10.790,arrow_simon_vert,2021.1.2,MacIntel,59.99880002,,,,,,,,,,,,,,,,,,,,,,,,,,,,,,,,,,,,,,
,,,left,1,0.9514,0,0.523017973,#a3d0fb,"[""0.25"",""0""]",left_blue.png,left,9,0,36,3,1,,,left,left_blue.png,down_orange.png,down,right,up,61157d9bcc5084cae1e75a86,2021-09-11_16h45.10.790,arrow_simon_vert,2021.1.2,MacIntel,59.99880002,,,,,,,,,,,,,,,,,,,,,,,,,,,,,,,,,,,,,,
,,,down,1,1.3987,0,0.875011139,#f3af84,"[""0"",""-0.25""]",down_orange.png,down,9,1,37,2,1,,,left,left_blue.png,down_orange.png,down,left,down,61157d9bcc5084cae1e75a86,2021-09-11_16h45.10.790,arrow_simon_vert,2021.1.2,MacIntel,59.99880002,,,,,,,,,,,,,,,,,,,,,,,,,,,,,,,,,,,,,,
,,,left,1,1.0593,0,0.676992602,#a3d0fb,"[""-0.25"",""0""]",left_blue.png,left,9,2,38,2,1,,,left,left_blue.png,down_orange.png,down,left,down,61157d9bcc5084cae1e75a86,2021-09-11_16h45.10.790,arrow_simon_vert,2021.1.2,MacIntel,59.99880002,,,,,,,,,,,,,,,,,,,,,,,,,,,,,,,,,,,,,,
,,,down,1,1.3478,0,0.820047015,#f3af84,"[""0"",""0.25""]",down_orange.png,down,9,3,39,3,1,,,left,left_blue.png,down_orange.png,down,right,up,61157d9bcc5084cae1e75a86,2021-09-11_16h45.10.790,arrow_simon_vert,2021.1.2,MacIntel,59.99880002,,,,,,,,,,,,,,,,,,,,,,,,,,,,,,,,,,,,,,
,,,left,1,1.207,0,0.807064678,#a3d0fb,"[""-0.25"",""0""]",left_blue.png,left,10,0,40,2,1,,,left,left_blue.png,down_orange.png,down,left,down,61157d9bcc5084cae1e75a86,2021-09-11_16h45.10.790,arrow_simon_vert,2021.1.2,MacIntel,59.99880002,,,,,,,,,,,,,,,,,,,,,,,,,,,,,,,,,,,,,,
,,,up,1,1.4003,0,0.736690247,#f3af84,"[""0"",""-0.25""]",up_orange.png,up,10,1,41,0,1,,,right,right_blue.png,up_orange.png,up,left,down,61157d9bcc5084cae1e75a86,2021-09-11_16h45.10.790,arrow_simon_vert,2021.1.2,MacIntel,59.99880002,,,,,,,,,,,,,,,,,,,,,,,,,,,,,,,,,,,,,,
,,,left,1,0.6188,0,0.157519305,#a3d0fb,"[""0.25"",""0""]",left_blue.png,left,10,2,42,3,1,,,left,left_blue.png,down_orange.png,down,right,up,61157d9bcc5084cae1e75a86,2021-09-11_16h45.10.790,arrow_simon_vert,2021.1.2,MacIntel,59.99880002,,,,,,,,,,,,,,,,,,,,,,,,,,,,,,,,,,,,,,
,,,down,1,1.4353,0,0.925915606,#f3af84,"[""0"",""-0.25""]",down_orange.png,down,10,3,43,2,1,,,left,left_blue.png,down_orange.png,down,left,down,61157d9bcc5084cae1e75a86,2021-09-11_16h45.10.790,arrow_simon_vert,2021.1.2,MacIntel,59.99880002,,,,,,,,,,,,,,,,,,,,,,,,,,,,,,,,,,,,,,
,,,right,1,0.5487,0,0.097772334,#a3d0fb,"[""-0.25"",""0""]",right_blue.png,right,11,0,44,0,1,,,right,right_blue.png,up_orange.png,up,left,down,61157d9bcc5084cae1e75a86,2021-09-11_16h45.10.790,arrow_simon_vert,2021.1.2,MacIntel,59.99880002,,,,,,,,,,,,,,,,,,,,,,,,,,,,,,,,,,,,,,
,,,up,1,0.6054,0,0.143445508,#f3af84,"[""0"",""0.25""]",up_orange.png,up,11,1,45,1,1,,,right,right_blue.png,up_orange.png,up,right,up,61157d9bcc5084cae1e75a86,2021-09-11_16h45.10.790,arrow_simon_vert,2021.1.2,MacIntel,59.99880002,,,,,,,,,,,,,,,,,,,,,,,,,,,,,,,,,,,,,,
,,,left,1,1.4504,0,0.912254755,#a3d0fb,"[""-0.25"",""0""]",left_blue.png,left,11,2,46,2,1,,,left,left_blue.png,down_orange.png,down,left,down,61157d9bcc5084cae1e75a86,2021-09-11_16h45.10.790,arrow_simon_vert,2021.1.2,MacIntel,59.99880002,,,,,,,,,,,,,,,,,,,,,,,,,,,,,,,,,,,,,,
,,,down,1,1.4488,0,0.905111505,#f3af84,"[""0"",""0.25""]",down_orange.png,down,11,3,47,3,1,,,left,left_blue.png,down_orange.png,down,right,up,61157d9bcc5084cae1e75a86,2021-09-11_16h45.10.790,arrow_simon_vert,2021.1.2,MacIntel,59.99880002,,,,,,,,,,,,,,,,,,,,,,,,,,,,,,,,,,,,,,
,,,right,1,0.9999,0,0.449085174,#a3d0fb,"[""0.25"",""0""]",right_blue.png,right,12,0,48,1,1,,,right,right_blue.png,up_orange.png,up,right,up,61157d9bcc5084cae1e75a86,2021-09-11_16h45.10.790,arrow_simon_vert,2021.1.2,MacIntel,59.99880002,,,,,,,,,,,,,,,,,,,,,,,,,,,,,,,,,,,,,,
,,,up,1,1.5011,0,0.988909963,#f3af84,"[""0"",""0.25""]",up_orange.png,up,12,1,49,1,1,,,right,right_blue.png,up_orange.png,up,right,up,61157d9bcc5084cae1e75a86,2021-09-11_16h45.10.790,arrow_simon_vert,2021.1.2,MacIntel,59.99880002,,,,,,,,,,,,,,,,,,,,,,,,,,,,,,,,,,,,,,
,,,left,1,1.2508,0,0.858094137,#a3d0fb,"[""-0.25"",""0""]",left_blue.png,left,12,2,50,2,1,,,left,left_blue.png,down_orange.png,down,left,down,61157d9bcc5084cae1e75a86,2021-09-11_16h45.10.790,arrow_simon_vert,2021.1.2,MacIntel,59.99880002,,,,,,,,,,,,,,,,,,,,,,,,,,,,,,,,,,,,,,
,,,up,1,0.6982,0,0.137255828,#f3af84,"[""0"",""-0.25""]",up_orange.png,up,12,3,51,0,1,,,right,right_blue.png,up_orange.png,up,left,down,61157d9bcc5084cae1e75a86,2021-09-11_16h45.10.790,arrow_simon_vert,2021.1.2,MacIntel,59.99880002,,,,,,,,,,,,,,,,,,,,,,,,,,,,,,,,,,,,,,
,,,right,1,1.3354,0,0.850685189,#a3d0fb,"[""-0.25"",""0""]",right_blue.png,right,13,0,52,0,1,,,right,right_blue.png,up_orange.png,up,left,down,61157d9bcc5084cae1e75a86,2021-09-11_16h45.10.790,arrow_simon_vert,2021.1.2,MacIntel,59.99880002,,,,,,,,,,,,,,,,,,,,,,,,,,,,,,,,,,,,,,
,,,down,1,0.7744,0,0.209742152,#f3af84,"[""0"",""0.25""]",down_orange.png,down,13,1,53,3,1,,,left,left_blue.png,down_orange.png,down,right,up,61157d9bcc5084cae1e75a86,2021-09-11_16h45.10.790,arrow_simon_vert,2021.1.2,MacIntel,59.99880002,,,,,,,,,,,,,,,,,,,,,,,,,,,,,,,,,,,,,,
,,,left,1,0.9487,0,0.339194786,#a3d0fb,"[""0.25"",""0""]",left_blue.png,left,13,2,54,3,1,,,left,left_blue.png,down_orange.png,down,right,up,61157d9bcc5084cae1e75a86,2021-09-11_16h45.10.790,arrow_simon_vert,2021.1.2,MacIntel,59.99880002,,,,,,,,,,,,,,,,,,,,,,,,,,,,,,,,,,,,,,
,,,up,1,1.255,0,0.803420766,#f3af84,"[""0"",""0.25""]",up_orange.png,up,13,3,55,1,1,,,right,right_blue.png,up_orange.png,up,right,up,61157d9bcc5084cae1e75a86,2021-09-11_16h45.10.790,arrow_simon_vert,2021.1.2,MacIntel,59.99880002,,,,,,,,,,,,,,,,,,,,,,,,,,,,,,,,,,,,,,
,,,right,1,1.1145,0,0.635533031,#a3d0fb,"[""0.25"",""0""]",right_blue.png,right,14,0,56,1,1,,,right,right_blue.png,up_orange.png,up,right,up,61157d9bcc5084cae1e75a86,2021-09-11_16h45.10.790,arrow_simon_vert,2021.1.2,MacIntel,59.99880002,,,,,,,,,,,,,,,,,,,,,,,,,,,,,,,,,,,,,,
,,,up,1,0.8481,0,0.374889956,#f3af84,"[""0"",""0.25""]",up_orange.png,up,14,1,57,1,1,,,right,right_blue.png,up_orange.png,up,right,up,61157d9bcc5084cae1e75a86,2021-09-11_16h45.10.790,arrow_simon_vert,2021.1.2,MacIntel,59.99880002,,,,,,,,,,,,,,,,,,,,,,,,,,,,,,,,,,,,,,
,,,right,1,0.998,0,0.540034105,#a3d0fb,"[""-0.25"",""0""]",right_blue.png,right,14,2,58,0,1,,,right,right_blue.png,up_orange.png,up,left,down,61157d9bcc5084cae1e75a86,2021-09-11_16h45.10.790,arrow_simon_vert,2021.1.2,MacIntel,59.99880002,,,,,,,,,,,,,,,,,,,,,,,,,,,,,,,,,,,,,,
,,,up,1,1.4684,0,0.948234766,#f3af84,"[""0"",""-0.25""]",up_orange.png,up,14,3,59,0,1,,,right,right_blue.png,up_orange.png,up,left,down,61157d9bcc5084cae1e75a86,2021-09-11_16h45.10.790,arrow_simon_vert,2021.1.2,MacIntel,59.99880002,,,,,,,,,,,,,,,,,,,,,,,,,,,,,,,,,,,,,,
,,,,,,,,,,,,,,,,,,,,,,,,,61157d9bcc5084cae1e75a86,2021-09-11_16h45.10.790,arrow_simon_vert,2021.1.2,MacIntel,59.99880002,space,52.6052,1,0,1,0,1,,,,,,,,,,,,,,,,,,,,,,,,,,,,,,,
,,,,,,,,,,,,,,,,,,,,,,,,,61157d9bcc5084cae1e75a86,2021-09-11_16h45.10.790,arrow_simon_vert,2021.1.2,MacIntel,59.99880002,,,,,,,,space,0,39.2664,up,3.093,0,0,0,0,1,,,,,,,,,,,,,,,,,,,,,
,,,,,,,,,,,,,,,,,,,,,,,,,61157d9bcc5084cae1e75a86,2021-09-11_16h45.10.790,arrow_simon_vert,2021.1.2,MacIntel,59.99880002,,,,,,,,,,,down,2.9503,1,0,1,0,1,,,,,,,,,,,,,,,,,,,,,
,,,,,,,,,,,,,,,,,,,,,,,,,61157d9bcc5084cae1e75a86,2021-09-11_16h45.10.790,arrow_simon_vert,2021.1.2,MacIntel,59.99880002,,,,,,,,,,,left,2.7513,2,0,2,0,1,,,,,,,,,,,,,,,,,,,,,
,,,,,,,,,,,,,,,,,,,,,,,,,61157d9bcc5084cae1e75a86,2021-09-11_16h45.10.790,arrow_simon_vert,2021.1.2,MacIntel,59.99880002,,,,,,,,,,,right,2.6336,3,0,3,0,1,,,,,,,,,,,,,,,,,,,,,
,,,,,,,,,,,,,,,,,,,,,,,,,61157d9bcc5084cae1e75a86,2021-09-11_16h45.10.790,arrow_simon_vert,2021.1.2,MacIntel,59.99880002,,,,,,,,,,,left,2.8822,4,0,4,0,1,,,,,,,,,,,,,,,,,,,,,
,,,,,,,,,,,,,,,,,,,,,,,,,61157d9bcc5084cae1e75a86,2021-09-11_16h45.10.790,arrow_simon_vert,2021.1.2,MacIntel,59.99880002,,,,,,,,,,,up,2.7674,5,0,5,0,1,,,,,,,,,,,,,,,,,,,,,
,,,,,,,,,,,,,,,,,,,,,,,,,61157d9bcc5084cae1e75a86,2021-09-11_16h45.10.790,arrow_simon_vert,2021.1.2,MacIntel,59.99880002,,,,,,,,,,,right,2.7564,6,0,6,0,1,,,,,,,,,,,,,,,,,,,,,
,,,,,,,,,,,,,,,,,,,,,,,,,61157d9bcc5084cae1e75a86,2021-09-11_16h45.10.790,arrow_simon_vert,2021.1.2,MacIntel,59.99880002,,,,,,,,,,,down,2.6846,7,0,7,0,1,,,,,,,,,,,,,,,,,,,,,
,,,,,,,,,,,,,,,,,,,,,,,,,61157d9bcc5084cae1e75a86,2021-09-11_16h45.10.790,arrow_simon_vert,2021.1.2,MacIntel,59.99880002,,,,,,,,,,,left,2.7338,8,0,8,0,1,,,,,,,,,,,,,,,,,,,,,
,,,,,,,,,,,,,,,,,,,,,,,,,61157d9bcc5084cae1e75a86,2021-09-11_16h45.10.790,arrow_simon_vert,2021.1.2,MacIntel,59.99880002,,,,,,,,,,,up,2.7709,9,0,9,0,1,,,,,,,,,,,,,,,,,,,,,
,,,,,,,,,,,,,,,,,,,,,,,,,61157d9bcc5084cae1e75a86,2021-09-11_16h45.10.790,arrow_simon_vert,2021.1.2,MacIntel,59.99880002,,,,,,,,,,,right,2.7702,10,0,10,0,1,,,,,,,,,,,,,,,,,,,,,
,,,,,,,,,,,,,,,,,,,,,,,,,61157d9bcc5084cae1e75a86,2021-09-11_16h45.10.790,arrow_simon_vert,2021.1.2,MacIntel,59.99880002,,,,,,,,,,,left,2.6461,11,0,11,0,1,,,,,,,,,,,,,,,,,,,,,
,,,,,,,,,,,,,,,,,,,,,,,,,61157d9bcc5084cae1e75a86,2021-09-11_16h45.10.790,arrow_simon_vert,2021.1.2,MacIntel,59.99880002,,,,,,,,,,,down,2.8177,12,0,12,0,1,,,,,,,,,,,,,,,,,,,,,
,,,,,,,,,,,,,,,,,,,,,,,,,61157d9bcc5084cae1e75a86,2021-09-11_16h45.10.790,arrow_simon_vert,2021.1.2,MacIntel,59.99880002,,,,,,,,,,,right,2.7006,13,0,13,0,1,,,,,,,,,,,,,,,,,,,,,
,,,,,,,,,,,,,,,,,,,,,,,,,61157d9bcc5084cae1e75a86,2021-09-11_16h45.10.790,arrow_simon_vert,2021.1.2,MacIntel,59.99880002,,,,,,,,,,,left,2.6489,14,0,14,0,1,,,,,,,,,,,,,,,,,,,,,
,,,,,,,,,,,,,,,,,,,,,,,,,61157d9bcc5084cae1e75a86,2021-09-11_16h45.10.790,arrow_simon_vert,2021.1.2,MacIntel,59.99880002,,,,,,,,,,,down,2.7032,15,0,15,0,1,,,,,,,,,,,,,,,,,,,,,
,,,,,,,,,,,,,,,,,,,,,,,,,61157d9bcc5084cae1e75a86,2021-09-11_16h45.10.790,arrow_simon_vert,2021.1.2,MacIntel,59.99880002,,,,,,,,,,,right,2.7155,16,0,16,0,1,,,,,,,,,,,,,,,,,,,,,
,,,,,,,,,,,,,,,,,,,,,,,,,61157d9bcc5084cae1e75a86,2021-09-11_16h45.10.790,arrow_simon_vert,2021.1.2,MacIntel,59.99880002,,,,,,,,,,,up,2.7317,17,0,17,0,1,,,,,,,,,,,,,,,,,,,,,
,,,,,,,,,,,,,,,,,,,,,,,,,61157d9bcc5084cae1e75a86,2021-09-11_16h45.10.790,arrow_simon_vert,2021.1.2,MacIntel,59.99880002,,,,,,,,,,,left,2.6997,18,0,18,0,1,,,,,,,,,,,,,,,,,,,,,
,,,,,,,,,,,,,,,,,,,,,,,,,61157d9bcc5084cae1e75a86,2021-09-11_16h45.10.790,arrow_simon_vert,2021.1.2,MacIntel,59.99880002,,,,,,,,,,,down,2.7008,19,0,19,0,1,,,,,,,,,,,,,,,,,,,,,
,,,,,,,,,,,,,,,,,,,,,,,,,61157d9bcc5084cae1e75a86,2021-09-11_16h45.10.790,arrow_simon_vert,2021.1.2,MacIntel,59.99880002,,,,,,,,,,,right,2.7705,20,0,20,0,1,,,,,,,,,,,,,,,,,,,,,
,,,,,,,,,,,,,,,,,,,,,,,,,61157d9bcc5084cae1e75a86,2021-09-11_16h45.10.790,arrow_simon_vert,2021.1.2,MacIntel,59.99880002,,,,,,,,,,,up,2.7578,21,0,21,0,1,,,,,,,,,,,,,,,,,,,,,
,,,,,,,,,,,,,,,,,,,,,,,,,61157d9bcc5084cae1e75a86,2021-09-11_16h45.10.790,arrow_simon_vert,2021.1.2,MacIntel,59.99880002,,,,,,,,,,,left,2.798,22,0,22,0,1,,,,,,,,,,,,,,,,,,,,,
,,,,,,,,,,,,,,,,,,,,,,,,,61157d9bcc5084cae1e75a86,2021-09-11_16h45.10.790,arrow_simon_vert,2021.1.2,MacIntel,59.99880002,,,,,,,,,,,up,2.6507,23,0,23,0,1,,,,,,,,,,,,,,,,,,,,,
,,,,,,,,,,,,,,,,,,,,,,,,,61157d9bcc5084cae1e75a86,2021-09-11_16h45.10.790,arrow_simon_vert,2021.1.2,MacIntel,59.99880002,,,,,,,,,,,right,2.7514,24,0,24,0,1,,,,,,,,,,,,,,,,,,,,,
,,,,,,,,,,,,,,,,,,,,,,,,,61157d9bcc5084cae1e75a86,2021-09-11_16h45.10.790,arrow_simon_vert,2021.1.2,MacIntel,59.99880002,,,,,,,,,,,down,2.6848,25,0,25,0,1,,,,,,,,,,,,,,,,,,,,,
,,,,,,,,,,,,,,,,,,,,,,,,,61157d9bcc5084cae1e75a86,2021-09-11_16h45.10.790,arrow_simon_vert,2021.1.2,MacIntel,59.99880002,,,,,,,,,,,left,2.7176,26,0,26,0,1,,,,,,,,,,,,,,,,,,,,,
,,,,,,,,,,,,,,,,,,,,,,,,,61157d9bcc5084cae1e75a86,2021-09-11_16h45.10.790,arrow_simon_vert,2021.1.2,MacIntel,59.99880002,,,,,,,,,,,down,2.7326,27,0,27,0,1,,,,,,,,,,,,,,,,,,,,,
,,,,,,,,,,,,,,,,,,,,,,,,,61157d9bcc5084cae1e75a86,2021-09-11_16h45.10.790,arrow_simon_vert,2021.1.2,MacIntel,59.99880002,,,,,,,,,,,right,2.7059,28,0,28,0,1,,,,,,,,,,,,,,,,,,,,,
,,,,,,,,,,,,,,,,,,,,,,,,,61157d9bcc5084cae1e75a86,2021-09-11_16h45.10.790,arrow_simon_vert,2021.1.2,MacIntel,59.99880002,,,,,,,,,,,up,2.4567,29,0,29,0,1,,,,,,,,,,,,,,,,,,,,,
,,,,,,,,,,,,,,,,,,,,,,,,,61157d9bcc5084cae1e75a86,2021-09-11_16h45.10.790,arrow_simon_vert,2021.1.2,MacIntel,59.99880002,,,,,,,,,,,left,2.4325,30,0,30,0,1,,,,,,,,,,,,,,,,,,,,,
,,,,,,,,,,,,,,,,,,,,,,,,,61157d9bcc5084cae1e75a86,2021-09-11_16h45.10.790,arrow_simon_vert,2021.1.2,MacIntel,59.99880002,,,,,,,,,,,down,2.4554,31,0,31,0,1,,,,,,,,,,,,,,,,,,,,,
,,,,,,,,,,,,,,,,,,,,,,,,,61157d9bcc5084cae1e75a86,2021-09-11_16h45.10.790,arrow_simon_vert,2021.1.2,MacIntel,59.99880002,,,,,,,,,,,right,2.3584,32,0,32,0,1,,,,,,,,,,,,,,,,,,,,,
,,,,,,,,,,,,,,,,,,,,,,,,,61157d9bcc5084cae1e75a86,2021-09-11_16h45.10.790,arrow_simon_vert,2021.1.2,MacIntel,59.99880002,,,,,,,,,,,down,2.5155,33,0,33,0,1,,,,,,,,,,,,,,,,,,,,,
,,,,,,,,,,,,,,,,,,,,,,,,,61157d9bcc5084cae1e75a86,2021-09-11_16h45.10.790,arrow_simon_vert,2021.1.2,MacIntel,59.99880002,,,,,,,,,,,left,2.4214,34,0,34,0,1,,,,,,,,,,,,,,,,,,,,,
,,,,,,,,,,,,,,,,,,,,,,,,,61157d9bcc5084cae1e75a86,2021-09-11_16h45.10.790,arrow_simon_vert,2021.1.2,MacIntel,59.99880002,,,,,,,,,,,up,2.4698,35,0,35,0,1,,,,,,,,,,,,,,,,,,,,,
,,,,,,,,,,,,,,,,,,,,,,,,,61157d9bcc5084cae1e75a86,2021-09-11_16h45.10.790,arrow_simon_vert,2021.1.2,MacIntel,59.99880002,,,,,,,,,,,right,2.4009,36,0,36,0,1,,,,,,,,,,,,,,,,,,,,,
,,,,,,,,,,,,,,,,,,,,,,,,,61157d9bcc5084cae1e75a86,2021-09-11_16h45.10.790,arrow_simon_vert,2021.1.2,MacIntel,59.99880002,,,,,,,,,,,down,2.4733,37,0,37,0,1,,,,,,,,,,,,,,,,,,,,,
,,,,,,,,,,,,,,,,,,,,,,,,,61157d9bcc5084cae1e75a86,2021-09-11_16h45.10.790,arrow_simon_vert,2021.1.2,MacIntel,59.99880002,,,,,,,,,,,left,2.4515,38,0,38,0,1,,,,,,,,,,,,,,,,,,,,,
,,,,,,,,,,,,,,,,,,,,,,,,,61157d9bcc5084cae1e75a86,2021-09-11_16h45.10.790,arrow_simon_vert,2021.1.2,MacIntel,59.99880002,,,,,,,,,,,up,2.5843,39,0,39,0,1,,,,,,,,,,,,,,,,,,,,,
,,,,,,,,,,,,,,,,,,,,,,,,,61157d9bcc5084cae1e75a86,2021-09-11_16h45.10.790,arrow_simon_vert,2021.1.2,MacIntel,59.99880002,,,,,,,,,,,right,2.4569,40,0,40,0,1,,,,,,,,,,,,,,,,,,,,,
,,,,,,,,,,,,,,,,,,,,,,,,,61157d9bcc5084cae1e75a86,2021-09-11_16h45.10.790,arrow_simon_vert,2021.1.2,MacIntel,59.99880002,,,,,,,,,,,down,2.4854,41,0,41,0,1,,,,,,,,,,,,,,,,,,,,,
,,,,,,,,,,,,,,,,,,,,,,,,,61157d9bcc5084cae1e75a86,2021-09-11_16h45.10.790,arrow_simon_vert,2021.1.2,MacIntel,59.99880002,,,,,,,,,,,left,2.4487,42,0,42,0,1,,,,,,,,,,,,,,,,,,,,,
,,,,,,,,,,,,,,,,,,,,,,,,,61157d9bcc5084cae1e75a86,2021-09-11_16h45.10.790,arrow_simon_vert,2021.1.2,MacIntel,59.99880002,,,,,,,,,,,down,2.5214,43,0,43,0,1,,,,,,,,,,,,,,,,,,,,,
,,,,,,,,,,,,,,,,,,,,,,,,,61157d9bcc5084cae1e75a86,2021-09-11_16h45.10.790,arrow_simon_vert,2021.1.2,MacIntel,59.99880002,,,,,,,,,,,right,2.569,44,0,44,0,1,,,,,,,,,,,,,,,,,,,,,
,,,,,,,,,,,,,,,,,,,,,,,,,61157d9bcc5084cae1e75a86,2021-09-11_16h45.10.790,arrow_simon_vert,2021.1.2,MacIntel,59.99880002,,,,,,,,,,,up,2.5016,45,0,45,0,1,,,,,,,,,,,,,,,,,,,,,
,,,,,,,,,,,,,,,,,,,,,,,,,61157d9bcc5084cae1e75a86,2021-09-11_16h45.10.790,arrow_simon_vert,2021.1.2,MacIntel,59.99880002,,,,,,,,,,,left,2.5176,46,0,46,0,1,,,,,,,,,,,,,,,,,,,,,
,,,,,,,,,,,,,,,,,,,,,,,,,61157d9bcc5084cae1e75a86,2021-09-11_16h45.10.790,arrow_simon_vert,2021.1.2,MacIntel,59.99880002,,,,,,,,,,,down,2.5575,47,0,47,0,1,,,,,,,,,,,,,,,,,,,,,
,,,,,,,,,,,,,,,,,,,,,,,,,61157d9bcc5084cae1e75a86,2021-09-11_16h45.10.790,arrow_simon_vert,2021.1.2,MacIntel,59.99880002,,,,,,,,,,,right,2.4812,48,0,48,0,1,,,,,,,,,,,,,,,,,,,,,
,,,,,,,,,,,,,,,,,,,,,,,,,61157d9bcc5084cae1e75a86,2021-09-11_16h45.10.790,arrow_simon_vert,2021.1.2,MacIntel,59.99880002,,,,,,,,,,,up,2.5747,49,0,49,0,1,,,,,,,,,,,,,,,,,,,,,
,,,,,,,,,,,,,,,,,,,,,,,,,61157d9bcc5084cae1e75a86,2021-09-11_16h45.10.790,arrow_simon_vert,2021.1.2,MacIntel,59.99880002,,,,,,,,,,,left,2.48,50,0,50,0,1,,,,,,,,,,,,,,,,,,,,,
,,,,,,,,,,,,,,,,,,,,,,,,,61157d9bcc5084cae1e75a86,2021-09-11_16h45.10.790,arrow_simon_vert,2021.1.2,MacIntel,59.99880002,,,,,,,,,,,down,2.5208,51,0,51,0,1,,,,,,,,,,,,,,,,,,,,,
,,,,,,,,,,,,,,,,,,,,,,,,,61157d9bcc5084cae1e75a86,2021-09-11_16h45.10.790,arrow_simon_vert,2021.1.2,MacIntel,59.99880002,,,,,,,,,,,right,2.6915,52,0,52,0,1,,,,,,,,,,,,,,,,,,,,,
,,,,,,,,,,,,,,,,,,,,,,,,,61157d9bcc5084cae1e75a86,2021-09-11_16h45.10.790,arrow_simon_vert,2021.1.2,MacIntel,59.99880002,,,,,,,,,,,up,2.5842,53,0,53,0,1,,,,,,,,,,,,,,,,,,,,,
,,,,,,,,,,,,,,,,,,,,,,,,,61157d9bcc5084cae1e75a86,2021-09-11_16h45.10.790,arrow_simon_vert,2021.1.2,MacIntel,59.99880002,,,,,,,,,,,left,2.5167,54,0,54,0,1,,,,,,,,,,,,,,,,,,,,,
,,,,,,,,,,,,,,,,,,,,,,,,,61157d9bcc5084cae1e75a86,2021-09-11_16h45.10.790,arrow_simon_vert,2021.1.2,MacIntel,59.99880002,,,,,,,,,,,down,2.3866,55,0,55,0,1,,,,,,,,,,,,,,,,,,,,,
,,,,,,,,,,,,,,,,,,,,,,,,,61157d9bcc5084cae1e75a86,2021-09-11_16h45.10.790,arrow_simon_vert,2021.1.2,MacIntel,59.99880002,,,,,,,,,,,right,2.4677,56,0,56,0,1,,,,,,,,,,,,,,,,,,,,,
,,,,,,,,,,,,,,,,,,,,,,,,,61157d9bcc5084cae1e75a86,2021-09-11_16h45.10.790,arrow_simon_vert,2021.1.2,MacIntel,59.99880002,,,,,,,,,,,up,2.5228,57,0,57,0,1,,,,,,,,,,,,,,,,,,,,,
,,,,,,,,,,,,,,,,,,,,,,,,,61157d9bcc5084cae1e75a86,2021-09-11_16h45.10.790,arrow_simon_vert,2021.1.2,MacIntel,59.99880002,,,,,,,,,,,left,2.4523,58,0,58,0,1,,,,,,,,,,,,,,,,,,,,,
,,,,,,,,,,,,,,,,,,,,,,,,,61157d9bcc5084cae1e75a86,2021-09-11_16h45.10.790,arrow_simon_vert,2021.1.2,MacIntel,59.99880002,,,,,,,,,,,down,2.6154,59,0,59,0,1,,,,,,,,,,,,,,,,,,,,,
,,,,,,1,2.40241533,#a3d0fb,"[""0.25"",""0""]",left_blue.png,left,,,,,,,,left,left_blue.png,down_orange.png,down,right,up,61157d9bcc5084cae1e75a86,2021-09-11_16h45.10.790,arrow_simon_vert,2021.1.2,MacIntel,59.99880002,,,,,,,,,,,,,,,,,,space,0,26.2973,up,0,1.5855,1,FALSE,FALSE,0,0,0,3,1,,,,,,,
,,,,,,1,2.335980785,#f3af84,"[""0"",""-0.25""]",down_orange.png,down,,,,,,,,left,left_blue.png,down_orange.png,down,left,down,61157d9bcc5084cae1e75a86,2021-09-11_16h45.10.790,arrow_simon_vert,2021.1.2,MacIntel,59.99880002,,,,,,,,,,,,,,,,,,,,,down,1,1.8344,2,TRUE,FALSE,0,1,1,2,1,,,,,,,
,,,,,,1,2.096830394,#a3d0fb,"[""-0.25"",""0""]",right_blue.png,right,,,,,,,,right,right_blue.png,up_orange.png,up,left,down,61157d9bcc5084cae1e75a86,2021-09-11_16h45.10.790,arrow_simon_vert,2021.1.2,MacIntel,59.99880002,,,,,,,,,,,,,,,,,,,,,left,0,1.4548,3,FALSE,FALSE,0,2,2,0,1,,,,,,,
,,,,,,1,1.693884636,#f3af84,"[""0"",""0.25""]",up_orange.png,up,,,,,,,,right,right_blue.png,up_orange.png,up,right,up,61157d9bcc5084cae1e75a86,2021-09-11_16h45.10.790,arrow_simon_vert,2021.1.2,MacIntel,59.99880002,,,,,,,,,,,,,,,,,,,,,up,1,1.3354,4,FALSE,TRUE,0,3,3,1,1,,,,,,,
,,,,,,1,2.247708917,#a3d0fb,"[""0.25"",""0""]",left_blue.png,left,,,,,,,,left,left_blue.png,down_orange.png,down,right,up,61157d9bcc5084cae1e75a86,2021-09-11_16h45.10.790,arrow_simon_vert,2021.1.2,MacIntel,59.99880002,,,,,,,,,,,,,,,,,,,,,left,1,1.723,5,TRUE,FALSE,1,0,4,3,1,,,,,,,
,,,,,,1,2.212693951,#f3af84,"[""0"",""0.25""]",down_orange.png,down,,,,,,,,left,left_blue.png,down_orange.png,down,right,up,61157d9bcc5084cae1e75a86,2021-09-11_16h45.10.790,arrow_simon_vert,2021.1.2,MacIntel,59.99880002,,,,,,,,,,,,,,,,,,,,,up,0,1.6354,6,TRUE,FALSE,1,1,5,3,1,,,,,,,
,,,,,,1,1.762511651,#a3d0fb,"[""0.25"",""0""]",right_blue.png,right,,,,,,,,right,right_blue.png,up_orange.png,up,right,up,61157d9bcc5084cae1e75a86,2021-09-11_16h45.10.790,arrow_simon_vert,2021.1.2,MacIntel,59.99880002,,,,,,,,,,,,,,,,,,,,,right,1,1.161,7,FALSE,TRUE,1,2,6,1,1,,,,,,,
,,,,,,1,2.224505668,#f3af84,"[""0"",""-0.25""]",down_orange.png,down,,,,,,,,left,left_blue.png,down_orange.png,down,left,down,61157d9bcc5084cae1e75a86,2021-09-11_16h45.10.790,arrow_simon_vert,2021.1.2,MacIntel,59.99880002,,,,,,,,,,,,,,,,,,,,,down,1,1.6902,8,TRUE,FALSE,1,3,7,2,1,,,,,,,
,,,,,,0,1.776264174,#a3d0fb,"[""0.25"",""0""]",right_blue.png,right,,,,,,,,right,right_blue.png,up_orange.png,up,right,up,61157d9bcc5084cae1e75a86,2021-09-11_16h45.10.790,arrow_simon_vert,2021.1.2,MacIntel,59.99880002,,,,,,,,,,,,,,,,,,,,,right,1,1.5538,9,FALSE,FALSE,2,0,8,1,1,,,,,,,
,,,,,,0,2.228933315,#f3af84,"[""0"",""-0.25""]",up_orange.png,up,,,,,,,,right,right_blue.png,up_orange.png,up,left,down,61157d9bcc5084cae1e75a86,2021-09-11_16h45.10.790,arrow_simon_vert,2021.1.2,MacIntel,59.99880002,,,,,,,,,,,,,,,,,,,,,up,1,1.7584,10,TRUE,FALSE,2,1,9,0,1,,,,,,,
,,,,,,0,1.841448149,#a3d0fb,"[""-0.25"",""0""]",left_blue.png,left,,,,,,,,left,left_blue.png,down_orange.png,down,left,down,61157d9bcc5084cae1e75a86,2021-09-11_16h45.10.790,arrow_simon_vert,2021.1.2,MacIntel,59.99880002,,,,,,,,,,,,,,,,,,,,,left,1,1.5042,11,FALSE,FALSE,2,2,10,2,1,,,,,,,
,,,,,,0,2.134983898,#f3af84,"[""0"",""0.25""]",up_orange.png,up,,,,,,,,right,right_blue.png,up_orange.png,up,right,up,61157d9bcc5084cae1e75a86,2021-09-11_16h45.10.790,arrow_simon_vert,2021.1.2,MacIntel,59.99880002,,,,,,,,,,,,,,,,,,,,,up,1,1.66,12,TRUE,FALSE,2,3,11,1,1,,,,,,,
,,,,,,0,1.590191833,#a3d0fb,"[""0.25"",""0""]",left_blue.png,left,,,,,,,,left,left_blue.png,down_orange.png,down,right,up,61157d9bcc5084cae1e75a86,2021-09-11_16h45.10.790,arrow_simon_vert,2021.1.2,MacIntel,59.99880002,,,,,,,,,,,,,,,,,,,,,left,1,1.4068,13,FALSE,FALSE,3,0,12,3,1,,,,,,,
,,,,,,0,2.00808685,#f3af84,"[""0"",""0.25""]",down_orange.png,down,,,,,,,,left,left_blue.png,down_orange.png,down,right,up,61157d9bcc5084cae1e75a86,2021-09-11_16h45.10.790,arrow_simon_vert,2021.1.2,MacIntel,59.99880002,,,,,,,,,,,,,,,,,,,,,down,1,1.5841,14,FALSE,FALSE,3,1,13,3,1,,,,,,,
,,,,,,0,2.012917222,#a3d0fb,"[""-0.25"",""0""]",left_blue.png,left,,,,,,,,left,left_blue.png,down_orange.png,down,left,down,61157d9bcc5084cae1e75a86,2021-09-11_16h45.10.790,arrow_simon_vert,2021.1.2,MacIntel,59.99880002,,,,,,,,,,,,,,,,,,,,,left,1,1.5678,15,FALSE,FALSE,3,2,14,2,1,,,,,,,
,,,,,,0,1.551127789,#f3af84,"[""0"",""-0.25""]",up_orange.png,up,,,,,,,,right,right_blue.png,up_orange.png,up,left,down,61157d9bcc5084cae1e75a86,2021-09-11_16h45.10.790,arrow_simon_vert,2021.1.2,MacIntel,59.99880002,,,,,,,,,,,,,,,,,,,,,up,1,1.4716,16,FALSE,FALSE,3,3,15,0,1,,,,,,,
,,,,,,0,1.781956324,#a3d0fb,"[""0.25"",""0""]",right_blue.png,right,,,,,,,,right,right_blue.png,up_orange.png,up,right,up,61157d9bcc5084cae1e75a86,2021-09-11_16h45.10.790,arrow_simon_vert,2021.1.2,MacIntel,59.99880002,,,,,,,,,,,,,,,,,,,,,right,1,1.4845,17,FALSE,FALSE,4,0,16,1,1,,,,,,,
,,,,,,0,1.899851217,#f3af84,"[""0"",""-0.25""]",up_orange.png,up,,,,,,,,right,right_blue.png,up_orange.png,up,left,down,61157d9bcc5084cae1e75a86,2021-09-11_16h45.10.790,arrow_simon_vert,2021.1.2,MacIntel,59.99880002,,,,,,,,,,,,,,,,,,,,,up,1,1.6219,18,TRUE,FALSE,4,1,17,0,1,,,,,,,
,,,,,,0,2.04379229,#a3d0fb,"[""-0.25"",""0""]",left_blue.png,left,,,,,,,,left,left_blue.png,down_orange.png,down,left,down,61157d9bcc5084cae1e75a86,2021-09-11_16h45.10.790,arrow_simon_vert,2021.1.2,MacIntel,59.99880002,,,,,,,,,,,,,,,,,,,,,left,1,1.6066,19,TRUE,FALSE,4,2,18,2,1,,,,,,,
,,,,,,0,1.547163154,#f3af84,"[""0"",""-0.25""]",up_orange.png,up,,,,,,,,right,right_blue.png,up_orange.png,up,left,down,61157d9bcc5084cae1e75a86,2021-09-11_16h45.10.790,arrow_simon_vert,2021.1.2,MacIntel,59.99880002,,,,,,,,,,,,,,,,,,,,,up,1,1.4092,20,FALSE,FALSE,4,3,19,0,1,,,,,,,
,,,,,,0,1.715907316,#a3d0fb,"[""0.25"",""0""]",right_blue.png,right,,,,,,,,right,right_blue.png,up_orange.png,up,right,up,61157d9bcc5084cae1e75a86,2021-09-11_16h45.10.790,arrow_simon_vert,2021.1.2,MacIntel,59.99880002,,,,,,,,,,,,,,,,,,,,,right,1,1.453,21,FALSE,FALSE,5,0,20,1,1,,,,,,,
,,,,,,0,2.006994962,#f3af84,"[""0"",""0.25""]",up_orange.png,up,,,,,,,,right,right_blue.png,up_orange.png,up,right,up,61157d9bcc5084cae1e75a86,2021-09-11_16h45.10.790,arrow_simon_vert,2021.1.2,MacIntel,59.99880002,,,,,,,,,,,,,,,,,,,,,up,1,1.5893,22,FALSE,FALSE,5,1,21,1,1,,,,,,,
,,,,,,0,1.899095004,#a3d0fb,"[""-0.25"",""0""]",right_blue.png,right,,,,,,,,right,right_blue.png,up_orange.png,up,left,down,61157d9bcc5084cae1e75a86,2021-09-11_16h45.10.790,arrow_simon_vert,2021.1.2,MacIntel,59.99880002,,,,,,,,,,,,,,,,,,,,,right,1,1.4702,23,FALSE,FALSE,5,2,22,0,1,,,,,,,
,,,,,,0,1.62246913,#f3af84,"[""0"",""-0.25""]",down_orange.png,down,,,,,,,,left,left_blue.png,down_orange.png,down,left,down,61157d9bcc5084cae1e75a86,2021-09-11_16h45.10.790,arrow_simon_vert,2021.1.2,MacIntel,59.99880002,,,,,,,,,,,,,,,,,,,,,down,1,1.4888,24,FALSE,FALSE,5,3,23,2,1,,,,,,,
,,,,,,0,2.07830954,#a3d0fb,"[""0.25"",""0""]",right_blue.png,right,,,,,,,,right,right_blue.png,up_orange.png,up,right,up,61157d9bcc5084cae1e75a86,2021-09-11_16h45.10.790,arrow_simon_vert,2021.1.2,MacIntel,59.99880002,,,,,,,,,,,,,,,,,,,,,right,1,1.47,25,FALSE,FALSE,6,0,24,1,1,,,,,,,
,,,,,,0,2.118879585,#f3af84,"[""0"",""0.25""]",up_orange.png,up,,,,,,,,right,right_blue.png,up_orange.png,up,right,up,61157d9bcc5084cae1e75a86,2021-09-11_16h45.10.790,arrow_simon_vert,2021.1.2,MacIntel,59.99880002,,,,,,,,,,,,,,,,,,,,,up,1,1.5918,26,FALSE,FALSE,6,1,25,1,1,,,,,,,
,,,,,,0,2.060755678,#a3d0fb,"[""-0.25"",""0""]",left_blue.png,left,,,,,,,,left,left_blue.png,down_orange.png,down,left,down,61157d9bcc5084cae1e75a86,2021-09-11_16h45.10.790,arrow_simon_vert,2021.1.2,MacIntel,59.99880002,,,,,,,,,,,,,,,,,,,,,left,1,1.6041,27,TRUE,FALSE,6,2,26,2,1,,,,,,,
,,,,,,0,1.688601969,#f3af84,"[""0"",""0.25""]",up_orange.png,up,,,,,,,,right,right_blue.png,up_orange.png,up,right,up,61157d9bcc5084cae1e75a86,2021-09-11_16h45.10.790,arrow_simon_vert,2021.1.2,MacIntel,59.99880002,,,,,,,,,,,,,,,,,,,,,up,1,1.3709,28,FALSE,TRUE,6,3,27,1,1,,,,,,,
,,,,,,0,2.393646555,#a3d0fb,"[""-0.25"",""0""]",left_blue.png,left,,,,,,,,left,left_blue.png,down_orange.png,down,left,down,61157d9bcc5084cae1e75a86,2021-09-11_16h45.10.790,arrow_simon_vert,2021.1.2,MacIntel,59.99880002,,,,,,,,,,,,,,,,,,,,,left,1,1.7538,29,TRUE,FALSE,7,0,28,2,1,,,,,,,
,,,,,,0,2.195292374,#f3af84,"[""0"",""0.25""]",down_orange.png,down,,,,,,,,left,left_blue.png,down_orange.png,down,right,up,61157d9bcc5084cae1e75a86,2021-09-11_16h45.10.790,arrow_simon_vert,2021.1.2,MacIntel,59.99880002,,,,,,,,,,,,,,,,,,,,,down,1,1.721,30,TRUE,FALSE,7,1,29,3,1,,,,,,,
,,,,,,0,1.654785497,#a3d0fb,"[""-0.25"",""0""]",right_blue.png,right,,,,,,,,right,right_blue.png,up_orange.png,up,left,down,61157d9bcc5084cae1e75a86,2021-09-11_16h45.10.790,arrow_simon_vert,2021.1.2,MacIntel,59.99880002,,,,,,,,,,,,,,,,,,,,,right,1,1.5305,31,FALSE,FALSE,7,2,30,0,1,,,,,,,
,,,,,,0,1.756836414,#f3af84,"[""0"",""0.25""]",up_orange.png,up,,,,,,,,right,right_blue.png,up_orange.png,up,right,up,61157d9bcc5084cae1e75a86,2021-09-11_16h45.10.790,arrow_simon_vert,2021.1.2,MacIntel,59.99880002,,,,,,,,,,,,,,,,,,,,,up,1,1.4609,32,FALSE,FALSE,7,3,31,1,1,,,,,,,
,,,,,,0,1.830335213,#a3d0fb,"[""-0.25"",""0""]",left_blue.png,left,,,,,,,,left,left_blue.png,down_orange.png,down,left,down,61157d9bcc5084cae1e75a86,2021-09-11_16h45.10.790,arrow_simon_vert,2021.1.2,MacIntel,59.99880002,,,,,,,,,,,,,,,,,,,,,left,1,1.4528,33,FALSE,FALSE,8,0,32,2,1,,,,,,,
,,,,,,0,2.018347569,#f3af84,"[""0"",""-0.25""]",down_orange.png,down,,,,,,,,left,left_blue.png,down_orange.png,down,left,down,61157d9bcc5084cae1e75a86,2021-09-11_16h45.10.790,arrow_simon_vert,2021.1.2,MacIntel,59.99880002,,,,,,,,,,,,,,,,,,,,,down,1,1.5364,34,FALSE,FALSE,8,1,33,2,1,,,,,,,
,,,,,,0,1.974077828,#a3d0fb,"[""-0.25"",""0""]",right_blue.png,right,,,,,,,,right,right_blue.png,up_orange.png,up,left,down,61157d9bcc5084cae1e75a86,2021-09-11_16h45.10.790,arrow_simon_vert,2021.1.2,MacIntel,59.99880002,,,,,,,,,,,,,,,,,,,,,right,1,1.4748,35,FALSE,FALSE,8,2,34,0,1,,,,,,,
,,,,,,0,1.947912824,#f3af84,"[""0"",""0.25""]",down_orange.png,down,,,,,,,,left,left_blue.png,down_orange.png,down,right,up,61157d9bcc5084cae1e75a86,2021-09-11_16h45.10.790,arrow_simon_vert,2021.1.2,MacIntel,59.99880002,,,,,,,,,,,,,,,,,,,,,down,1,1.5209,36,FALSE,FALSE,8,3,35,3,1,,,,,,,
,,,,,,0,2.032407734,#a3d0fb,"[""0.25"",""0""]",left_blue.png,left,,,,,,,,left,left_blue.png,down_orange.png,down,right,up,61157d9bcc5084cae1e75a86,2021-09-11_16h45.10.790,arrow_simon_vert,2021.1.2,MacIntel,59.99880002,,,,,,,,,,,,,,,,,,,,,left,1,1.5233,37,FALSE,FALSE,9,0,36,3,1,,,,,,,
,,,,,,0,1.694989078,#f3af84,"[""0"",""-0.25""]",up_orange.png,up,,,,,,,,right,right_blue.png,up_orange.png,up,left,down,61157d9bcc5084cae1e75a86,2021-09-11_16h45.10.790,arrow_simon_vert,2021.1.2,MacIntel,59.99880002,,,,,,,,,,,,,,,,,,,,,up,1,1.4915,38,FALSE,FALSE,9,1,37,0,1,,,,,,,
,,,,,,0,1.541424524,#a3d0fb,"[""0.25"",""0""]",right_blue.png,right,,,,,,,,right,right_blue.png,up_orange.png,up,right,up,61157d9bcc5084cae1e75a86,2021-09-11_16h45.10.790,arrow_simon_vert,2021.1.2,MacIntel,59.99880002,,,,,,,,,,,,,,,,,,,,,right,1,1.2023,39,FALSE,TRUE,9,2,38,1,1,,,,,,,
,,,,,,0,2.440839589,#f3af84,"[""0"",""-0.25""]",up_orange.png,up,,,,,,,,right,right_blue.png,up_orange.png,up,left,down,61157d9bcc5084cae1e75a86,2021-09-11_16h45.10.790,arrow_simon_vert,2021.1.2,MacIntel,59.99880002,,,,,,,,,,,,,,,,,,,,,up,1,1.9381,40,TRUE,FALSE,9,3,39,0,1,,,,,,,
,,,,,,0,1.94198119,#a3d0fb,"[""-0.25"",""0""]",left_blue.png,left,,,,,,,,left,left_blue.png,down_orange.png,down,left,down,61157d9bcc5084cae1e75a86,2021-09-11_16h45.10.790,arrow_simon_vert,2021.1.2,MacIntel,59.99880002,,,,,,,,,,,,,,,,,,,,,left,1,1.5708,41,FALSE,FALSE,10,0,40,2,1,,,,,,,
,,,,,,0,2.033421572,#f3af84,"[""0"",""-0.25""]",up_orange.png,up,,,,,,,,right,right_blue.png,up_orange.png,up,left,down,61157d9bcc5084cae1e75a86,2021-09-11_16h45.10.790,arrow_simon_vert,2021.1.2,MacIntel,59.99880002,,,,,,,,,,,,,,,,,,,,,up,1,1.6599,42,TRUE,FALSE,10,1,41,0,1,,,,,,,
,,,,,,0,2.17941523,#a3d0fb,"[""-0.25"",""0""]",left_blue.png,left,,,,,,,,left,left_blue.png,down_orange.png,down,left,down,61157d9bcc5084cae1e75a86,2021-09-11_16h45.10.790,arrow_simon_vert,2021.1.2,MacIntel,59.99880002,,,,,,,,,,,,,,,,,,,,,left,1,1.685,43,TRUE,FALSE,10,2,42,2,1,,,,,,,
,,,,,,0,1.97925884,#f3af84,"[""0"",""0.25""]",down_orange.png,down,,,,,,,,left,left_blue.png,down_orange.png,down,right,up,61157d9bcc5084cae1e75a86,2021-09-11_16h45.10.790,arrow_simon_vert,2021.1.2,MacIntel,59.99880002,,,,,,,,,,,,,,,,,,,,,down,1,1.5354,44,FALSE,FALSE,10,3,43,3,1,,,,,,,
,,,,,,0,2.46906792,#a3d0fb,"[""0.25"",""0""]",left_blue.png,left,,,,,,,,left,left_blue.png,down_orange.png,down,right,up,61157d9bcc5084cae1e75a86,2021-09-11_16h45.10.790,arrow_simon_vert,2021.1.2,MacIntel,59.99880002,,,,,,,,,,,,,,,,,,,,,right,0,1.8517,45,TRUE,FALSE,11,0,44,3,1,,,,,,,
,,,,,,0,1.921067393,#f3af84,"[""0"",""-0.25""]",up_orange.png,up,,,,,,,,right,right_blue.png,up_orange.png,up,left,down,61157d9bcc5084cae1e75a86,2021-09-11_16h45.10.790,arrow_simon_vert,2021.1.2,MacIntel,59.99880002,,,,,,,,,,,,,,,,,,,,,up,1,1.5422,46,FALSE,FALSE,11,1,45,0,1,,,,,,,
,,,,,,0,2.190110713,#a3d0fb,"[""-0.25"",""0""]",right_blue.png,right,,,,,,,,right,right_blue.png,up_orange.png,up,left,down,61157d9bcc5084cae1e75a86,2021-09-11_16h45.10.790,arrow_simon_vert,2021.1.2,MacIntel,59.99880002,,,,,,,,,,,,,,,,,,,,,right,1,1.6567,47,TRUE,FALSE,11,2,46,0,1,,,,,,,
,,,,,,0,2.303783372,#f3af84,"[""0"",""0.25""]",down_orange.png,down,,,,,,,,left,left_blue.png,down_orange.png,down,right,up,61157d9bcc5084cae1e75a86,2021-09-11_16h45.10.790,arrow_simon_vert,2021.1.2,MacIntel,59.99880002,,,,,,,,,,,,,,,,,,,,,up,0,1.7413,48,TRUE,FALSE,11,3,47,3,1,,,,,,,
,,,,,,0,2.454346172,#a3d0fb,"[""0.25"",""0""]",left_blue.png,left,,,,,,,,left,left_blue.png,down_orange.png,down,right,up,61157d9bcc5084cae1e75a86,2021-09-11_16h45.10.790,arrow_simon_vert,2021.1.2,MacIntel,59.99880002,,,,,,,,,,,,,,,,,,,,,left,1,1.8579,49,TRUE,FALSE,12,0,48,3,1,,,,,,,
,,,,,,0,2.023688496,#f3af84,"[""0"",""0.25""]",up_orange.png,up,,,,,,,,right,right_blue.png,up_orange.png,up,right,up,61157d9bcc5084cae1e75a86,2021-09-11_16h45.10.790,arrow_simon_vert,2021.1.2,MacIntel,59.99880002,,,,,,,,,,,,,,,,,,,,,up,1,1.5189,50,FALSE,FALSE,12,1,49,1,1,,,,,,,
,,,,,,0,2.247238048,#a3d0fb,"[""0.25"",""0""]",left_blue.png,left,,,,,,,,left,left_blue.png,down_orange.png,down,right,up,61157d9bcc5084cae1e75a86,2021-09-11_16h45.10.790,arrow_simon_vert,2021.1.2,MacIntel,59.99880002,,,,,,,,,,,,,,,,,,,,,left,1,1.7168,51,TRUE,FALSE,12,2,50,3,1,,,,,,,
,,,,,,0,2.154653193,#f3af84,"[""0"",""0.25""]",up_orange.png,up,,,,,,,,right,right_blue.png,up_orange.png,up,right,up,61157d9bcc5084cae1e75a86,2021-09-11_16h45.10.790,arrow_simon_vert,2021.1.2,MacIntel,59.99880002,,,,,,,,,,,,,,,,,,,,,up,1,1.5598,52,FALSE,FALSE,12,3,51,1,1,,,,,,,
,,,,,,0,1.649200322,#a3d0fb,"[""0.25"",""0""]",right_blue.png,right,,,,,,,,right,right_blue.png,up_orange.png,up,right,up,61157d9bcc5084cae1e75a86,2021-09-11_16h45.10.790,arrow_simon_vert,2021.1.2,MacIntel,59.99880002,,,,,,,,,,,,,,,,,,,,,right,1,1.3832,53,FALSE,TRUE,13,0,52,1,1,,,,,,,
,,,,,,0,1.515783075,#f3af84,"[""0"",""0.25""]",down_orange.png,down,,,,,,,,left,left_blue.png,down_orange.png,down,right,up,61157d9bcc5084cae1e75a86,2021-09-11_16h45.10.790,arrow_simon_vert,2021.1.2,MacIntel,59.99880002,,,,,,,,,,,,,,,,,,,,,down,1,1.5397,54,FALSE,FALSE,13,1,53,3,1,,,,,,,
,,,,,,0,2.493795354,#a3d0fb,"[""-0.25"",""0""]",right_blue.png,right,,,,,,,,right,right_blue.png,up_orange.png,up,left,down,61157d9bcc5084cae1e75a86,2021-09-11_16h45.10.790,arrow_simon_vert,2021.1.2,MacIntel,59.99880002,,,,,,,,,,,,,,,,,,,,,right,1,2.2525,55,TRUE,FALSE,13,2,54,0,1,,,,,,,
,,,,,,0,1.549716068,#f3af84,"[""0"",""-0.25""]",down_orange.png,down,,,,,,,,left,left_blue.png,down_orange.png,down,left,down,61157d9bcc5084cae1e75a86,2021-09-11_16h45.10.790,arrow_simon_vert,2021.1.2,MacIntel,59.99880002,,,,,,,,,,,,,,,,,,,,,down,1,1.5344,56,FALSE,FALSE,13,3,55,2,1,,,,,,,
,,,,,,0,1.85009947,#a3d0fb,"[""-0.25"",""0""]",right_blue.png,right,,,,,,,,right,right_blue.png,up_orange.png,up,left,down,61157d9bcc5084cae1e75a86,2021-09-11_16h45.10.790,arrow_simon_vert,2021.1.2,MacIntel,59.99880002,,,,,,,,,,,,,,,,,,,,,right,1,1.6856,57,TRUE,FALSE,14,0,56,0,1,,,,,,,
,,,,,,0,1.856850779,#f3af84,"[""0"",""-0.25""]",down_orange.png,down,,,,,,,,left,left_blue.png,down_orange.png,down,left,down,61157d9bcc5084cae1e75a86,2021-09-11_16h45.10.790,arrow_simon_vert,2021.1.2,MacIntel,59.99880002,,,,,,,,,,,,,,,,,,,,,down,1,1.5395,58,FALSE,FALSE,14,1,57,2,1,,,,,,,
,,,,,,0,1.600061361,#a3d0fb,"[""0.25"",""0""]",left_blue.png,left,,,,,,,,left,left_blue.png,down_orange.png,down,right,up,61157d9bcc5084cae1e75a86,2021-09-11_16h45.10.790,arrow_simon_vert,2021.1.2,MacIntel,59.99880002,,,,,,,,,,,,,,,,,,,,,left,1,1.4736,59,FALSE,FALSE,14,2,58,3,1,,,,,,,
,,,,,,0,1.96188606,#f3af84,"[""0"",""-0.25""]",down_orange.png,down,,,,,,,,left,left_blue.png,down_orange.png,down,left,down,61157d9bcc5084cae1e75a86,2021-09-11_16h45.10.790,arrow_simon_vert,2021.1.2,MacIntel,59.99880002,,,,,,,,,,,,,,,,,,,,,down,1,1.5836,60,FALSE,FALSE,14,3,59,2,1,,,,,,,
,,,,,,,,,,,,,,,,,,,,,,,,,61157d9bcc5084cae1e75a86,2021-09-11_16h45.10.790,arrow_simon_vert,2021.1.2,MacIntel,59.99880002,,,,,,,,,,,,,,,,,,,,,,,,,,,,,,,,space,39.8023,0,0,0,0,1
,,,,,,0,2.254362501,#a3d0fb,"[""-0.25"",""0""]",left_blue.png,left,,,,,,,,left,left_blue.png,down_orange.png,down,left,down,61157d9bcc5084cae1e75a86,2021-09-11_16h45.10.790,arrow_simon_vert,2021.1.2,MacIntel,59.99880002,,,,,,,,,,,,,,,,,,,,,left,1,1.686,1,TRUE,FALSE,0,0,0,2,1,,,,,,,
,,,,,,0,2.241520363,#f3af84,"[""0"",""0.25""]",up_orange.png,up,,,,,,,,right,right_blue.png,up_orange.png,up,right,up,61157d9bcc5084cae1e75a86,2021-09-11_16h45.10.790,arrow_simon_vert,2021.1.2,MacIntel,59.99880002,,,,,,,,,,,,,,,,,,,,,up,1,1.6365,2,TRUE,FALSE,0,1,1,1,1,,,,,,,
,,,,,,0,1.799500019,#a3d0fb,"[""-0.25"",""0""]",right_blue.png,right,,,,,,,,right,right_blue.png,up_orange.png,up,left,down,61157d9bcc5084cae1e75a86,2021-09-11_16h45.10.790,arrow_simon_vert,2021.1.2,MacIntel,59.99880002,,,,,,,,,,,,,,,,,,,,,right,1,1.4846,3,FALSE,FALSE,0,2,2,0,1,,,,,,,
,,,,,,0,1.749601047,#f3af84,"[""0"",""0.25""]",up_orange.png,up,,,,,,,,right,right_blue.png,up_orange.png,up,right,up,61157d9bcc5084cae1e75a86,2021-09-11_16h45.10.790,arrow_simon_vert,2021.1.2,MacIntel,59.99880002,,,,,,,,,,,,,,,,,,,,,up,1,1.5871,4,FALSE,FALSE,0,3,3,1,1,,,,,,,
,,,,,,0,1.505517067,#a3d0fb,"[""0.25"",""0""]",left_blue.png,left,,,,,,,,left,left_blue.png,down_orange.png,down,right,up,61157d9bcc5084cae1e75a86,2021-09-11_16h45.10.790,arrow_simon_vert,2021.1.2,MacIntel,59.99880002,,,,,,,,,,,,,,,,,,,,,left,1,1.4417,5,FALSE,FALSE,1,0,4,3,1,,,,,,,
,,,,,,0,2.399818535,#f3af84,"[""0"",""0.25""]",down_orange.png,down,,,,,,,,left,left_blue.png,down_orange.png,down,right,up,61157d9bcc5084cae1e75a86,2021-09-11_16h45.10.790,arrow_simon_vert,2021.1.2,MacIntel,59.99880002,,,,,,,,,,,,,,,,,,,,,left,0,1.7365,6,TRUE,FALSE,1,1,5,3,1,,,,,,,
,,,,,,0,1.815604345,#a3d0fb,"[""-0.25"",""0""]",left_blue.png,left,,,,,,,,left,left_blue.png,down_orange.png,down,left,down,61157d9bcc5084cae1e75a86,2021-09-11_16h45.10.790,arrow_simon_vert,2021.1.2,MacIntel,59.99880002,,,,,,,,,,,,,,,,,,,,,left,1,1.4832,7,FALSE,FALSE,1,2,6,2,1,,,,,,,
,,,,,,0,1.887123656,#f3af84,"[""0"",""-0.25""]",up_orange.png,up,,,,,,,,right,right_blue.png,up_orange.png,up,left,down,61157d9bcc5084cae1e75a86,2021-09-11_16h45.10.790,arrow_simon_vert,2021.1.2,MacIntel,59.99880002,,,,,,,,,,,,,,,,,,,,,up,1,1.5746,8,FALSE,FALSE,1,3,7,0,1,,,,,,,
,,,,,,0,2.129686495,#a3d0fb,"[""0.25"",""0""]",left_blue.png,left,,,,,,,,left,left_blue.png,down_orange.png,down,right,up,61157d9bcc5084cae1e75a86,2021-09-11_16h45.10.790,arrow_simon_vert,2021.1.2,MacIntel,59.99880002,,,,,,,,,,,,,,,,,,,,,left,1,1.5813,9,FALSE,FALSE,2,0,8,3,1,,,,,,,
,,,,,,0,1.627121311,#f3af84,"[""0"",""0.25""]",down_orange.png,down,,,,,,,,left,left_blue.png,down_orange.png,down,right,up,61157d9bcc5084cae1e75a86,2021-09-11_16h45.10.790,arrow_simon_vert,2021.1.2,MacIntel,59.99880002,,,,,,,,,,,,,,,,,,,,,down,1,1.4523,10,FALSE,FALSE,2,1,9,3,1,,,,,,,
,,,,,,0,1.83474951,#a3d0fb,"[""0.25"",""0""]",right_blue.png,right,,,,,,,,right,right_blue.png,up_orange.png,up,right,up,61157d9bcc5084cae1e75a86,2021-09-11_16h45.10.790,arrow_simon_vert,2021.1.2,MacIntel,59.99880002,,,,,,,,,,,,,,,,,,,,,right,1,1.4789,11,FALSE,FALSE,2,2,10,1,1,,,,,,,
,,,,,,0,1.588571249,#f3af84,"[""0"",""-0.25""]",down_orange.png,down,,,,,,,,left,left_blue.png,down_orange.png,down,left,down,61157d9bcc5084cae1e75a86,2021-09-11_16h45.10.790,arrow_simon_vert,2021.1.2,MacIntel,59.99880002,,,,,,,,,,,,,,,,,,,,,down,1,1.468,12,FALSE,FALSE,2,3,11,2,1,,,,,,,
,,,,,,0,2.092735055,#a3d0fb,"[""-0.25"",""0""]",left_blue.png,left,,,,,,,,left,left_blue.png,down_orange.png,down,left,down,61157d9bcc5084cae1e75a86,2021-09-11_16h45.10.790,arrow_simon_vert,2021.1.2,MacIntel,59.99880002,,,,,,,,,,,,,,,,,,,,,left,1,1.5707,13,FALSE,FALSE,3,0,12,2,1,,,,,,,
,,,,,,0,1.98494,#f3af84,"[""0"",""-0.25""]",up_orange.png,up,,,,,,,,right,right_blue.png,up_orange.png,up,left,down,61157d9bcc5084cae1e75a86,2021-09-11_16h45.10.790,arrow_simon_vert,2021.1.2,MacIntel,59.99880002,,,,,,,,,,,,,,,,,,,,,up,1,1.575,14,FALSE,FALSE,3,1,13,0,1,,,,,,,
,,,,,,0,1.504690677,#a3d0fb,"[""0.25"",""0""]",left_blue.png,left,,,,,,,,left,left_blue.png,down_orange.png,down,right,up,61157d9bcc5084cae1e75a86,2021-09-11_16h45.10.790,arrow_simon_vert,2021.1.2,MacIntel,59.99880002,,,,,,,,,,,,,,,,,,,,,left,1,1.4533,15,FALSE,FALSE,3,2,14,3,1,,,,,,,
,,,,,,0,2.389096086,#f3af84,"[""0"",""-0.25""]",up_orange.png,up,,,,,,,,right,right_blue.png,up_orange.png,up,left,down,61157d9bcc5084cae1e75a86,2021-09-11_16h45.10.790,arrow_simon_vert,2021.1.2,MacIntel,59.99880002,,,,,,,,,,,,,,,,,,,,,up,1,1.889,16,TRUE,FALSE,3,3,15,0,1,,,,,,,
,,,,,,0,2.319737022,#a3d0fb,"[""0.25"",""0""]",right_blue.png,right,,,,,,,,right,right_blue.png,up_orange.png,up,right,up,61157d9bcc5084cae1e75a86,2021-09-11_16h45.10.790,arrow_simon_vert,2021.1.2,MacIntel,59.99880002,,,,,,,,,,,,,,,,,,,,,right,1,1.7055,17,TRUE,FALSE,4,0,16,1,1,,,,,,,
,,,,,,0,1.815988532,#f3af84,"[""0"",""-0.25""]",down_orange.png,down,,,,,,,,left,left_blue.png,down_orange.png,down,left,down,61157d9bcc5084cae1e75a86,2021-09-11_16h45.10.790,arrow_simon_vert,2021.1.2,MacIntel,59.99880002,,,,,,,,,,,,,,,,,,,,,down,1,1.546,18,FALSE,FALSE,4,1,17,2,1,,,,,,,
,,,,,,0,2.45712435,#a3d0fb,"[""-0.25"",""0""]",left_blue.png,left,,,,,,,,left,left_blue.png,down_orange.png,down,left,down,61157d9bcc5084cae1e75a86,2021-09-11_16h45.10.790,arrow_simon_vert,2021.1.2,MacIntel,59.99880002,,,,,,,,,,,,,,,,,,,,,left,1,1.8213,19,TRUE,FALSE,4,2,18,2,1,,,,,,,
,,,,,,0,1.666602429,#f3af84,"[""0"",""0.25""]",up_orange.png,up,,,,,,,,right,right_blue.png,up_orange.png,up,right,up,61157d9bcc5084cae1e75a86,2021-09-11_16h45.10.790,arrow_simon_vert,2021.1.2,MacIntel,59.99880002,,,,,,,,,,,,,,,,,,,,,up,1,1.4719,20,FALSE,FALSE,4,3,19,1,1,,,,,,,
,,,,,,0,2.434714877,#a3d0fb,"[""-0.25"",""0""]",left_blue.png,left,,,,,,,,left,left_blue.png,down_orange.png,down,left,down,61157d9bcc5084cae1e75a86,2021-09-11_16h45.10.790,arrow_simon_vert,2021.1.2,MacIntel,59.99880002,,,,,,,,,,,,,,,,,,,,,left,1,1.7676,21,TRUE,FALSE,5,0,20,2,1,,,,,,,
,,,,,,0,2.253289269,#f3af84,"[""0"",""0.25""]",up_orange.png,up,,,,,,,,right,right_blue.png,up_orange.png,up,right,up,61157d9bcc5084cae1e75a86,2021-09-11_16h45.10.790,arrow_simon_vert,2021.1.2,MacIntel,59.99880002,,,,,,,,,,,,,,,,,,,,,up,1,1.5862,22,FALSE,FALSE,5,1,21,1,1,,,,,,,
,,,,,,0,2.169001869,#a3d0fb,"[""-0.25"",""0""]",left_blue.png,left,,,,,,,,left,left_blue.png,down_orange.png,down,left,down,61157d9bcc5084cae1e75a86,2021-09-11_16h45.10.790,arrow_simon_vert,2021.1.2,MacIntel,59.99880002,,,,,,,,,,,,,,,,,,,,,left,1,1.5751,23,FALSE,FALSE,5,2,22,2,1,,,,,,,
,,,,,,0,1.739771352,#f3af84,"[""0"",""-0.25""]",up_orange.png,up,,,,,,,,right,right_blue.png,up_orange.png,up,left,down,61157d9bcc5084cae1e75a86,2021-09-11_16h45.10.790,arrow_simon_vert,2021.1.2,MacIntel,59.99880002,,,,,,,,,,,,,,,,,,,,,up,1,1.4168,24,FALSE,FALSE,5,3,23,0,1,,,,,,,
,,,,,,0,1.902048451,#a3d0fb,"[""0.25"",""0""]",right_blue.png,right,,,,,,,,right,right_blue.png,up_orange.png,up,right,up,61157d9bcc5084cae1e75a86,2021-09-11_16h45.10.790,arrow_simon_vert,2021.1.2,MacIntel,59.99880002,,,,,,,,,,,,,,,,,,,,,right,1,1.6436,25,TRUE,FALSE,6,0,24,1,1,,,,,,,
,,,,,,0,2.217367809,#f3af84,"[""0"",""-0.25""]",down_orange.png,down,,,,,,,,left,left_blue.png,down_orange.png,down,left,down,61157d9bcc5084cae1e75a86,2021-09-11_16h45.10.790,arrow_simon_vert,2021.1.2,MacIntel,59.99880002,,,,,,,,,,,,,,,,,,,,,down,1,1.6387,26,TRUE,FALSE,6,1,25,2,1,,,,,,,
,,,,,,0,2.449872904,#a3d0fb,"[""-0.25"",""0""]",right_blue.png,right,,,,,,,,right,right_blue.png,up_orange.png,up,left,down,61157d9bcc5084cae1e75a86,2021-09-11_16h45.10.790,arrow_simon_vert,2021.1.2,MacIntel,59.99880002,,,,,,,,,,,,,,,,,,,,,left,0,1.7689,27,TRUE,FALSE,6,2,26,0,1,,,,,,,
,,,,,,0,1.911105605,#f3af84,"[""0"",""0.25""]",up_orange.png,up,,,,,,,,right,right_blue.png,up_orange.png,up,right,up,61157d9bcc5084cae1e75a86,2021-09-11_16h45.10.790,arrow_simon_vert,2021.1.2,MacIntel,59.99880002,,,,,,,,,,,,,,,,,,,,,up,1,1.4868,28,FALSE,FALSE,6,3,27,1,1,,,,,,,
,,,,,,0,2.481818769,#a3d0fb,"[""-0.25"",""0""]",right_blue.png,right,,,,,,,,right,right_blue.png,up_orange.png,up,left,down,61157d9bcc5084cae1e75a86,2021-09-11_16h45.10.790,arrow_simon_vert,2021.1.2,MacIntel,59.99880002,,,,,,,,,,,,,,,,,,,,,left,0,1.8413,29,TRUE,FALSE,7,0,28,0,1,,,,,,,
,,,,,,0,2.052700086,#f3af84,"[""0"",""0.25""]",up_orange.png,up,,,,,,,,right,right_blue.png,up_orange.png,up,right,up,61157d9bcc5084cae1e75a86,2021-09-11_16h45.10.790,arrow_simon_vert,2021.1.2,MacIntel,59.99880002,,,,,,,,,,,,,,,,,,,,,up,1,1.4719,30,FALSE,FALSE,7,1,29,1,1,,,,,,,
,,,,,,0,1.6816444,#a3d0fb,"[""0.25"",""0""]",right_blue.png,right,,,,,,,,right,right_blue.png,up_orange.png,up,right,up,61157d9bcc5084cae1e75a86,2021-09-11_16h45.10.790,arrow_simon_vert,2021.1.2,MacIntel,59.99880002,,,,,,,,,,,,,,,,,,,,,right,1,1.4208,31,FALSE,FALSE,7,2,30,1,1,,,,,,,
,,,,,,0,2.213654964,#f3af84,"[""0"",""-0.25""]",up_orange.png,up,,,,,,,,right,right_blue.png,up_orange.png,up,left,down,61157d9bcc5084cae1e75a86,2021-09-11_16h45.10.790,arrow_simon_vert,2021.1.2,MacIntel,59.99880002,,,,,,,,,,,,,,,,,,,,,up,1,1.6012,32,TRUE,FALSE,7,3,31,0,1,,,,,,,
,,,,,,0,2.276141066,#a3d0fb,"[""0.25"",""0""]",left_blue.png,left,,,,,,,,left,left_blue.png,down_orange.png,down,right,up,61157d9bcc5084cae1e75a86,2021-09-11_16h45.10.790,arrow_simon_vert,2021.1.2,MacIntel,59.99880002,,,,,,,,,,,,,,,,,,,,,left,1,1.6933,33,TRUE,FALSE,8,0,32,3,1,,,,,,,
,,,,,,1,2.005638346,#f3af84,"[""0"",""0.25""]",down_orange.png,down,,,,,,,,left,left_blue.png,down_orange.png,down,right,up,61157d9bcc5084cae1e75a86,2021-09-11_16h45.10.790,arrow_simon_vert,2021.1.2,MacIntel,59.99880002,,,,,,,,,,,,,,,,,,,,,up,0,1.5568,34,FALSE,FALSE,8,1,33,3,1,,,,,,,
,,,,,,1,2.451022009,#a3d0fb,"[""0.25"",""0""]",left_blue.png,left,,,,,,,,left,left_blue.png,down_orange.png,down,right,up,61157d9bcc5084cae1e75a86,2021-09-11_16h45.10.790,arrow_simon_vert,2021.1.2,MacIntel,59.99880002,,,,,,,,,,,,,,,,,,,,,left,1,1.7599,35,TRUE,FALSE,8,2,34,3,1,,,,,,,
,,,,,,0,2.168858191,#f3af84,"[""0"",""0.25""]",up_orange.png,up,,,,,,,,right,right_blue.png,up_orange.png,up,right,up,61157d9bcc5084cae1e75a86,2021-09-11_16h45.10.790,arrow_simon_vert,2021.1.2,MacIntel,59.99880002,,,,,,,,,,,,,,,,,,,,,up,1,1.5705,36,FALSE,FALSE,8,3,35,1,1,,,,,,,
,,,,,,0,1.764622186,#a3d0fb,"[""0.25"",""0""]",left_blue.png,left,,,,,,,,left,left_blue.png,down_orange.png,down,right,up,61157d9bcc5084cae1e75a86,2021-09-11_16h45.10.790,arrow_simon_vert,2021.1.2,MacIntel,59.99880002,,,,,,,,,,,,,,,,,,,,,left,1,1.4106,37,FALSE,FALSE,9,0,36,3,1,,,,,,,
,,,,,,0,2.287838962,#f3af84,"[""0"",""-0.25""]",up_orange.png,up,,,,,,,,right,right_blue.png,up_orange.png,up,left,down,61157d9bcc5084cae1e75a86,2021-09-11_16h45.10.790,arrow_simon_vert,2021.1.2,MacIntel,59.99880002,,,,,,,,,,,,,,,,,,,,,down,0,1.6533,38,TRUE,FALSE,9,1,37,0,1,,,,,,,
,,,,,,0,2.148781176,#a3d0fb,"[""-0.25"",""0""]",left_blue.png,left,,,,,,,,left,left_blue.png,down_orange.png,down,left,down,61157d9bcc5084cae1e75a86,2021-09-11_16h45.10.790,arrow_simon_vert,2021.1.2,MacIntel,59.99880002,,,,,,,,,,,,,,,,,,,,,left,1,1.4863,39,FALSE,FALSE,9,2,38,2,1,,,,,,,
,,,,,,0,1.97072772,#f3af84,"[""0"",""-0.25""]",down_orange.png,down,,,,,,,,left,left_blue.png,down_orange.png,down,left,down,61157d9bcc5084cae1e75a86,2021-09-11_16h45.10.790,arrow_simon_vert,2021.1.2,MacIntel,59.99880002,,,,,,,,,,,,,,,,,,,,,down,1,1.521,40,FALSE,FALSE,9,3,39,2,1,,,,,,,
,,,,,,0,1.827014607,#a3d0fb,"[""0.25"",""0""]",left_blue.png,left,,,,,,,,left,left_blue.png,down_orange.png,down,right,up,61157d9bcc5084cae1e75a86,2021-09-11_16h45.10.790,arrow_simon_vert,2021.1.2,MacIntel,59.99880002,,,,,,,,,,,,,,,,,,,,,left,1,1.4421,41,FALSE,FALSE,10,0,40,3,1,,,,,,,
,,,,,,0,1.959793719,#f3af84,"[""0"",""0.25""]",up_orange.png,up,,,,,,,,right,right_blue.png,up_orange.png,up,right,up,61157d9bcc5084cae1e75a86,2021-09-11_16h45.10.790,arrow_simon_vert,2021.1.2,MacIntel,59.99880002,,,,,,,,,,,,,,,,,,,,,up,1,1.4551,42,FALSE,FALSE,10,1,41,1,1,,,,,,,
,,,,,,0,1.819586083,#a3d0fb,"[""0.25"",""0""]",right_blue.png,right,,,,,,,,right,right_blue.png,up_orange.png,up,right,up,61157d9bcc5084cae1e75a86,2021-09-11_16h45.10.790,arrow_simon_vert,2021.1.2,MacIntel,59.99880002,,,,,,,,,,,,,,,,,,,,,right,1,1.4169,43,FALSE,FALSE,10,2,42,1,1,,,,,,,
,,,,,,0,1.626538664,#f3af84,"[""0"",""-0.25""]",up_orange.png,up,,,,,,,,right,right_blue.png,up_orange.png,up,left,down,61157d9bcc5084cae1e75a86,2021-09-11_16h45.10.790,arrow_simon_vert,2021.1.2,MacIntel,59.99880002,,,,,,,,,,,,,,,,,,,,,up,1,1.4789,44,FALSE,FALSE,10,3,43,0,1,,,,,,,
,,,,,,0,1.722236273,#a3d0fb,"[""-0.25"",""0""]",right_blue.png,right,,,,,,,,right,right_blue.png,up_orange.png,up,left,down,61157d9bcc5084cae1e75a86,2021-09-11_16h45.10.790,arrow_simon_vert,2021.1.2,MacIntel,59.99880002,,,,,,,,,,,,,,,,,,,,,right,1,1.3886,45,FALSE,TRUE,11,0,44,0,1,,,,,,,
,,,,,,0,2.022098136,#f3af84,"[""0"",""-0.25""]",up_orange.png,up,,,,,,,,right,right_blue.png,up_orange.png,up,left,down,61157d9bcc5084cae1e75a86,2021-09-11_16h45.10.790,arrow_simon_vert,2021.1.2,MacIntel,59.99880002,,,,,,,,,,,,,,,,,,,,,up,1,1.6195,46,TRUE,FALSE,11,1,45,0,1,,,,,,,
,,,,,,0,1.877732543,#a3d0fb,"[""-0.25"",""0""]",left_blue.png,left,,,,,,,,left,left_blue.png,down_orange.png,down,left,down,61157d9bcc5084cae1e75a86,2021-09-11_16h45.10.790,arrow_simon_vert,2021.1.2,MacIntel,59.99880002,,,,,,,,,,,,,,,,,,,,,left,1,1.4549,47,FALSE,FALSE,11,2,46,2,1,,,,,,,
,,,,,,0,1.877898609,#f3af84,"[""0"",""0.25""]",down_orange.png,down,,,,,,,,left,left_blue.png,down_orange.png,down,right,up,61157d9bcc5084cae1e75a86,2021-09-11_16h45.10.790,arrow_simon_vert,2021.1.2,MacIntel,59.99880002,,,,,,,,,,,,,,,,,,,,,down,1,1.471,48,FALSE,FALSE,11,3,47,3,1,,,,,,,
,,,,,,0,1.779359767,#a3d0fb,"[""-0.25"",""0""]",right_blue.png,right,,,,,,,,right,right_blue.png,up_orange.png,up,left,down,61157d9bcc5084cae1e75a86,2021-09-11_16h45.10.790,arrow_simon_vert,2021.1.2,MacIntel,59.99880002,,,,,,,,,,,,,,,,,,,,,right,1,1.3547,49,FALSE,TRUE,12,0,48,0,1,,,,,,,
,,,,,,0,1.546475942,#f3af84,"[""0"",""-0.25""]",up_orange.png,up,,,,,,,,right,right_blue.png,up_orange.png,up,left,down,61157d9bcc5084cae1e75a86,2021-09-11_16h45.10.790,arrow_simon_vert,2021.1.2,MacIntel,59.99880002,,,,,,,,,,,,,,,,,,,,,up,1,1.4248,50,FALSE,FALSE,12,1,49,0,1,,,,,,,
,,,,,,0,2.403494749,#a3d0fb,"[""0.25"",""0""]",left_blue.png,left,,,,,,,,left,left_blue.png,down_orange.png,down,right,up,61157d9bcc5084cae1e75a86,2021-09-11_16h45.10.790,arrow_simon_vert,2021.1.2,MacIntel,59.99880002,,,,,,,,,,,,,,,,,,,,,right,0,1.7719,51,TRUE,FALSE,12,2,50,3,1,,,,,,,
,,,,,,1,2.14083495,#f3af84,"[""0"",""-0.25""]",down_orange.png,down,,,,,,,,left,left_blue.png,down_orange.png,down,left,down,61157d9bcc5084cae1e75a86,2021-09-11_16h45.10.790,arrow_simon_vert,2021.1.2,MacIntel,59.99880002,,,,,,,,,,,,,,,,,,,,,up,0,1.5723,52,FALSE,FALSE,12,3,51,2,1,,,,,,,
,,,,,,0,2.140745896,#a3d0fb,"[""0.25"",""0""]",left_blue.png,left,,,,,,,,left,left_blue.png,down_orange.png,down,right,up,61157d9bcc5084cae1e75a86,2021-09-11_16h45.10.790,arrow_simon_vert,2021.1.2,MacIntel,59.99880002,,,,,,,,,,,,,,,,,,,,,left,1,1.5698,53,FALSE,FALSE,13,0,52,3,1,,,,,,,
,,,,,,0,2.357298744,#f3af84,"[""0"",""-0.25""]",down_orange.png,down,,,,,,,,left,left_blue.png,down_orange.png,down,left,down,61157d9bcc5084cae1e75a86,2021-09-11_16h45.10.790,arrow_simon_vert,2021.1.2,MacIntel,59.99880002,,,,,,,,,,,,,,,,,,,,,left,0,1.7419,54,TRUE,FALSE,13,1,53,2,1,,,,,,,
,,,,,,0,1.786283923,#a3d0fb,"[""-0.25"",""0""]",left_blue.png,left,,,,,,,,left,left_blue.png,down_orange.png,down,left,down,61157d9bcc5084cae1e75a86,2021-09-11_16h45.10.790,arrow_simon_vert,2021.1.2,MacIntel,59.99880002,,,,,,,,,,,,,,,,,,,,,left,1,1.4562,55,FALSE,FALSE,13,2,54,2,1,,,,,,,
,,,,,,0,2.246945439,#f3af84,"[""0"",""0.25""]",down_orange.png,down,,,,,,,,left,left_blue.png,down_orange.png,down,right,up,61157d9bcc5084cae1e75a86,2021-09-11_16h45.10.790,arrow_simon_vert,2021.1.2,MacIntel,59.99880002,,,,,,,,,,,,,,,,,,,,,down,1,1.7262,56,TRUE,FALSE,13,3,55,3,1,,,,,,,
,,,,,,0,1.856929541,#a3d0fb,"[""-0.25"",""0""]",right_blue.png,right,,,,,,,,right,right_blue.png,up_orange.png,up,left,down,61157d9bcc5084cae1e75a86,2021-09-11_16h45.10.790,arrow_simon_vert,2021.1.2,MacIntel,59.99880002,,,,,,,,,,,,,,,,,,,,,right,1,1.4905,57,FALSE,FALSE,14,0,56,0,1,,,,,,,
,,,,,,0,1.685539464,#f3af84,"[""0"",""0.25""]",down_orange.png,down,,,,,,,,left,left_blue.png,down_orange.png,down,right,up,61157d9bcc5084cae1e75a86,2021-09-11_16h45.10.790,arrow_simon_vert,2021.1.2,MacIntel,59.99880002,,,,,,,,,,,,,,,,,,,,,down,1,1.4212,58,FALSE,FALSE,14,1,57,3,1,,,,,,,
,,,,,,0,1.691618534,#a3d0fb,"[""0.25"",""0""]",right_blue.png,right,,,,,,,,right,right_blue.png,up_orange.png,up,right,up,61157d9bcc5084cae1e75a86,2021-09-11_16h45.10.790,arrow_simon_vert,2021.1.2,MacIntel,59.99880002,,,,,,,,,,,,,,,,,,,,,right,1,1.4203,59,FALSE,FALSE,14,2,58,1,1,,,,,,,
,,,,,,0,1.748188701,#f3af84,"[""0"",""0.25""]",up_orange.png,up,,,,,,,,right,right_blue.png,up_orange.png,up,right,up,61157d9bcc5084cae1e75a86,2021-09-11_16h45.10.790,arrow_simon_vert,2021.1.2,MacIntel,59.99880002,,,,,,,,,,,,,,,,,,,,,up,1,1.3916,60,FALSE,TRUE,14,3,59,1,1,,,,,,,
,,,,,,,,,,,,,,,,,,,,,,,,,61157d9bcc5084cae1e75a86,2021-09-11_16h45.10.790,arrow_simon_vert,2021.1.2,MacIntel,59.99880002,,,,,,,,,,,,,,,,,,,,,,,,,,,,,,,,space,49.0357,1,0,1,0,1
,,,,,,0,2.053695097,#a3d0fb,"[""-0.25"",""0""]",right_blue.png,right,,,,,,,,right,right_blue.png,up_orange.png,up,left,down,61157d9bcc5084cae1e75a86,2021-09-11_16h45.10.790,arrow_simon_vert,2021.1.2,MacIntel,59.99880002,,,,,,,,,,,,,,,,,,,,,right,1,1.602,1,TRUE,FALSE,0,0,0,0,1,,,,,,,
,,,,,,0,2.497736731,#f3af84,"[""0"",""-0.25""]",down_orange.png,down,,,,,,,,left,left_blue.png,down_orange.png,down,left,down,61157d9bcc5084cae1e75a86,2021-09-11_16h45.10.790,arrow_simon_vert,2021.1.2,MacIntel,59.99880002,,,,,,,,,,,,,,,,,,,,,down,1,2.0007,2,TRUE,FALSE,0,1,1,2,1,,,,,,,
,,,,,,0,2.445095124,#a3d0fb,"[""0.25"",""0""]",left_blue.png,left,,,,,,,,left,left_blue.png,down_orange.png,down,right,up,61157d9bcc5084cae1e75a86,2021-09-11_16h45.10.790,arrow_simon_vert,2021.1.2,MacIntel,59.99880002,,,,,,,,,,,,,,,,,,,,,left,1,1.887,3,TRUE,FALSE,0,2,2,3,1,,,,,,,
,,,,,,0,2.45332773,#f3af84,"[""0"",""0.25""]",down_orange.png,down,,,,,,,,left,left_blue.png,down_orange.png,down,right,up,61157d9bcc5084cae1e75a86,2021-09-11_16h45.10.790,arrow_simon_vert,2021.1.2,MacIntel,59.99880002,,,,,,,,,,,,,,,,,,,,,up,0,1.8213,4,TRUE,FALSE,0,3,3,3,1,,,,,,,
,,,,,,0,2.01337156,#a3d0fb,"[""-0.25"",""0""]",left_blue.png,left,,,,,,,,left,left_blue.png,down_orange.png,down,left,down,61157d9bcc5084cae1e75a86,2021-09-11_16h45.10.790,arrow_simon_vert,2021.1.2,MacIntel,59.99880002,,,,,,,,,,,,,,,,,,,,,down,0,1.3515,5,FALSE,TRUE,1,0,4,2,1,,,,,,,
,,,,,,0,2.336142776,#f3af84,"[""0"",""-0.25""]",down_orange.png,down,,,,,,,,left,left_blue.png,down_orange.png,down,left,down,61157d9bcc5084cae1e75a86,2021-09-11_16h45.10.790,arrow_simon_vert,2021.1.2,MacIntel,59.99880002,,,,,,,,,,,,,,,,,,,,,down,1,1.7228,6,TRUE,FALSE,1,1,5,2,1,,,,,,,
,,,,,,0,1.77805178,#a3d0fb,"[""-0.25"",""0""]",right_blue.png,right,,,,,,,,right,right_blue.png,up_orange.png,up,left,down,61157d9bcc5084cae1e75a86,2021-09-11_16h45.10.790,arrow_simon_vert,2021.1.2,MacIntel,59.99880002,,,,,,,,,,,,,,,,,,,,,right,1,1.5366,7,FALSE,FALSE,1,2,6,0,1,,,,,,,
,,,,,,0,2.371737672,#f3af84,"[""0"",""-0.25""]",down_orange.png,down,,,,,,,,left,left_blue.png,down_orange.png,down,left,down,61157d9bcc5084cae1e75a86,2021-09-11_16h45.10.790,arrow_simon_vert,2021.1.2,MacIntel,59.99880002,,,,,,,,,,,,,,,,,,,,,left,0,1.7351,8,TRUE,FALSE,1,3,7,2,1,,,,,,,
,,,,,,0,2.005626481,#a3d0fb,"[""0.25"",""0""]",left_blue.png,left,,,,,,,,left,left_blue.png,down_orange.png,down,right,up,61157d9bcc5084cae1e75a86,2021-09-11_16h45.10.790,arrow_simon_vert,2021.1.2,MacIntel,59.99880002,,,,,,,,,,,,,,,,,,,,,left,1,1.5715,9,FALSE,FALSE,2,0,8,3,1,,,,,,,
,,,,,,0,2.456788156,#f3af84,"[""0"",""0.25""]",up_orange.png,up,,,,,,,,right,right_blue.png,up_orange.png,up,right,up,61157d9bcc5084cae1e75a86,2021-09-11_16h45.10.790,arrow_simon_vert,2021.1.2,MacIntel,59.99880002,,,,,,,,,,,,,,,,,,,,,up,1,1.972,10,TRUE,FALSE,2,1,9,1,1,,,,,,,
,,,,,,0,2.364461333,#a3d0fb,"[""0.25"",""0""]",right_blue.png,right,,,,,,,,right,right_blue.png,up_orange.png,up,right,up,61157d9bcc5084cae1e75a86,2021-09-11_16h45.10.790,arrow_simon_vert,2021.1.2,MacIntel,59.99880002,,,,,,,,,,,,,,,,,,,,,left,0,1.6208,11,TRUE,FALSE,2,2,10,1,1,,,,,,,
,,,,,,1,2.393121995,#f3af84,"[""0"",""-0.25""]",up_orange.png,up,,,,,,,,right,right_blue.png,up_orange.png,up,left,down,61157d9bcc5084cae1e75a86,2021-09-11_16h45.10.790,arrow_simon_vert,2021.1.2,MacIntel,59.99880002,,,,,,,,,,,,,,,,,,,,,down,0,1.572,12,FALSE,FALSE,2,3,11,0,1,,,,,,,
,,,,,,0,1.754431774,#a3d0fb,"[""-0.25"",""0""]",right_blue.png,right,,,,,,,,right,right_blue.png,up_orange.png,up,left,down,61157d9bcc5084cae1e75a86,2021-09-11_16h45.10.790,arrow_simon_vert,2021.1.2,MacIntel,59.99880002,,,,,,,,,,,,,,,,,,,,,right,1,1.5359,13,FALSE,FALSE,3,0,12,0,1,,,,,,,
,,,,,,0,2.389715443,#f3af84,"[""0"",""0.25""]",down_orange.png,down,,,,,,,,left,left_blue.png,down_orange.png,down,right,up,61157d9bcc5084cae1e75a86,2021-09-11_16h45.10.790,arrow_simon_vert,2021.1.2,MacIntel,59.99880002,,,,,,,,,,,,,,,,,,,,,up,0,1.7094,14,TRUE,FALSE,3,1,13,3,1,,,,,,,
,,,,,,0,2.128506081,#a3d0fb,"[""0.25"",""0""]",left_blue.png,left,,,,,,,,left,left_blue.png,down_orange.png,down,right,up,61157d9bcc5084cae1e75a86,2021-09-11_16h45.10.790,arrow_simon_vert,2021.1.2,MacIntel,59.99880002,,,,,,,,,,,,,,,,,,,,,left,1,1.6553,15,TRUE,FALSE,3,2,14,3,1,,,,,,,
,,,,,,0,1.715870671,#f3af84,"[""0"",""0.25""]",up_orange.png,up,,,,,,,,right,right_blue.png,up_orange.png,up,right,up,61157d9bcc5084cae1e75a86,2021-09-11_16h45.10.790,arrow_simon_vert,2021.1.2,MacIntel,59.99880002,,,,,,,,,,,,,,,,,,,,,up,1,1.5004,16,FALSE,FALSE,3,3,15,1,1,,,,,,,
,,,,,,0,2.301908698,#a3d0fb,"[""-0.25"",""0""]",left_blue.png,left,,,,,,,,left,left_blue.png,down_orange.png,down,left,down,61157d9bcc5084cae1e75a86,2021-09-11_16h45.10.790,arrow_simon_vert,2021.1.2,MacIntel,59.99880002,,,,,,,,,,,,,,,,,,,,,left,1,1.6197,17,TRUE,FALSE,4,0,16,2,1,,,,,,,
,,,,,,0,2.080136228,#f3af84,"[""0"",""0.25""]",down_orange.png,down,,,,,,,,left,left_blue.png,down_orange.png,down,right,up,61157d9bcc5084cae1e75a86,2021-09-11_16h45.10.790,arrow_simon_vert,2021.1.2,MacIntel,59.99880002,,,,,,,,,,,,,,,,,,,,,down,1,1.6211,18,TRUE,FALSE,4,1,17,3,1,,,,,,,
,,,,,,0,1.769817401,#a3d0fb,"[""-0.25"",""0""]",right_blue.png,right,,,,,,,,right,right_blue.png,up_orange.png,up,left,down,61157d9bcc5084cae1e75a86,2021-09-11_16h45.10.790,arrow_simon_vert,2021.1.2,MacIntel,59.99880002,,,,,,,,,,,,,,,,,,,,,right,1,1.4742,19,FALSE,FALSE,4,2,18,0,1,,,,,,,
,,,,,,0,1.661029023,#f3af84,"[""0"",""-0.25""]",up_orange.png,up,,,,,,,,right,right_blue.png,up_orange.png,up,left,down,61157d9bcc5084cae1e75a86,2021-09-11_16h45.10.790,arrow_simon_vert,2021.1.2,MacIntel,59.99880002,,,,,,,,,,,,,,,,,,,,,up,1,1.2094,20,FALSE,TRUE,4,3,19,0,1,,,,,,,
,,,,,,0,1.50962619,#a3d0fb,"[""0.25"",""0""]",left_blue.png,left,,,,,,,,left,left_blue.png,down_orange.png,down,right,up,61157d9bcc5084cae1e75a86,2021-09-11_16h45.10.790,arrow_simon_vert,2021.1.2,MacIntel,59.99880002,,,,,,,,,,,,,,,,,,,,,left,1,1.5372,21,FALSE,FALSE,5,0,20,3,1,,,,,,,
,,,,,,0,1.996052563,#f3af84,"[""0"",""0.25""]",down_orange.png,down,,,,,,,,left,left_blue.png,down_orange.png,down,right,up,61157d9bcc5084cae1e75a86,2021-09-11_16h45.10.790,arrow_simon_vert,2021.1.2,MacIntel,59.99880002,,,,,,,,,,,,,,,,,,,,,down,1,1.5419,22,FALSE,FALSE,5,1,21,3,1,,,,,,,
,,,,,,0,2.376923378,#a3d0fb,"[""0.25"",""0""]",right_blue.png,right,,,,,,,,right,right_blue.png,up_orange.png,up,right,up,61157d9bcc5084cae1e75a86,2021-09-11_16h45.10.790,arrow_simon_vert,2021.1.2,MacIntel,59.99880002,,,,,,,,,,,,,,,,,,,,,left,0,1.6892,23,TRUE,FALSE,5,2,22,1,1,,,,,,,
,,,,,,0,2.213345022,#f3af84,"[""0"",""0.25""]",up_orange.png,up,,,,,,,,right,right_blue.png,up_orange.png,up,right,up,61157d9bcc5084cae1e75a86,2021-09-11_16h45.10.790,arrow_simon_vert,2021.1.2,MacIntel,59.99880002,,,,,,,,,,,,,,,,,,,,,up,1,1.5434,24,FALSE,FALSE,5,3,23,1,1,,,,,,,
,,,,,,0,2.406721558,#a3d0fb,"[""0.25"",""0""]",left_blue.png,left,,,,,,,,left,left_blue.png,down_orange.png,down,right,up,61157d9bcc5084cae1e75a86,2021-09-11_16h45.10.790,arrow_simon_vert,2021.1.2,MacIntel,59.99880002,,,,,,,,,,,,,,,,,,,,,left,1,1.6016,25,TRUE,FALSE,6,0,24,3,1,,,,,,,
,,,,,,0,2.129203379,#f3af84,"[""0"",""-0.25""]",up_orange.png,up,,,,,,,,right,right_blue.png,up_orange.png,up,left,down,61157d9bcc5084cae1e75a86,2021-09-11_16h45.10.790,arrow_simon_vert,2021.1.2,MacIntel,59.99880002,,,,,,,,,,,,,,,,,,,,,up,1,1.6196,26,TRUE,FALSE,6,1,25,0,1,,,,,,,
,,,,,,1,2.295659891,#a3d0fb,"[""-0.25"",""0""]",right_blue.png,right,,,,,,,,right,right_blue.png,up_orange.png,up,left,down,61157d9bcc5084cae1e75a86,2021-09-11_16h45.10.790,arrow_simon_vert,2021.1.2,MacIntel,59.99880002,,,,,,,,,,,,,,,,,,,,,left,0,1.4901,27,FALSE,FALSE,6,2,26,0,1,,,,,,,
,,,,,,0,1.510897043,#f3af84,"[""0"",""-0.25""]",up_orange.png,up,,,,,,,,right,right_blue.png,up_orange.png,up,left,down,61157d9bcc5084cae1e75a86,2021-09-11_16h45.10.790,arrow_simon_vert,2021.1.2,MacIntel,59.99880002,,,,,,,,,,,,,,,,,,,,,up,1,1.4045,28,FALSE,FALSE,6,3,27,0,1,,,,,,,
,,,,,,0,1.813132047,#a3d0fb,"[""0.25"",""0""]",right_blue.png,right,,,,,,,,right,right_blue.png,up_orange.png,up,right,up,61157d9bcc5084cae1e75a86,2021-09-11_16h45.10.790,arrow_simon_vert,2021.1.2,MacIntel,59.99880002,,,,,,,,,,,,,,,,,,,,,right,1,1.4694,29,FALSE,FALSE,7,0,28,1,1,,,,,,,
,,,,,,0,1.782330645,#f3af84,"[""0"",""-0.25""]",down_orange.png,down,,,,,,,,left,left_blue.png,down_orange.png,down,left,down,61157d9bcc5084cae1e75a86,2021-09-11_16h45.10.790,arrow_simon_vert,2021.1.2,MacIntel,59.99880002,,,,,,,,,,,,,,,,,,,,,down,1,1.4766,30,FALSE,FALSE,7,1,29,2,1,,,,,,,
,,,,,,0,1.803464189,#a3d0fb,"[""0.25"",""0""]",right_blue.png,right,,,,,,,,right,right_blue.png,up_orange.png,up,right,up,61157d9bcc5084cae1e75a86,2021-09-11_16h45.10.790,arrow_simon_vert,2021.1.2,MacIntel,59.99880002,,,,,,,,,,,,,,,,,,,,,right,1,1.4852,31,FALSE,FALSE,7,2,30,1,1,,,,,,,
,,,,,,0,2.128784747,#f3af84,"[""0"",""-0.25""]",up_orange.png,up,,,,,,,,right,right_blue.png,up_orange.png,up,left,down,61157d9bcc5084cae1e75a86,2021-09-11_16h45.10.790,arrow_simon_vert,2021.1.2,MacIntel,59.99880002,,,,,,,,,,,,,,,,,,,,,up,1,1.5671,32,FALSE,FALSE,7,3,31,0,1,,,,,,,
,,,,,,0,1.852362197,#a3d0fb,"[""-0.25"",""0""]",left_blue.png,left,,,,,,,,left,left_blue.png,down_orange.png,down,left,down,61157d9bcc5084cae1e75a86,2021-09-11_16h45.10.790,arrow_simon_vert,2021.1.2,MacIntel,59.99880002,,,,,,,,,,,,,,,,,,,,,left,1,1.486,33,FALSE,FALSE,8,0,32,2,1,,,,,,,
,,,,,,0,2.39263248,#f3af84,"[""0"",""-0.25""]",down_orange.png,down,,,,,,,,left,left_blue.png,down_orange.png,down,left,down,61157d9bcc5084cae1e75a86,2021-09-11_16h45.10.790,arrow_simon_vert,2021.1.2,MacIntel,59.99880002,,,,,,,,,,,,,,,,,,,,,up,0,1.6765,34,TRUE,FALSE,8,1,33,2,1,,,,,,,
,,,,,,0,1.730625408,#a3d0fb,"[""0.25"",""0""]",right_blue.png,right,,,,,,,,right,right_blue.png,up_orange.png,up,right,up,61157d9bcc5084cae1e75a86,2021-09-11_16h45.10.790,arrow_simon_vert,2021.1.2,MacIntel,59.99880002,,,,,,,,,,,,,,,,,,,,,right,1,1.4554,35,FALSE,FALSE,8,2,34,1,1,,,,,,,
,,,,,,0,2.125392966,#f3af84,"[""0"",""-0.25""]",up_orange.png,up,,,,,,,,right,right_blue.png,up_orange.png,up,left,down,61157d9bcc5084cae1e75a86,2021-09-11_16h45.10.790,arrow_simon_vert,2021.1.2,MacIntel,59.99880002,,,,,,,,,,,,,,,,,,,,,up,1,1.5406,36,FALSE,FALSE,8,3,35,0,1,,,,,,,
,,,,,,0,2.346578499,#a3d0fb,"[""-0.25"",""0""]",right_blue.png,right,,,,,,,,right,right_blue.png,up_orange.png,up,left,down,61157d9bcc5084cae1e75a86,2021-09-11_16h45.10.790,arrow_simon_vert,2021.1.2,MacIntel,59.99880002,,,,,,,,,,,,,,,,,,,,,left,0,1.6085,37,TRUE,FALSE,9,0,36,0,1,,,,,,,
,,,,,,0,2.415506311,#f3af84,"[""0"",""-0.25""]",down_orange.png,down,,,,,,,,left,left_blue.png,down_orange.png,down,left,down,61157d9bcc5084cae1e75a86,2021-09-11_16h45.10.790,arrow_simon_vert,2021.1.2,MacIntel,59.99880002,,,,,,,,,,,,,,,,,,,,,down,1,1.7398,38,TRUE,FALSE,9,1,37,2,1,,,,,,,
,,,,,,0,1.857574068,#a3d0fb,"[""0.25"",""0""]",right_blue.png,right,,,,,,,,right,right_blue.png,up_orange.png,up,right,up,61157d9bcc5084cae1e75a86,2021-09-11_16h45.10.790,arrow_simon_vert,2021.1.2,MacIntel,59.99880002,,,,,,,,,,,,,,,,,,,,,right,1,1.4708,39,FALSE,FALSE,9,2,38,1,1,,,,,,,
,,,,,,0,2.211223468,#f3af84,"[""0"",""-0.25""]",down_orange.png,down,,,,,,,,left,left_blue.png,down_orange.png,down,left,down,61157d9bcc5084cae1e75a86,2021-09-11_16h45.10.790,arrow_simon_vert,2021.1.2,MacIntel,59.99880002,,,,,,,,,,,,,,,,,,,,,down,1,1.587,40,FALSE,FALSE,9,3,39,2,1,,,,,,,
,,,,,,0,2.385322802,#a3d0fb,"[""0.25"",""0""]",left_blue.png,left,,,,,,,,left,left_blue.png,down_orange.png,down,right,up,61157d9bcc5084cae1e75a86,2021-09-11_16h45.10.790,arrow_simon_vert,2021.1.2,MacIntel,59.99880002,,,,,,,,,,,,,,,,,,,,,down,0,1.7405,41,TRUE,FALSE,10,0,40,3,1,,,,,,,
,,,,,,0,1.809403369,#f3af84,"[""0"",""-0.25""]",down_orange.png,down,,,,,,,,left,left_blue.png,down_orange.png,down,left,down,61157d9bcc5084cae1e75a86,2021-09-11_16h45.10.790,arrow_simon_vert,2021.1.2,MacIntel,59.99880002,,,,,,,,,,,,,,,,,,,,,down,1,1.5558,42,FALSE,FALSE,10,1,41,2,1,,,,,,,
,,,,,,0,1.675213934,#a3d0fb,"[""0.25"",""0""]",left_blue.png,left,,,,,,,,left,left_blue.png,down_orange.png,down,right,up,61157d9bcc5084cae1e75a86,2021-09-11_16h45.10.790,arrow_simon_vert,2021.1.2,MacIntel,59.99880002,,,,,,,,,,,,,,,,,,,,,left,1,1.437,43,FALSE,FALSE,10,2,42,3,1,,,,,,,
,,,,,,0,1.694685091,#f3af84,"[""0"",""0.25""]",up_orange.png,up,,,,,,,,right,right_blue.png,up_orange.png,up,right,up,61157d9bcc5084cae1e75a86,2021-09-11_16h45.10.790,arrow_simon_vert,2021.1.2,MacIntel,59.99880002,,,,,,,,,,,,,,,,,,,,,up,1,1.4848,44,FALSE,FALSE,10,3,43,1,1,,,,,,,
,,,,,,0,2.134892772,#a3d0fb,"[""0.25"",""0""]",left_blue.png,left,,,,,,,,left,left_blue.png,down_orange.png,down,right,up,61157d9bcc5084cae1e75a86,2021-09-11_16h45.10.790,arrow_simon_vert,2021.1.2,MacIntel,59.99880002,,,,,,,,,,,,,,,,,,,,,left,1,1.6385,45,TRUE,FALSE,11,0,44,3,1,,,,,,,
,,,,,,0,1.853922821,#f3af84,"[""0"",""0.25""]",down_orange.png,down,,,,,,,,left,left_blue.png,down_orange.png,down,right,up,61157d9bcc5084cae1e75a86,2021-09-11_16h45.10.790,arrow_simon_vert,2021.1.2,MacIntel,59.99880002,,,,,,,,,,,,,,,,,,,,,down,1,1.5203,46,FALSE,FALSE,11,1,45,3,1,,,,,,,
,,,,,,0,1.842562152,#a3d0fb,"[""0.25"",""0""]",left_blue.png,left,,,,,,,,left,left_blue.png,down_orange.png,down,right,up,61157d9bcc5084cae1e75a86,2021-09-11_16h45.10.790,arrow_simon_vert,2021.1.2,MacIntel,59.99880002,,,,,,,,,,,,,,,,,,,,,left,1,1.4904,47,FALSE,FALSE,11,2,46,3,1,,,,,,,
,,,,,,0,1.517586006,#f3af84,"[""0"",""0.25""]",down_orange.png,down,,,,,,,,left,left_blue.png,down_orange.png,down,right,up,61157d9bcc5084cae1e75a86,2021-09-11_16h45.10.790,arrow_simon_vert,2021.1.2,MacIntel,59.99880002,,,,,,,,,,,,,,,,,,,,,down,1,1.4099,48,FALSE,FALSE,11,3,47,3,1,,,,,,,
,,,,,,0,1.996689415,#a3d0fb,"[""0.25"",""0""]",right_blue.png,right,,,,,,,,right,right_blue.png,up_orange.png,up,right,up,61157d9bcc5084cae1e75a86,2021-09-11_16h45.10.790,arrow_simon_vert,2021.1.2,MacIntel,59.99880002,,,,,,,,,,,,,,,,,,,,,right,1,1.6059,49,TRUE,FALSE,12,0,48,1,1,,,,,,,
,,,,,,0,1.746482486,#f3af84,"[""0"",""-0.25""]",down_orange.png,down,,,,,,,,left,left_blue.png,down_orange.png,down,left,down,61157d9bcc5084cae1e75a86,2021-09-11_16h45.10.790,arrow_simon_vert,2021.1.2,MacIntel,59.99880002,,,,,,,,,,,,,,,,,,,,,down,1,1.4575,50,FALSE,FALSE,12,1,49,2,1,,,,,,,
,,,,,,0,1.798705444,#a3d0fb,"[""0.25"",""0""]",right_blue.png,right,,,,,,,,right,right_blue.png,up_orange.png,up,right,up,61157d9bcc5084cae1e75a86,2021-09-11_16h45.10.790,arrow_simon_vert,2021.1.2,MacIntel,59.99880002,,,,,,,,,,,,,,,,,,,,,right,1,1.4571,51,FALSE,FALSE,12,2,50,1,1,,,,,,,
,,,,,,0,1.649036424,#f3af84,"[""0"",""0.25""]",up_orange.png,up,,,,,,,,right,right_blue.png,up_orange.png,up,right,up,61157d9bcc5084cae1e75a86,2021-09-11_16h45.10.790,arrow_simon_vert,2021.1.2,MacIntel,59.99880002,,,,,,,,,,,,,,,,,,,,,up,1,1.5005,52,FALSE,FALSE,12,3,51,1,1,,,,,,,
,,,,,,0,2.421008226,#a3d0fb,"[""0.25"",""0""]",right_blue.png,right,,,,,,,,right,right_blue.png,up_orange.png,up,right,up,61157d9bcc5084cae1e75a86,2021-09-11_16h45.10.790,arrow_simon_vert,2021.1.2,MacIntel,59.99880002,,,,,,,,,,,,,,,,,,,,,left,0,1.6205,53,TRUE,FALSE,13,0,52,1,1,,,,,,,
,,,,,,0,1.599366128,#f3af84,"[""0"",""-0.25""]",down_orange.png,down,,,,,,,,left,left_blue.png,down_orange.png,down,left,down,61157d9bcc5084cae1e75a86,2021-09-11_16h45.10.790,arrow_simon_vert,2021.1.2,MacIntel,59.99880002,,,,,,,,,,,,,,,,,,,,,down,1,1.5225,54,FALSE,FALSE,13,1,53,2,1,,,,,,,
,,,,,,0,2.342815694,#a3d0fb,"[""-0.25"",""0""]",right_blue.png,right,,,,,,,,right,right_blue.png,up_orange.png,up,left,down,61157d9bcc5084cae1e75a86,2021-09-11_16h45.10.790,arrow_simon_vert,2021.1.2,MacIntel,59.99880002,,,,,,,,,,,,,,,,,,,,,left,0,1.6855,55,TRUE,FALSE,13,2,54,0,1,,,,,,,
,,,,,,0,2.081514707,#f3af84,"[""0"",""-0.25""]",down_orange.png,down,,,,,,,,left,left_blue.png,down_orange.png,down,left,down,61157d9bcc5084cae1e75a86,2021-09-11_16h45.10.790,arrow_simon_vert,2021.1.2,MacIntel,59.99880002,,,,,,,,,,,,,,,,,,,,,down,1,1.5695,56,FALSE,FALSE,13,3,55,2,1,,,,,,,
,,,,,,0,1.576547582,#a3d0fb,"[""-0.25"",""0""]",right_blue.png,right,,,,,,,,right,right_blue.png,up_orange.png,up,left,down,61157d9bcc5084cae1e75a86,2021-09-11_16h45.10.790,arrow_simon_vert,2021.1.2,MacIntel,59.99880002,,,,,,,,,,,,,,,,,,,,,right,1,1.4699,57,FALSE,FALSE,14,0,56,0,1,,,,,,,
,,,,,,0,2.441482176,#f3af84,"[""0"",""-0.25""]",down_orange.png,down,,,,,,,,left,left_blue.png,down_orange.png,down,left,down,61157d9bcc5084cae1e75a86,2021-09-11_16h45.10.790,arrow_simon_vert,2021.1.2,MacIntel,59.99880002,,,,,,,,,,,,,,,,,,,,,down,1,1.9016,58,TRUE,FALSE,14,1,57,2,1,,,,,,,
,,,,,,0,1.702743711,#a3d0fb,"[""-0.25"",""0""]",right_blue.png,right,,,,,,,,right,right_blue.png,up_orange.png,up,left,down,61157d9bcc5084cae1e75a86,2021-09-11_16h45.10.790,arrow_simon_vert,2021.1.2,MacIntel,59.99880002,,,,,,,,,,,,,,,,,,,,,right,1,1.5058,59,FALSE,FALSE,14,2,58,0,1,,,,,,,
,,,,,,0,2.243400227,#f3af84,"[""0"",""0.25""]",up_orange.png,up,,,,,,,,right,right_blue.png,up_orange.png,up,right,up,61157d9bcc5084cae1e75a86,2021-09-11_16h45.10.790,arrow_simon_vert,2021.1.2,MacIntel,59.99880002,,,,,,,,,,,,,,,,,,,,,up,1,1.6054,60,TRUE,FALSE,14,3,59,1,1,,,,,,,
,,,,,,,,,,,,,,,,,,,,,,,,,61157d9bcc5084cae1e75a86,2021-09-11_16h45.10.790,arrow_simon_vert,2021.1.2,MacIntel,59.99880002,,,,,,,,,,,,,,,,,,,,,,,,,,,,,,,,space,59.0692,2,0,2,0,1
,,,,,,0,1.911554827,#a3d0fb,"[""-0.25"",""0""]",left_blue.png,left,,,,,,,,left,left_blue.png,down_orange.png,down,left,down,61157d9bcc5084cae1e75a86,2021-09-11_16h45.10.790,arrow_simon_vert,2021.1.2,MacIntel,59.99880002,,,,,,,,,,,,,,,,,,,,,left,1,1.539,1,FALSE,FALSE,0,0,0,2,1,,,,,,,
,,,,,,0,1.533375455,#f3af84,"[""0"",""0.25""]",down_orange.png,down,,,,,,,,left,left_blue.png,down_orange.png,down,right,up,61157d9bcc5084cae1e75a86,2021-09-11_16h45.10.790,arrow_simon_vert,2021.1.2,MacIntel,59.99880002,,,,,,,,,,,,,,,,,,,,,down,1,1.4601,2,FALSE,FALSE,0,1,1,3,1,,,,,,,
,,,,,,0,2.186518964,#a3d0fb,"[""-0.25"",""0""]",left_blue.png,left,,,,,,,,left,left_blue.png,down_orange.png,down,left,down,61157d9bcc5084cae1e75a86,2021-09-11_16h45.10.790,arrow_simon_vert,2021.1.2,MacIntel,59.99880002,,,,,,,,,,,,,,,,,,,,,left,1,1.4902,3,FALSE,FALSE,0,2,2,2,1,,,,,,,
,,,,,,0,2.168156752,#f3af84,"[""0"",""0.25""]",up_orange.png,up,,,,,,,,right,right_blue.png,up_orange.png,up,right,up,61157d9bcc5084cae1e75a86,2021-09-11_16h45.10.790,arrow_simon_vert,2021.1.2,MacIntel,59.99880002,,,,,,,,,,,,,,,,,,,,,up,1,1.5483,4,FALSE,FALSE,0,3,3,1,1,,,,,,,
,,,,,,0,1.582642973,#a3d0fb,"[""-0.25"",""0""]",right_blue.png,right,,,,,,,,right,right_blue.png,up_orange.png,up,left,down,61157d9bcc5084cae1e75a86,2021-09-11_16h45.10.790,arrow_simon_vert,2021.1.2,MacIntel,59.99880002,,,,,,,,,,,,,,,,,,,,,right,1,1.46,5,FALSE,FALSE,1,0,4,0,1,,,,,,,
,,,,,,0,2.395503279,#f3af84,"[""0"",""0.25""]",down_orange.png,down,,,,,,,,left,left_blue.png,down_orange.png,down,right,up,61157d9bcc5084cae1e75a86,2021-09-11_16h45.10.790,arrow_simon_vert,2021.1.2,MacIntel,59.99880002,,,,,,,,,,,,,,,,,,,,,up,0,1.7359,6,TRUE,FALSE,1,1,5,3,1,,,,,,,
,,,,,,1,2.363895069,#a3d0fb,"[""-0.25"",""0""]",left_blue.png,left,,,,,,,,left,left_blue.png,down_orange.png,down,left,down,61157d9bcc5084cae1e75a86,2021-09-11_16h45.10.790,arrow_simon_vert,2021.1.2,MacIntel,59.99880002,,,,,,,,,,,,,,,,,,,,,right,0,1.5383,7,FALSE,FALSE,1,2,6,2,1,,,,,,,
,,,,,,1,2.302668928,#f3af84,"[""0"",""0.25""]",up_orange.png,up,,,,,,,,right,right_blue.png,up_orange.png,up,right,up,61157d9bcc5084cae1e75a86,2021-09-11_16h45.10.790,arrow_simon_vert,2021.1.2,MacIntel,59.99880002,,,,,,,,,,,,,,,,,,,,,up,1,1.7557,8,TRUE,FALSE,1,3,7,1,1,,,,,,,
,,,,,,1,2.196268655,#a3d0fb,"[""0.25"",""0""]",right_blue.png,right,,,,,,,,right,right_blue.png,up_orange.png,up,right,up,61157d9bcc5084cae1e75a86,2021-09-11_16h45.10.790,arrow_simon_vert,2021.1.2,MacIntel,59.99880002,,,,,,,,,,,,,,,,,,,,,right,1,1.6515,9,TRUE,FALSE,2,0,8,1,1,,,,,,,
,,,,,,1,2.265375946,#f3af84,"[""0"",""-0.25""]",up_orange.png,up,,,,,,,,right,right_blue.png,up_orange.png,up,left,down,61157d9bcc5084cae1e75a86,2021-09-11_16h45.10.790,arrow_simon_vert,2021.1.2,MacIntel,59.99880002,,,,,,,,,,,,,,,,,,,,,up,1,1.8036,10,TRUE,FALSE,2,1,9,0,1,,,,,,,
,,,,,,0,2.097137437,#a3d0fb,"[""0.25"",""0""]",left_blue.png,left,,,,,,,,left,left_blue.png,down_orange.png,down,right,up,61157d9bcc5084cae1e75a86,2021-09-11_16h45.10.790,arrow_simon_vert,2021.1.2,MacIntel,59.99880002,,,,,,,,,,,,,,,,,,,,,left,1,1.5231,11,FALSE,FALSE,2,2,10,3,1,,,,,,,
