instruct_resp_simon.keys,instruct_resp_simon.corr,instruct_resp_simon.rt,trial_resp_simon.keys,trial_resp_simon.corr,trial_resp_simon.rt,kerr,target_onset,target_color,target_pos,target_file,target_resp,trials_train_simon.thisRepN,trials_train_simon.thisTrialN,trials_train_simon.thisN,trials_train_simon.thisIndex,trials_train_simon.ran,odd_target_pos,even_target_pos,odd_target_resp,odd_target_file,even_target_file,even_target_resp,odd_target_side,even_target_side,participant,date,expName,psychopyVersion,OS,frameRate,train_block_note_resp.keys,train_block_note_resp.rt,blocks_train.thisRepN,blocks_train.thisTrialN,blocks_train.thisN,blocks_train.thisIndex,blocks_train.ran,instruct_resp_timing.keys,instruct_resp_timing.corr,instruct_resp_timing.rt,trial_resp_timing.keys,trial_resp_timing.rt,trials_train_timing.thisRepN,trials_train_timing.thisTrialN,trials_train_timing.thisN,trials_train_timing.thisIndex,trials_train_timing.ran,instruct_resp.keys,instruct_resp.corr,instruct_resp.rt,trial_resp.keys,trial_resp.corr,trial_resp.rt,trial_num,too_slow,too_soon,trials.thisRepN,trials.thisTrialN,trials.thisN,trials.thisIndex,trials.ran,block_note_resp.keys,block_note_resp.rt,blocks.thisRepN,blocks.thisTrialN,blocks.thisN,blocks.thisIndex,blocks.ran
space,0,72.4547,left,1,2.4102,0,0.520954299,#a3d0fb,"[""0.25"",""0""]",left_blue.png,left,0,0,0,3,1,,,left,left_blue.png,down_orange.png,down,right,up,611605de0a30eebef2479dc3,2021-09-11_17h28.26.669,arrow_simon_vert,2021.1.2,MacIntel,59.98080614,,,,,,,,,,,,,,,,,,,,,,,,,,,,,,,,,,,,,,
,,,down,1,1.4758,0,0.981392492,#f3af84,"[""0"",""-0.25""]",down_orange.png,down,0,1,1,2,1,,,left,left_blue.png,down_orange.png,down,left,down,611605de0a30eebef2479dc3,2021-09-11_17h28.26.669,arrow_simon_vert,2021.1.2,MacIntel,59.98080614,,,,,,,,,,,,,,,,,,,,,,,,,,,,,,,,,,,,,,
,,,left,1,1.3041,0,0.866293569,#a3d0fb,"[""-0.25"",""0""]",left_blue.png,left,0,2,2,2,1,,,left,left_blue.png,down_orange.png,down,left,down,611605de0a30eebef2479dc3,2021-09-11_17h28.26.669,arrow_simon_vert,2021.1.2,MacIntel,59.98080614,,,,,,,,,,,,,,,,,,,,,,,,,,,,,,,,,,,,,,
,,,up,1,1.5993,0,0.799113936,#f3af84,"[""0"",""0.25""]",up_orange.png,up,0,3,3,1,1,,,right,right_blue.png,up_orange.png,up,right,up,611605de0a30eebef2479dc3,2021-09-11_17h28.26.669,arrow_simon_vert,2021.1.2,MacIntel,59.98080614,,,,,,,,,,,,,,,,,,,,,,,,,,,,,,,,,,,,,,
,,,right,1,1.0346,0,0.280213062,#a3d0fb,"[""-0.25"",""0""]",right_blue.png,right,1,0,4,0,1,,,right,right_blue.png,up_orange.png,up,left,down,611605de0a30eebef2479dc3,2021-09-11_17h28.26.669,arrow_simon_vert,2021.1.2,MacIntel,59.98080614,,,,,,,,,,,,,,,,,,,,,,,,,,,,,,,,,,,,,,
,,,up,1,1.0337,0,0.610198922,#f3af84,"[""0"",""0.25""]",up_orange.png,up,1,1,5,1,1,,,right,right_blue.png,up_orange.png,up,right,up,611605de0a30eebef2479dc3,2021-09-11_17h28.26.669,arrow_simon_vert,2021.1.2,MacIntel,59.98080614,,,,,,,,,,,,,,,,,,,,,,,,,,,,,,,,,,,,,,
,,,right,1,0.598,0,0.051732315,#a3d0fb,"[""0.25"",""0""]",right_blue.png,right,1,2,6,1,1,,,right,right_blue.png,up_orange.png,up,right,up,611605de0a30eebef2479dc3,2021-09-11_17h28.26.669,arrow_simon_vert,2021.1.2,MacIntel,59.98080614,,,,,,,,,,,,,,,,,,,,,,,,,,,,,,,,,,,,,,
,,,up,1,0.6585,0,0.199446214,#f3af84,"[""0"",""0.25""]",up_orange.png,up,1,3,7,1,1,,,right,right_blue.png,up_orange.png,up,right,up,611605de0a30eebef2479dc3,2021-09-11_17h28.26.669,arrow_simon_vert,2021.1.2,MacIntel,59.98080614,,,,,,,,,,,,,,,,,,,,,,,,,,,,,,,,,,,,,,
,,,left,1,1.1806,0,0.776242644,#a3d0fb,"[""-0.25"",""0""]",left_blue.png,left,2,0,8,2,1,,,left,left_blue.png,down_orange.png,down,left,down,611605de0a30eebef2479dc3,2021-09-11_17h28.26.669,arrow_simon_vert,2021.1.2,MacIntel,59.98080614,,,,,,,,,,,,,,,,,,,,,,,,,,,,,,,,,,,,,,
,,,down,1,1.0888,0,0.593627791,#f3af84,"[""0"",""-0.25""]",down_orange.png,down,2,1,9,2,1,,,left,left_blue.png,down_orange.png,down,left,down,611605de0a30eebef2479dc3,2021-09-11_17h28.26.669,arrow_simon_vert,2021.1.2,MacIntel,59.98080614,,,,,,,,,,,,,,,,,,,,,,,,,,,,,,,,,,,,,,
,,,left,1,1.1149,0,0.522588722,#a3d0fb,"[""0.25"",""0""]",left_blue.png,left,2,2,10,3,1,,,left,left_blue.png,down_orange.png,down,right,up,611605de0a30eebef2479dc3,2021-09-11_17h28.26.669,arrow_simon_vert,2021.1.2,MacIntel,59.98080614,,,,,,,,,,,,,,,,,,,,,,,,,,,,,,,,,,,,,,
,,,up,1,0.9248,0,0.168805951,#f3af84,"[""0"",""-0.25""]",up_orange.png,up,2,3,11,0,1,,,right,right_blue.png,up_orange.png,up,left,down,611605de0a30eebef2479dc3,2021-09-11_17h28.26.669,arrow_simon_vert,2021.1.2,MacIntel,59.98080614,,,,,,,,,,,,,,,,,,,,,,,,,,,,,,,,,,,,,,
,,,left,1,0.8748,0,0.381131793,#a3d0fb,"[""-0.25"",""0""]",left_blue.png,left,3,0,12,2,1,,,left,left_blue.png,down_orange.png,down,left,down,611605de0a30eebef2479dc3,2021-09-11_17h28.26.669,arrow_simon_vert,2021.1.2,MacIntel,59.98080614,,,,,,,,,,,,,,,,,,,,,,,,,,,,,,,,,,,,,,
,,,up,0,0.8389,1,0.433560474,#f3af84,"[""0"",""0.25""]",down_orange.png,down,3,1,13,3,1,,,left,left_blue.png,down_orange.png,down,right,up,611605de0a30eebef2479dc3,2021-09-11_17h28.26.669,arrow_simon_vert,2021.1.2,MacIntel,59.98080614,,,,,,,,,,,,,,,,,,,,,,,,,,,,,,,,,,,,,,
,,,left,1,1.1813,0,0.621071082,#a3d0fb,"[""0.25"",""0""]",left_blue.png,left,3,2,14,3,1,,,left,left_blue.png,down_orange.png,down,right,up,611605de0a30eebef2479dc3,2021-09-11_17h28.26.669,arrow_simon_vert,2021.1.2,MacIntel,59.98080614,,,,,,,,,,,,,,,,,,,,,,,,,,,,,,,,,,,,,,
,,,up,1,0.7602,0,0.156918958,#f3af84,"[""0"",""-0.25""]",up_orange.png,up,3,3,15,0,1,,,right,right_blue.png,up_orange.png,up,left,down,611605de0a30eebef2479dc3,2021-09-11_17h28.26.669,arrow_simon_vert,2021.1.2,MacIntel,59.98080614,,,,,,,,,,,,,,,,,,,,,,,,,,,,,,,,,,,,,,
,,,right,1,1.1331,0,0.529894506,#a3d0fb,"[""0.25"",""0""]",right_blue.png,right,4,0,16,1,1,,,right,right_blue.png,up_orange.png,up,right,up,611605de0a30eebef2479dc3,2021-09-11_17h28.26.669,arrow_simon_vert,2021.1.2,MacIntel,59.98080614,,,,,,,,,,,,,,,,,,,,,,,,,,,,,,,,,,,,,,
,,,down,1,0.8852,0,0.33563008,#f3af84,"[""0"",""-0.25""]",down_orange.png,down,4,1,17,2,1,,,left,left_blue.png,down_orange.png,down,left,down,611605de0a30eebef2479dc3,2021-09-11_17h28.26.669,arrow_simon_vert,2021.1.2,MacIntel,59.98080614,,,,,,,,,,,,,,,,,,,,,,,,,,,,,,,,,,,,,,
,,,left,1,1.3337,0,0.752900091,#a3d0fb,"[""0.25"",""0""]",left_blue.png,left,4,2,18,3,1,,,left,left_blue.png,down_orange.png,down,right,up,611605de0a30eebef2479dc3,2021-09-11_17h28.26.669,arrow_simon_vert,2021.1.2,MacIntel,59.98080614,,,,,,,,,,,,,,,,,,,,,,,,,,,,,,,,,,,,,,
,,,up,1,1.362,0,0.696736563,#f3af84,"[""0"",""0.25""]",up_orange.png,up,4,3,19,1,1,,,right,right_blue.png,up_orange.png,up,right,up,611605de0a30eebef2479dc3,2021-09-11_17h28.26.669,arrow_simon_vert,2021.1.2,MacIntel,59.98080614,,,,,,,,,,,,,,,,,,,,,,,,,,,,,,,,,,,,,,
,,,right,1,1.2679,0,0.841972328,#a3d0fb,"[""0.25"",""0""]",right_blue.png,right,5,0,20,1,1,,,right,right_blue.png,up_orange.png,up,right,up,611605de0a30eebef2479dc3,2021-09-11_17h28.26.669,arrow_simon_vert,2021.1.2,MacIntel,59.98080614,,,,,,,,,,,,,,,,,,,,,,,,,,,,,,,,,,,,,,
,,,down,1,1.5247,0,0.987930424,#f3af84,"[""0"",""-0.25""]",down_orange.png,down,5,1,21,2,1,,,left,left_blue.png,down_orange.png,down,left,down,611605de0a30eebef2479dc3,2021-09-11_17h28.26.669,arrow_simon_vert,2021.1.2,MacIntel,59.98080614,,,,,,,,,,,,,,,,,,,,,,,,,,,,,,,,,,,,,,
,,,right,1,1.2054,0,0.694782899,#a3d0fb,"[""0.25"",""0""]",right_blue.png,right,5,2,22,1,1,,,right,right_blue.png,up_orange.png,up,right,up,611605de0a30eebef2479dc3,2021-09-11_17h28.26.669,arrow_simon_vert,2021.1.2,MacIntel,59.98080614,,,,,,,,,,,,,,,,,,,,,,,,,,,,,,,,,,,,,,
,,,up,1,1.3328,0,0.759473741,#f3af84,"[""0"",""-0.25""]",up_orange.png,up,5,3,23,0,1,,,right,right_blue.png,up_orange.png,up,left,down,611605de0a30eebef2479dc3,2021-09-11_17h28.26.669,arrow_simon_vert,2021.1.2,MacIntel,59.98080614,,,,,,,,,,,,,,,,,,,,,,,,,,,,,,,,,,,,,,
,,,left,1,0.9701,0,0.338486973,#a3d0fb,"[""0.25"",""0""]",left_blue.png,left,6,0,24,3,1,,,left,left_blue.png,down_orange.png,down,right,up,611605de0a30eebef2479dc3,2021-09-11_17h28.26.669,arrow_simon_vert,2021.1.2,MacIntel,59.98080614,,,,,,,,,,,,,,,,,,,,,,,,,,,,,,,,,,,,,,
,,,down,1,0.8677,0,0.176587181,#f3af84,"[""0"",""-0.25""]",down_orange.png,down,6,1,25,2,1,,,left,left_blue.png,down_orange.png,down,left,down,611605de0a30eebef2479dc3,2021-09-11_17h28.26.669,arrow_simon_vert,2021.1.2,MacIntel,59.98080614,,,,,,,,,,,,,,,,,,,,,,,,,,,,,,,,,,,,,,
,,,right,1,1.2329,0,0.748481874,#a3d0fb,"[""-0.25"",""0""]",right_blue.png,right,6,2,26,0,1,,,right,right_blue.png,up_orange.png,up,left,down,611605de0a30eebef2479dc3,2021-09-11_17h28.26.669,arrow_simon_vert,2021.1.2,MacIntel,59.98080614,,,,,,,,,,,,,,,,,,,,,,,,,,,,,,,,,,,,,,
,,,down,1,0.9508,0,0.412494164,#f3af84,"[""0"",""0.25""]",down_orange.png,down,6,3,27,3,1,,,left,left_blue.png,down_orange.png,down,right,up,611605de0a30eebef2479dc3,2021-09-11_17h28.26.669,arrow_simon_vert,2021.1.2,MacIntel,59.98080614,,,,,,,,,,,,,,,,,,,,,,,,,,,,,,,,,,,,,,
,,,left,1,1.0671,0,0.326665501,#a3d0fb,"[""-0.25"",""0""]",left_blue.png,left,7,0,28,2,1,,,left,left_blue.png,down_orange.png,down,left,down,611605de0a30eebef2479dc3,2021-09-11_17h28.26.669,arrow_simon_vert,2021.1.2,MacIntel,59.98080614,,,,,,,,,,,,,,,,,,,,,,,,,,,,,,,,,,,,,,
,,,up,1,1.1074,0,0.447037788,#f3af84,"[""0"",""-0.25""]",up_orange.png,up,7,1,29,0,1,,,right,right_blue.png,up_orange.png,up,left,down,611605de0a30eebef2479dc3,2021-09-11_17h28.26.669,arrow_simon_vert,2021.1.2,MacIntel,59.98080614,,,,,,,,,,,,,,,,,,,,,,,,,,,,,,,,,,,,,,
,,,left,1,1.1805,0,0.729510566,#a3d0fb,"[""0.25"",""0""]",left_blue.png,left,7,2,30,3,1,,,left,left_blue.png,down_orange.png,down,right,up,611605de0a30eebef2479dc3,2021-09-11_17h28.26.669,arrow_simon_vert,2021.1.2,MacIntel,59.98080614,,,,,,,,,,,,,,,,,,,,,,,,,,,,,,,,,,,,,,
,,,up,1,1.4415,0,0.909501099,#f3af84,"[""0"",""0.25""]",up_orange.png,up,7,3,31,1,1,,,right,right_blue.png,up_orange.png,up,right,up,611605de0a30eebef2479dc3,2021-09-11_17h28.26.669,arrow_simon_vert,2021.1.2,MacIntel,59.98080614,,,,,,,,,,,,,,,,,,,,,,,,,,,,,,,,,,,,,,
,,,left,1,1.2213,0,0.7343888,#a3d0fb,"[""0.25"",""0""]",left_blue.png,left,8,0,32,3,1,,,left,left_blue.png,down_orange.png,down,right,up,611605de0a30eebef2479dc3,2021-09-11_17h28.26.669,arrow_simon_vert,2021.1.2,MacIntel,59.98080614,,,,,,,,,,,,,,,,,,,,,,,,,,,,,,,,,,,,,,
,,,up,1,1.4065,0,0.812451696,#f3af84,"[""0"",""0.25""]",up_orange.png,up,8,1,33,1,1,,,right,right_blue.png,up_orange.png,up,right,up,611605de0a30eebef2479dc3,2021-09-11_17h28.26.669,arrow_simon_vert,2021.1.2,MacIntel,59.98080614,,,,,,,,,,,,,,,,,,,,,,,,,,,,,,,,,,,,,,
,,,left,1,1.96,0,0.775731929,#a3d0fb,"[""-0.25"",""0""]",left_blue.png,left,8,2,34,2,1,,,left,left_blue.png,down_orange.png,down,left,down,611605de0a30eebef2479dc3,2021-09-11_17h28.26.669,arrow_simon_vert,2021.1.2,MacIntel,59.98080614,,,,,,,,,,,,,,,,,,,,,,,,,,,,,,,,,,,,,,
,,,up,1,1.1363,0,0.411660663,#f3af84,"[""0"",""0.25""]",up_orange.png,up,8,3,35,1,1,,,right,right_blue.png,up_orange.png,up,right,up,611605de0a30eebef2479dc3,2021-09-11_17h28.26.669,arrow_simon_vert,2021.1.2,MacIntel,59.98080614,,,,,,,,,,,,,,,,,,,,,,,,,,,,,,,,,,,,,,
,,,left,1,1.4243,0,0.840049112,#a3d0fb,"[""0.25"",""0""]",left_blue.png,left,9,0,36,3,1,,,left,left_blue.png,down_orange.png,down,right,up,611605de0a30eebef2479dc3,2021-09-11_17h28.26.669,arrow_simon_vert,2021.1.2,MacIntel,59.98080614,,,,,,,,,,,,,,,,,,,,,,,,,,,,,,,,,,,,,,
,,,down,1,0.8068,0,0.130344024,#f3af84,"[""0"",""0.25""]",down_orange.png,down,9,1,37,3,1,,,left,left_blue.png,down_orange.png,down,right,up,611605de0a30eebef2479dc3,2021-09-11_17h28.26.669,arrow_simon_vert,2021.1.2,MacIntel,59.98080614,,,,,,,,,,,,,,,,,,,,,,,,,,,,,,,,,,,,,,
,,,right,1,1.7018,0,0.960566368,#a3d0fb,"[""0.25"",""0""]",right_blue.png,right,9,2,38,1,1,,,right,right_blue.png,up_orange.png,up,right,up,611605de0a30eebef2479dc3,2021-09-11_17h28.26.669,arrow_simon_vert,2021.1.2,MacIntel,59.98080614,,,,,,,,,,,,,,,,,,,,,,,,,,,,,,,,,,,,,,
,,,up,1,0.7311,0,0.118630865,#f3af84,"[""0"",""-0.25""]",up_orange.png,up,9,3,39,0,1,,,right,right_blue.png,up_orange.png,up,left,down,611605de0a30eebef2479dc3,2021-09-11_17h28.26.669,arrow_simon_vert,2021.1.2,MacIntel,59.98080614,,,,,,,,,,,,,,,,,,,,,,,,,,,,,,,,,,,,,,
,,,right,1,1.2776,0,0.801731573,#a3d0fb,"[""-0.25"",""0""]",right_blue.png,right,10,0,40,0,1,,,right,right_blue.png,up_orange.png,up,left,down,611605de0a30eebef2479dc3,2021-09-11_17h28.26.669,arrow_simon_vert,2021.1.2,MacIntel,59.98080614,,,,,,,,,,,,,,,,,,,,,,,,,,,,,,,,,,,,,,
,,,down,1,1.0996,0,0.456538812,#f3af84,"[""0"",""-0.25""]",down_orange.png,down,10,1,41,2,1,,,left,left_blue.png,down_orange.png,down,left,down,611605de0a30eebef2479dc3,2021-09-11_17h28.26.669,arrow_simon_vert,2021.1.2,MacIntel,59.98080614,,,,,,,,,,,,,,,,,,,,,,,,,,,,,,,,,,,,,,
,,,left,1,0.9413,0,0.461676704,#a3d0fb,"[""0.25"",""0""]",left_blue.png,left,10,2,42,3,1,,,left,left_blue.png,down_orange.png,down,right,up,611605de0a30eebef2479dc3,2021-09-11_17h28.26.669,arrow_simon_vert,2021.1.2,MacIntel,59.98080614,,,,,,,,,,,,,,,,,,,,,,,,,,,,,,,,,,,,,,
,,,up,1,0.9125,0,0.36679337,#f3af84,"[""0"",""0.25""]",up_orange.png,up,10,3,43,1,1,,,right,right_blue.png,up_orange.png,up,right,up,611605de0a30eebef2479dc3,2021-09-11_17h28.26.669,arrow_simon_vert,2021.1.2,MacIntel,59.98080614,,,,,,,,,,,,,,,,,,,,,,,,,,,,,,,,,,,,,,
,,,left,1,1.0718,0,0.643216971,#a3d0fb,"[""0.25"",""0""]",left_blue.png,left,11,0,44,3,1,,,left,left_blue.png,down_orange.png,down,right,up,611605de0a30eebef2479dc3,2021-09-11_17h28.26.669,arrow_simon_vert,2021.1.2,MacIntel,59.98080614,,,,,,,,,,,,,,,,,,,,,,,,,,,,,,,,,,,,,,
,,,up,1,1.0643,0,0.596539131,#f3af84,"[""0"",""0.25""]",up_orange.png,up,11,1,45,1,1,,,right,right_blue.png,up_orange.png,up,right,up,611605de0a30eebef2479dc3,2021-09-11_17h28.26.669,arrow_simon_vert,2021.1.2,MacIntel,59.98080614,,,,,,,,,,,,,,,,,,,,,,,,,,,,,,,,,,,,,,
,,,left,1,1.0073,0,0.572593322,#a3d0fb,"[""-0.25"",""0""]",left_blue.png,left,11,2,46,2,1,,,left,left_blue.png,down_orange.png,down,left,down,611605de0a30eebef2479dc3,2021-09-11_17h28.26.669,arrow_simon_vert,2021.1.2,MacIntel,59.98080614,,,,,,,,,,,,,,,,,,,,,,,,,,,,,,,,,,,,,,
,,,up,1,1.4553,0,0.967534696,#f3af84,"[""0"",""-0.25""]",up_orange.png,up,11,3,47,0,1,,,right,right_blue.png,up_orange.png,up,left,down,611605de0a30eebef2479dc3,2021-09-11_17h28.26.669,arrow_simon_vert,2021.1.2,MacIntel,59.98080614,,,,,,,,,,,,,,,,,,,,,,,,,,,,,,,,,,,,,,
,,,right,1,1.165,0,0.72046218,#a3d0fb,"[""0.25"",""0""]",right_blue.png,right,12,0,48,1,1,,,right,right_blue.png,up_orange.png,up,right,up,611605de0a30eebef2479dc3,2021-09-11_17h28.26.669,arrow_simon_vert,2021.1.2,MacIntel,59.98080614,,,,,,,,,,,,,,,,,,,,,,,,,,,,,,,,,,,,,,
,,,up,1,0.7238,0,0.16021764,#f3af84,"[""0"",""-0.25""]",up_orange.png,up,12,1,49,0,1,,,right,right_blue.png,up_orange.png,up,left,down,611605de0a30eebef2479dc3,2021-09-11_17h28.26.669,arrow_simon_vert,2021.1.2,MacIntel,59.98080614,,,,,,,,,,,,,,,,,,,,,,,,,,,,,,,,,,,,,,
,,,left,1,0.9452,0,0.518005515,#a3d0fb,"[""-0.25"",""0""]",left_blue.png,left,12,2,50,2,1,,,left,left_blue.png,down_orange.png,down,left,down,611605de0a30eebef2479dc3,2021-09-11_17h28.26.669,arrow_simon_vert,2021.1.2,MacIntel,59.98080614,,,,,,,,,,,,,,,,,,,,,,,,,,,,,,,,,,,,,,
,,,down,1,0.9392,0,0.393729304,#f3af84,"[""0"",""-0.25""]",down_orange.png,down,12,3,51,2,1,,,left,left_blue.png,down_orange.png,down,left,down,611605de0a30eebef2479dc3,2021-09-11_17h28.26.669,arrow_simon_vert,2021.1.2,MacIntel,59.98080614,,,,,,,,,,,,,,,,,,,,,,,,,,,,,,,,,,,,,,
,,,right,1,0.7321,0,0.172482716,#a3d0fb,"[""-0.25"",""0""]",right_blue.png,right,13,0,52,0,1,,,right,right_blue.png,up_orange.png,up,left,down,611605de0a30eebef2479dc3,2021-09-11_17h28.26.669,arrow_simon_vert,2021.1.2,MacIntel,59.98080614,,,,,,,,,,,,,,,,,,,,,,,,,,,,,,,,,,,,,,
,,,down,1,1.4552,0,0.878254575,#f3af84,"[""0"",""0.25""]",down_orange.png,down,13,1,53,3,1,,,left,left_blue.png,down_orange.png,down,right,up,611605de0a30eebef2479dc3,2021-09-11_17h28.26.669,arrow_simon_vert,2021.1.2,MacIntel,59.98080614,,,,,,,,,,,,,,,,,,,,,,,,,,,,,,,,,,,,,,
,,,right,1,0.866,0,0.426356165,#a3d0fb,"[""-0.25"",""0""]",right_blue.png,right,13,2,54,0,1,,,right,right_blue.png,up_orange.png,up,left,down,611605de0a30eebef2479dc3,2021-09-11_17h28.26.669,arrow_simon_vert,2021.1.2,MacIntel,59.98080614,,,,,,,,,,,,,,,,,,,,,,,,,,,,,,,,,,,,,,
,,,down,1,0.7971,0,0.281966483,#f3af84,"[""0"",""0.25""]",down_orange.png,down,13,3,55,3,1,,,left,left_blue.png,down_orange.png,down,right,up,611605de0a30eebef2479dc3,2021-09-11_17h28.26.669,arrow_simon_vert,2021.1.2,MacIntel,59.98080614,,,,,,,,,,,,,,,,,,,,,,,,,,,,,,,,,,,,,,
,,,right,1,0.5844,0,0.054354364,#a3d0fb,"[""-0.25"",""0""]",right_blue.png,right,14,0,56,0,1,,,right,right_blue.png,up_orange.png,up,left,down,611605de0a30eebef2479dc3,2021-09-11_17h28.26.669,arrow_simon_vert,2021.1.2,MacIntel,59.98080614,,,,,,,,,,,,,,,,,,,,,,,,,,,,,,,,,,,,,,
,,,down,1,0.8168,0,0.337654355,#f3af84,"[""0"",""-0.25""]",down_orange.png,down,14,1,57,2,1,,,left,left_blue.png,down_orange.png,down,left,down,611605de0a30eebef2479dc3,2021-09-11_17h28.26.669,arrow_simon_vert,2021.1.2,MacIntel,59.98080614,,,,,,,,,,,,,,,,,,,,,,,,,,,,,,,,,,,,,,
,,,right,1,1.137,0,0.649298288,#a3d0fb,"[""-0.25"",""0""]",right_blue.png,right,14,2,58,0,1,,,right,right_blue.png,up_orange.png,up,left,down,611605de0a30eebef2479dc3,2021-09-11_17h28.26.669,arrow_simon_vert,2021.1.2,MacIntel,59.98080614,,,,,,,,,,,,,,,,,,,,,,,,,,,,,,,,,,,,,,
,,,up,1,1.4048,0,0.902392912,#f3af84,"[""0"",""-0.25""]",up_orange.png,up,14,3,59,0,1,,,right,right_blue.png,up_orange.png,up,left,down,611605de0a30eebef2479dc3,2021-09-11_17h28.26.669,arrow_simon_vert,2021.1.2,MacIntel,59.98080614,,,,,,,,,,,,,,,,,,,,,,,,,,,,,,,,,,,,,,
,,,,,,,,,,,,,,,,,,,,,,,,,611605de0a30eebef2479dc3,2021-09-11_17h28.26.669,arrow_simon_vert,2021.1.2,MacIntel,59.98080614,space,16.9386,0,0,0,0,1,,,,,,,,,,,,,,,,,,,,,,,,,,,,,,,
,,,left,1,1.1231,0,0.595659641,#a3d0fb,"[""-0.25"",""0""]",left_blue.png,left,0,0,0,2,1,,,left,left_blue.png,down_orange.png,down,left,down,611605de0a30eebef2479dc3,2021-09-11_17h28.26.669,arrow_simon_vert,2021.1.2,MacIntel,59.98080614,,,,,,,,,,,,,,,,,,,,,,,,,,,,,,,,,,,,,,
,,,down,1,1.0394,0,0.363534791,#f3af84,"[""0"",""-0.25""]",down_orange.png,down,0,1,1,2,1,,,left,left_blue.png,down_orange.png,down,left,down,611605de0a30eebef2479dc3,2021-09-11_17h28.26.669,arrow_simon_vert,2021.1.2,MacIntel,59.98080614,,,,,,,,,,,,,,,,,,,,,,,,,,,,,,,,,,,,,,
,,,right,1,1.1646,0,0.696300156,#a3d0fb,"[""0.25"",""0""]",right_blue.png,right,0,2,2,1,1,,,right,right_blue.png,up_orange.png,up,right,up,611605de0a30eebef2479dc3,2021-09-11_17h28.26.669,arrow_simon_vert,2021.1.2,MacIntel,59.98080614,,,,,,,,,,,,,,,,,,,,,,,,,,,,,,,,,,,,,,
,,,down,1,0.94,0,0.005790959,#f3af84,"[""0"",""0.25""]",down_orange.png,down,0,3,3,3,1,,,left,left_blue.png,down_orange.png,down,right,up,611605de0a30eebef2479dc3,2021-09-11_17h28.26.669,arrow_simon_vert,2021.1.2,MacIntel,59.98080614,,,,,,,,,,,,,,,,,,,,,,,,,,,,,,,,,,,,,,
,,,right,1,1.1273,0,0.559704337,#a3d0fb,"[""-0.25"",""0""]",right_blue.png,right,1,0,4,0,1,,,right,right_blue.png,up_orange.png,up,left,down,611605de0a30eebef2479dc3,2021-09-11_17h28.26.669,arrow_simon_vert,2021.1.2,MacIntel,59.98080614,,,,,,,,,,,,,,,,,,,,,,,,,,,,,,,,,,,,,,
,,,down,1,1.286,0,0.742905998,#f3af84,"[""0"",""-0.25""]",down_orange.png,down,1,1,5,2,1,,,left,left_blue.png,down_orange.png,down,left,down,611605de0a30eebef2479dc3,2021-09-11_17h28.26.669,arrow_simon_vert,2021.1.2,MacIntel,59.98080614,,,,,,,,,,,,,,,,,,,,,,,,,,,,,,,,,,,,,,
,,,left,1,0.7227,0,0.115674505,#a3d0fb,"[""-0.25"",""0""]",left_blue.png,left,1,2,6,2,1,,,left,left_blue.png,down_orange.png,down,left,down,611605de0a30eebef2479dc3,2021-09-11_17h28.26.669,arrow_simon_vert,2021.1.2,MacIntel,59.98080614,,,,,,,,,,,,,,,,,,,,,,,,,,,,,,,,,,,,,,
,,,down,1,0.7088,0,0.008098735,#f3af84,"[""0"",""0.25""]",down_orange.png,down,1,3,7,3,1,,,left,left_blue.png,down_orange.png,down,right,up,611605de0a30eebef2479dc3,2021-09-11_17h28.26.669,arrow_simon_vert,2021.1.2,MacIntel,59.98080614,,,,,,,,,,,,,,,,,,,,,,,,,,,,,,,,,,,,,,
,,,right,1,0.8267,0,0.309634888,#a3d0fb,"[""-0.25"",""0""]",right_blue.png,right,2,0,8,0,1,,,right,right_blue.png,up_orange.png,up,left,down,611605de0a30eebef2479dc3,2021-09-11_17h28.26.669,arrow_simon_vert,2021.1.2,MacIntel,59.98080614,,,,,,,,,,,,,,,,,,,,,,,,,,,,,,,,,,,,,,
,,,up,1,1.4421,0,0.974199311,#f3af84,"[""0"",""0.25""]",up_orange.png,up,2,1,9,1,1,,,right,right_blue.png,up_orange.png,up,right,up,611605de0a30eebef2479dc3,2021-09-11_17h28.26.669,arrow_simon_vert,2021.1.2,MacIntel,59.98080614,,,,,,,,,,,,,,,,,,,,,,,,,,,,,,,,,,,,,,
,,,left,1,1.2022,0,0.494237446,#a3d0fb,"[""0.25"",""0""]",left_blue.png,left,2,2,10,3,1,,,left,left_blue.png,down_orange.png,down,right,up,611605de0a30eebef2479dc3,2021-09-11_17h28.26.669,arrow_simon_vert,2021.1.2,MacIntel,59.98080614,,,,,,,,,,,,,,,,,,,,,,,,,,,,,,,,,,,,,,
,,,down,1,1.0384,0,0.32168873,#f3af84,"[""0"",""0.25""]",down_orange.png,down,2,3,11,3,1,,,left,left_blue.png,down_orange.png,down,right,up,611605de0a30eebef2479dc3,2021-09-11_17h28.26.669,arrow_simon_vert,2021.1.2,MacIntel,59.98080614,,,,,,,,,,,,,,,,,,,,,,,,,,,,,,,,,,,,,,
,,,left,1,1.3734,0,0.886347445,#a3d0fb,"[""0.25"",""0""]",left_blue.png,left,3,0,12,3,1,,,left,left_blue.png,down_orange.png,down,right,up,611605de0a30eebef2479dc3,2021-09-11_17h28.26.669,arrow_simon_vert,2021.1.2,MacIntel,59.98080614,,,,,,,,,,,,,,,,,,,,,,,,,,,,,,,,,,,,,,
,,,down,1,1.0618,0,0.250953792,#f3af84,"[""0"",""-0.25""]",down_orange.png,down,3,1,13,2,1,,,left,left_blue.png,down_orange.png,down,left,down,611605de0a30eebef2479dc3,2021-09-11_17h28.26.669,arrow_simon_vert,2021.1.2,MacIntel,59.98080614,,,,,,,,,,,,,,,,,,,,,,,,,,,,,,,,,,,,,,
,,,left,1,1.0499,0,0.574418005,#a3d0fb,"[""-0.25"",""0""]",left_blue.png,left,3,2,14,2,1,,,left,left_blue.png,down_orange.png,down,left,down,611605de0a30eebef2479dc3,2021-09-11_17h28.26.669,arrow_simon_vert,2021.1.2,MacIntel,59.98080614,,,,,,,,,,,,,,,,,,,,,,,,,,,,,,,,,,,,,,
,,,down,1,1.2856,0,0.760759886,#f3af84,"[""0"",""-0.25""]",down_orange.png,down,3,3,15,2,1,,,left,left_blue.png,down_orange.png,down,left,down,611605de0a30eebef2479dc3,2021-09-11_17h28.26.669,arrow_simon_vert,2021.1.2,MacIntel,59.98080614,,,,,,,,,,,,,,,,,,,,,,,,,,,,,,,,,,,,,,
,,,right,1,1.103,0,0.58439818,#a3d0fb,"[""-0.25"",""0""]",right_blue.png,right,4,0,16,0,1,,,right,right_blue.png,up_orange.png,up,left,down,611605de0a30eebef2479dc3,2021-09-11_17h28.26.669,arrow_simon_vert,2021.1.2,MacIntel,59.98080614,,,,,,,,,,,,,,,,,,,,,,,,,,,,,,,,,,,,,,
,,,down,1,0.7007,0,0.209843838,#f3af84,"[""0"",""0.25""]",down_orange.png,down,4,1,17,3,1,,,left,left_blue.png,down_orange.png,down,right,up,611605de0a30eebef2479dc3,2021-09-11_17h28.26.669,arrow_simon_vert,2021.1.2,MacIntel,59.98080614,,,,,,,,,,,,,,,,,,,,,,,,,,,,,,,,,,,,,,
,,,right,1,1.4625,0,0.924367926,#a3d0fb,"[""0.25"",""0""]",right_blue.png,right,4,2,18,1,1,,,right,right_blue.png,up_orange.png,up,right,up,611605de0a30eebef2479dc3,2021-09-11_17h28.26.669,arrow_simon_vert,2021.1.2,MacIntel,59.98080614,,,,,,,,,,,,,,,,,,,,,,,,,,,,,,,,,,,,,,
,,,up,1,1.602,0,0.959701157,#f3af84,"[""0"",""-0.25""]",up_orange.png,up,4,3,19,0,1,,,right,right_blue.png,up_orange.png,up,left,down,611605de0a30eebef2479dc3,2021-09-11_17h28.26.669,arrow_simon_vert,2021.1.2,MacIntel,59.98080614,,,,,,,,,,,,,,,,,,,,,,,,,,,,,,,,,,,,,,
,,,left,1,0.6061,0,0.127939671,#a3d0fb,"[""0.25"",""0""]",left_blue.png,left,5,0,20,3,1,,,left,left_blue.png,down_orange.png,down,right,up,611605de0a30eebef2479dc3,2021-09-11_17h28.26.669,arrow_simon_vert,2021.1.2,MacIntel,59.98080614,,,,,,,,,,,,,,,,,,,,,,,,,,,,,,,,,,,,,,
,,,down,1,1.2473,0,0.753004208,#f3af84,"[""0"",""0.25""]",down_orange.png,down,5,1,21,3,1,,,left,left_blue.png,down_orange.png,down,right,up,611605de0a30eebef2479dc3,2021-09-11_17h28.26.669,arrow_simon_vert,2021.1.2,MacIntel,59.98080614,,,,,,,,,,,,,,,,,,,,,,,,,,,,,,,,,,,,,,
,,,right,1,1.0428,0,0.534095992,#a3d0fb,"[""0.25"",""0""]",right_blue.png,right,5,2,22,1,1,,,right,right_blue.png,up_orange.png,up,right,up,611605de0a30eebef2479dc3,2021-09-11_17h28.26.669,arrow_simon_vert,2021.1.2,MacIntel,59.98080614,,,,,,,,,,,,,,,,,,,,,,,,,,,,,,,,,,,,,,
,,,up,1,0.8902,0,0.412996911,#f3af84,"[""0"",""-0.25""]",up_orange.png,up,5,3,23,0,1,,,right,right_blue.png,up_orange.png,up,left,down,611605de0a30eebef2479dc3,2021-09-11_17h28.26.669,arrow_simon_vert,2021.1.2,MacIntel,59.98080614,,,,,,,,,,,,,,,,,,,,,,,,,,,,,,,,,,,,,,
,,,left,1,1.0235,0,0.561454455,#a3d0fb,"[""-0.25"",""0""]",left_blue.png,left,6,0,24,2,1,,,left,left_blue.png,down_orange.png,down,left,down,611605de0a30eebef2479dc3,2021-09-11_17h28.26.669,arrow_simon_vert,2021.1.2,MacIntel,59.98080614,,,,,,,,,,,,,,,,,,,,,,,,,,,,,,,,,,,,,,
,,,down,1,1.2691,0,0.601460105,#f3af84,"[""0"",""0.25""]",down_orange.png,down,6,1,25,3,1,,,left,left_blue.png,down_orange.png,down,right,up,611605de0a30eebef2479dc3,2021-09-11_17h28.26.669,arrow_simon_vert,2021.1.2,MacIntel,59.98080614,,,,,,,,,,,,,,,,,,,,,,,,,,,,,,,,,,,,,,
,,,left,1,0.94,0,0.389979291,#a3d0fb,"[""-0.25"",""0""]",left_blue.png,left,6,2,26,2,1,,,left,left_blue.png,down_orange.png,down,left,down,611605de0a30eebef2479dc3,2021-09-11_17h28.26.669,arrow_simon_vert,2021.1.2,MacIntel,59.98080614,,,,,,,,,,,,,,,,,,,,,,,,,,,,,,,,,,,,,,
,,,down,1,0.881,0,0.321111887,#f3af84,"[""0"",""-0.25""]",down_orange.png,down,6,3,27,2,1,,,left,left_blue.png,down_orange.png,down,left,down,611605de0a30eebef2479dc3,2021-09-11_17h28.26.669,arrow_simon_vert,2021.1.2,MacIntel,59.98080614,,,,,,,,,,,,,,,,,,,,,,,,,,,,,,,,,,,,,,
,,,left,1,1.4652,0,0.955913847,#a3d0fb,"[""0.25"",""0""]",left_blue.png,left,7,0,28,3,1,,,left,left_blue.png,down_orange.png,down,right,up,611605de0a30eebef2479dc3,2021-09-11_17h28.26.669,arrow_simon_vert,2021.1.2,MacIntel,59.98080614,,,,,,,,,,,,,,,,,,,,,,,,,,,,,,,,,,,,,,
,,,down,1,1.2139,0,0.663034144,#f3af84,"[""0"",""0.25""]",down_orange.png,down,7,1,29,3,1,,,left,left_blue.png,down_orange.png,down,right,up,611605de0a30eebef2479dc3,2021-09-11_17h28.26.669,arrow_simon_vert,2021.1.2,MacIntel,59.98080614,,,,,,,,,,,,,,,,,,,,,,,,,,,,,,,,,,,,,,
,,,right,1,1.1166,0,0.644351316,#a3d0fb,"[""0.25"",""0""]",right_blue.png,right,7,2,30,1,1,,,right,right_blue.png,up_orange.png,up,right,up,611605de0a30eebef2479dc3,2021-09-11_17h28.26.669,arrow_simon_vert,2021.1.2,MacIntel,59.98080614,,,,,,,,,,,,,,,,,,,,,,,,,,,,,,,,,,,,,,
,,,down,1,1.1006,0,0.580627844,#f3af84,"[""0"",""-0.25""]",down_orange.png,down,7,3,31,2,1,,,left,left_blue.png,down_orange.png,down,left,down,611605de0a30eebef2479dc3,2021-09-11_17h28.26.669,arrow_simon_vert,2021.1.2,MacIntel,59.98080614,,,,,,,,,,,,,,,,,,,,,,,,,,,,,,,,,,,,,,
,,,right,1,1.4342,0,0.948392184,#a3d0fb,"[""-0.25"",""0""]",right_blue.png,right,8,0,32,0,1,,,right,right_blue.png,up_orange.png,up,left,down,611605de0a30eebef2479dc3,2021-09-11_17h28.26.669,arrow_simon_vert,2021.1.2,MacIntel,59.98080614,,,,,,,,,,,,,,,,,,,,,,,,,,,,,,,,,,,,,,
,,,up,1,0.7187,0,0.196207203,#f3af84,"[""0"",""0.25""]",up_orange.png,up,8,1,33,1,1,,,right,right_blue.png,up_orange.png,up,right,up,611605de0a30eebef2479dc3,2021-09-11_17h28.26.669,arrow_simon_vert,2021.1.2,MacIntel,59.98080614,,,,,,,,,,,,,,,,,,,,,,,,,,,,,,,,,,,,,,
,,,right,1,0.9494,0,0.536755138,#a3d0fb,"[""0.25"",""0""]",right_blue.png,right,8,2,34,1,1,,,right,right_blue.png,up_orange.png,up,right,up,611605de0a30eebef2479dc3,2021-09-11_17h28.26.669,arrow_simon_vert,2021.1.2,MacIntel,59.98080614,,,,,,,,,,,,,,,,,,,,,,,,,,,,,,,,,,,,,,
,,,up,1,0.6683,0,0.203664125,#f3af84,"[""0"",""0.25""]",up_orange.png,up,8,3,35,1,1,,,right,right_blue.png,up_orange.png,up,right,up,611605de0a30eebef2479dc3,2021-09-11_17h28.26.669,arrow_simon_vert,2021.1.2,MacIntel,59.98080614,,,,,,,,,,,,,,,,,,,,,,,,,,,,,,,,,,,,,,
,,,left,1,1.2806,0,0.860221738,#a3d0fb,"[""0.25"",""0""]",left_blue.png,left,9,0,36,3,1,,,left,left_blue.png,down_orange.png,down,right,up,611605de0a30eebef2479dc3,2021-09-11_17h28.26.669,arrow_simon_vert,2021.1.2,MacIntel,59.98080614,,,,,,,,,,,,,,,,,,,,,,,,,,,,,,,,,,,,,,
,,,up,1,1.1185,0,0.709006207,#f3af84,"[""0"",""0.25""]",up_orange.png,up,9,1,37,1,1,,,right,right_blue.png,up_orange.png,up,right,up,611605de0a30eebef2479dc3,2021-09-11_17h28.26.669,arrow_simon_vert,2021.1.2,MacIntel,59.98080614,,,,,,,,,,,,,,,,,,,,,,,,,,,,,,,,,,,,,,
,,,right,1,0.6621,0,0.097329248,#a3d0fb,"[""-0.25"",""0""]",right_blue.png,right,9,2,38,0,1,,,right,right_blue.png,up_orange.png,up,left,down,611605de0a30eebef2479dc3,2021-09-11_17h28.26.669,arrow_simon_vert,2021.1.2,MacIntel,59.98080614,,,,,,,,,,,,,,,,,,,,,,,,,,,,,,,,,,,,,,
,,,down,1,0.9621,0,0.433872603,#f3af84,"[""0"",""0.25""]",down_orange.png,down,9,3,39,3,1,,,left,left_blue.png,down_orange.png,down,right,up,611605de0a30eebef2479dc3,2021-09-11_17h28.26.669,arrow_simon_vert,2021.1.2,MacIntel,59.98080614,,,,,,,,,,,,,,,,,,,,,,,,,,,,,,,,,,,,,,
,,,right,1,0.7173,0,0.092474588,#a3d0fb,"[""0.25"",""0""]",right_blue.png,right,10,0,40,1,1,,,right,right_blue.png,up_orange.png,up,right,up,611605de0a30eebef2479dc3,2021-09-11_17h28.26.669,arrow_simon_vert,2021.1.2,MacIntel,59.98080614,,,,,,,,,,,,,,,,,,,,,,,,,,,,,,,,,,,,,,
,,,down,1,0.9664,0,0.350029832,#f3af84,"[""0"",""-0.25""]",down_orange.png,down,10,1,41,2,1,,,left,left_blue.png,down_orange.png,down,left,down,611605de0a30eebef2479dc3,2021-09-11_17h28.26.669,arrow_simon_vert,2021.1.2,MacIntel,59.98080614,,,,,,,,,,,,,,,,,,,,,,,,,,,,,,,,,,,,,,
,,,right,1,1.1342,0,0.679103392,#a3d0fb,"[""0.25"",""0""]",right_blue.png,right,10,2,42,1,1,,,right,right_blue.png,up_orange.png,up,right,up,611605de0a30eebef2479dc3,2021-09-11_17h28.26.669,arrow_simon_vert,2021.1.2,MacIntel,59.98080614,,,,,,,,,,,,,,,,,,,,,,,,,,,,,,,,,,,,,,
,,,up,1,0.7661,0,0.273208183,#f3af84,"[""0"",""-0.25""]",up_orange.png,up,10,3,43,0,1,,,right,right_blue.png,up_orange.png,up,left,down,611605de0a30eebef2479dc3,2021-09-11_17h28.26.669,arrow_simon_vert,2021.1.2,MacIntel,59.98080614,,,,,,,,,,,,,,,,,,,,,,,,,,,,,,,,,,,,,,
,,,left,1,0.7672,0,0.312766105,#a3d0fb,"[""0.25"",""0""]",left_blue.png,left,11,0,44,3,1,,,left,left_blue.png,down_orange.png,down,right,up,611605de0a30eebef2479dc3,2021-09-11_17h28.26.669,arrow_simon_vert,2021.1.2,MacIntel,59.98080614,,,,,,,,,,,,,,,,,,,,,,,,,,,,,,,,,,,,,,
,,,down,1,1.1796,0,0.68509525,#f3af84,"[""0"",""0.25""]",down_orange.png,down,11,1,45,3,1,,,left,left_blue.png,down_orange.png,down,right,up,611605de0a30eebef2479dc3,2021-09-11_17h28.26.669,arrow_simon_vert,2021.1.2,MacIntel,59.98080614,,,,,,,,,,,,,,,,,,,,,,,,,,,,,,,,,,,,,,
,,,right,1,1.5202,0,0.090632265,#a3d0fb,"[""0.25"",""0""]",right_blue.png,right,11,2,46,1,1,,,right,right_blue.png,up_orange.png,up,right,up,611605de0a30eebef2479dc3,2021-09-11_17h28.26.669,arrow_simon_vert,2021.1.2,MacIntel,59.98080614,,,,,,,,,,,,,,,,,,,,,,,,,,,,,,,,,,,,,,
,,,up,1,1.2486,0,0.692885061,#f3af84,"[""0"",""-0.25""]",up_orange.png,up,11,3,47,0,1,,,right,right_blue.png,up_orange.png,up,left,down,611605de0a30eebef2479dc3,2021-09-11_17h28.26.669,arrow_simon_vert,2021.1.2,MacIntel,59.98080614,,,,,,,,,,,,,,,,,,,,,,,,,,,,,,,,,,,,,,
,,,right,1,1.1765,0,0.763474157,#a3d0fb,"[""0.25"",""0""]",right_blue.png,right,12,0,48,1,1,,,right,right_blue.png,up_orange.png,up,right,up,611605de0a30eebef2479dc3,2021-09-11_17h28.26.669,arrow_simon_vert,2021.1.2,MacIntel,59.98080614,,,,,,,,,,,,,,,,,,,,,,,,,,,,,,,,,,,,,,
,,,up,1,0.8336,0,0.29237615,#f3af84,"[""0"",""0.25""]",up_orange.png,up,12,1,49,1,1,,,right,right_blue.png,up_orange.png,up,right,up,611605de0a30eebef2479dc3,2021-09-11_17h28.26.669,arrow_simon_vert,2021.1.2,MacIntel,59.98080614,,,,,,,,,,,,,,,,,,,,,,,,,,,,,,,,,,,,,,
,,,left,1,0.7014,0,0.245610669,#a3d0fb,"[""-0.25"",""0""]",left_blue.png,left,12,2,50,2,1,,,left,left_blue.png,down_orange.png,down,left,down,611605de0a30eebef2479dc3,2021-09-11_17h28.26.669,arrow_simon_vert,2021.1.2,MacIntel,59.98080614,,,,,,,,,,,,,,,,,,,,,,,,,,,,,,,,,,,,,,
,,,down,1,1.318,0,0.765424345,#f3af84,"[""0"",""-0.25""]",down_orange.png,down,12,3,51,2,1,,,left,left_blue.png,down_orange.png,down,left,down,611605de0a30eebef2479dc3,2021-09-11_17h28.26.669,arrow_simon_vert,2021.1.2,MacIntel,59.98080614,,,,,,,,,,,,,,,,,,,,,,,,,,,,,,,,,,,,,,
,,,left,1,0.6188,0,0.104084687,#a3d0fb,"[""-0.25"",""0""]",left_blue.png,left,13,0,52,2,1,,,left,left_blue.png,down_orange.png,down,left,down,611605de0a30eebef2479dc3,2021-09-11_17h28.26.669,arrow_simon_vert,2021.1.2,MacIntel,59.98080614,,,,,,,,,,,,,,,,,,,,,,,,,,,,,,,,,,,,,,
,,,up,1,1.4272,0,0.932463482,#f3af84,"[""0"",""-0.25""]",up_orange.png,up,13,1,53,0,1,,,right,right_blue.png,up_orange.png,up,left,down,611605de0a30eebef2479dc3,2021-09-11_17h28.26.669,arrow_simon_vert,2021.1.2,MacIntel,59.98080614,,,,,,,,,,,,,,,,,,,,,,,,,,,,,,,,,,,,,,
,,,right,1,1.1027,0,0.6589913,#a3d0fb,"[""-0.25"",""0""]",right_blue.png,right,13,2,54,0,1,,,right,right_blue.png,up_orange.png,up,left,down,611605de0a30eebef2479dc3,2021-09-11_17h28.26.669,arrow_simon_vert,2021.1.2,MacIntel,59.98080614,,,,,,,,,,,,,,,,,,,,,,,,,,,,,,,,,,,,,,
,,,up,1,1.0665,0,0.571124277,#f3af84,"[""0"",""0.25""]",up_orange.png,up,13,3,55,1,1,,,right,right_blue.png,up_orange.png,up,right,up,611605de0a30eebef2479dc3,2021-09-11_17h28.26.669,arrow_simon_vert,2021.1.2,MacIntel,59.98080614,,,,,,,,,,,,,,,,,,,,,,,,,,,,,,,,,,,,,,
,,,right,1,0.8787,0,0.362823335,#a3d0fb,"[""-0.25"",""0""]",right_blue.png,right,14,0,56,0,1,,,right,right_blue.png,up_orange.png,up,left,down,611605de0a30eebef2479dc3,2021-09-11_17h28.26.669,arrow_simon_vert,2021.1.2,MacIntel,59.98080614,,,,,,,,,,,,,,,,,,,,,,,,,,,,,,,,,,,,,,
,,,up,1,0.9332,0,0.324514019,#f3af84,"[""0"",""-0.25""]",up_orange.png,up,14,1,57,0,1,,,right,right_blue.png,up_orange.png,up,left,down,611605de0a30eebef2479dc3,2021-09-11_17h28.26.669,arrow_simon_vert,2021.1.2,MacIntel,59.98080614,,,,,,,,,,,,,,,,,,,,,,,,,,,,,,,,,,,,,,
,,,right,1,1.3201,0,0.829998482,#a3d0fb,"[""-0.25"",""0""]",right_blue.png,right,14,2,58,0,1,,,right,right_blue.png,up_orange.png,up,left,down,611605de0a30eebef2479dc3,2021-09-11_17h28.26.669,arrow_simon_vert,2021.1.2,MacIntel,59.98080614,,,,,,,,,,,,,,,,,,,,,,,,,,,,,,,,,,,,,,
,,,up,1,0.934,0,0.466443511,#f3af84,"[""0"",""-0.25""]",up_orange.png,up,14,3,59,0,1,,,right,right_blue.png,up_orange.png,up,left,down,611605de0a30eebef2479dc3,2021-09-11_17h28.26.669,arrow_simon_vert,2021.1.2,MacIntel,59.98080614,,,,,,,,,,,,,,,,,,,,,,,,,,,,,,,,,,,,,,
,,,,,,,,,,,,,,,,,,,,,,,,,611605de0a30eebef2479dc3,2021-09-11_17h28.26.669,arrow_simon_vert,2021.1.2,MacIntel,59.98080614,space,3.5018,1,0,1,0,1,,,,,,,,,,,,,,,,,,,,,,,,,,,,,,,
,,,,,,,,,,,,,,,,,,,,,,,,,611605de0a30eebef2479dc3,2021-09-11_17h28.26.669,arrow_simon_vert,2021.1.2,MacIntel,59.98080614,,,,,,,,space,0,36.4268,up,2.1514,0,0,0,0,1,,,,,,,,,,,,,,,,,,,,,
,,,,,,,,,,,,,,,,,,,,,,,,,611605de0a30eebef2479dc3,2021-09-11_17h28.26.669,arrow_simon_vert,2021.1.2,MacIntel,59.98080614,,,,,,,,,,,up,3.1354,1,0,1,0,1,,,,,,,,,,,,,,,,,,,,,
,,,,,,,,,,,,,,,,,,,,,,,,,611605de0a30eebef2479dc3,2021-09-11_17h28.26.669,arrow_simon_vert,2021.1.2,MacIntel,59.98080614,,,,,,,,,,,up,2.7866,2,0,2,0,1,,,,,,,,,,,,,,,,,,,,,
,,,,,,,,,,,,,,,,,,,,,,,,,611605de0a30eebef2479dc3,2021-09-11_17h28.26.669,arrow_simon_vert,2021.1.2,MacIntel,59.98080614,,,,,,,,,,,up,2.5665,3,0,3,0,1,,,,,,,,,,,,,,,,,,,,,
,,,,,,,,,,,,,,,,,,,,,,,,,611605de0a30eebef2479dc3,2021-09-11_17h28.26.669,arrow_simon_vert,2021.1.2,MacIntel,59.98080614,,,,,,,,,,,up,2.4336,4,0,4,0,1,,,,,,,,,,,,,,,,,,,,,
,,,,,,,,,,,,,,,,,,,,,,,,,611605de0a30eebef2479dc3,2021-09-11_17h28.26.669,arrow_simon_vert,2021.1.2,MacIntel,59.98080614,,,,,,,,,,,up,2.4848,5,0,5,0,1,,,,,,,,,,,,,,,,,,,,,
,,,,,,,,,,,,,,,,,,,,,,,,,611605de0a30eebef2479dc3,2021-09-11_17h28.26.669,arrow_simon_vert,2021.1.2,MacIntel,59.98080614,,,,,,,,,,,down,2.5682,6,0,6,0,1,,,,,,,,,,,,,,,,,,,,,
,,,,,,,,,,,,,,,,,,,,,,,,,611605de0a30eebef2479dc3,2021-09-11_17h28.26.669,arrow_simon_vert,2021.1.2,MacIntel,59.98080614,,,,,,,,,,,up,2.5027,7,0,7,0,1,,,,,,,,,,,,,,,,,,,,,
,,,,,,,,,,,,,,,,,,,,,,,,,611605de0a30eebef2479dc3,2021-09-11_17h28.26.669,arrow_simon_vert,2021.1.2,MacIntel,59.98080614,,,,,,,,,,,right,2.5169,8,0,8,0,1,,,,,,,,,,,,,,,,,,,,,
,,,,,,,,,,,,,,,,,,,,,,,,,611605de0a30eebef2479dc3,2021-09-11_17h28.26.669,arrow_simon_vert,2021.1.2,MacIntel,59.98080614,,,,,,,,,,,down,2.5836,9,0,9,0,1,,,,,,,,,,,,,,,,,,,,,
,,,,,,,,,,,,,,,,,,,,,,,,,611605de0a30eebef2479dc3,2021-09-11_17h28.26.669,arrow_simon_vert,2021.1.2,MacIntel,59.98080614,,,,,,,,,,,left,2.436,10,0,10,0,1,,,,,,,,,,,,,,,,,,,,,
,,,,,,,,,,,,,,,,,,,,,,,,,611605de0a30eebef2479dc3,2021-09-11_17h28.26.669,arrow_simon_vert,2021.1.2,MacIntel,59.98080614,,,,,,,,,,,up,2.6173,11,0,11,0,1,,,,,,,,,,,,,,,,,,,,,
,,,,,,,,,,,,,,,,,,,,,,,,,611605de0a30eebef2479dc3,2021-09-11_17h28.26.669,arrow_simon_vert,2021.1.2,MacIntel,59.98080614,,,,,,,,,,,right,2.5522,12,0,12,0,1,,,,,,,,,,,,,,,,,,,,,
,,,,,,,,,,,,,,,,,,,,,,,,,611605de0a30eebef2479dc3,2021-09-11_17h28.26.669,arrow_simon_vert,2021.1.2,MacIntel,59.98080614,,,,,,,,,,,down,2.5505,13,0,13,0,1,,,,,,,,,,,,,,,,,,,,,
,,,,,,,,,,,,,,,,,,,,,,,,,611605de0a30eebef2479dc3,2021-09-11_17h28.26.669,arrow_simon_vert,2021.1.2,MacIntel,59.98080614,,,,,,,,,,,left,2.5032,14,0,14,0,1,,,,,,,,,,,,,,,,,,,,,
,,,,,,,,,,,,,,,,,,,,,,,,,611605de0a30eebef2479dc3,2021-09-11_17h28.26.669,arrow_simon_vert,2021.1.2,MacIntel,59.98080614,,,,,,,,,,,up,2.4018,15,0,15,0,1,,,,,,,,,,,,,,,,,,,,,
,,,,,,,,,,,,,,,,,,,,,,,,,611605de0a30eebef2479dc3,2021-09-11_17h28.26.669,arrow_simon_vert,2021.1.2,MacIntel,59.98080614,,,,,,,,,,,right,2.4514,16,0,16,0,1,,,,,,,,,,,,,,,,,,,,,
,,,,,,,,,,,,,,,,,,,,,,,,,611605de0a30eebef2479dc3,2021-09-11_17h28.26.669,arrow_simon_vert,2021.1.2,MacIntel,59.98080614,,,,,,,,,,,down,4.0617,17,0,17,0,1,,,,,,,,,,,,,,,,,,,,,
,,,,,,,,,,,,,,,,,,,,,,,,,611605de0a30eebef2479dc3,2021-09-11_17h28.26.669,arrow_simon_vert,2021.1.2,MacIntel,59.98080614,,,,,,,,,,,left,2.1171,18,0,18,0,1,,,,,,,,,,,,,,,,,,,,,
,,,,,,,,,,,,,,,,,,,,,,,,,611605de0a30eebef2479dc3,2021-09-11_17h28.26.669,arrow_simon_vert,2021.1.2,MacIntel,59.98080614,,,,,,,,,,,up,2.4509,19,0,19,0,1,,,,,,,,,,,,,,,,,,,,,
,,,,,,,,,,,,,,,,,,,,,,,,,611605de0a30eebef2479dc3,2021-09-11_17h28.26.669,arrow_simon_vert,2021.1.2,MacIntel,59.98080614,,,,,,,,,,,right,2.5882,20,0,20,0,1,,,,,,,,,,,,,,,,,,,,,
,,,,,,,,,,,,,,,,,,,,,,,,,611605de0a30eebef2479dc3,2021-09-11_17h28.26.669,arrow_simon_vert,2021.1.2,MacIntel,59.98080614,,,,,,,,,,,down,2.4831,21,0,21,0,1,,,,,,,,,,,,,,,,,,,,,
,,,,,,,,,,,,,,,,,,,,,,,,,611605de0a30eebef2479dc3,2021-09-11_17h28.26.669,arrow_simon_vert,2021.1.2,MacIntel,59.98080614,,,,,,,,,,,left,2.2679,22,0,22,0,1,,,,,,,,,,,,,,,,,,,,,
,,,,,,,,,,,,,,,,,,,,,,,,,611605de0a30eebef2479dc3,2021-09-11_17h28.26.669,arrow_simon_vert,2021.1.2,MacIntel,59.98080614,,,,,,,,,,,up,2.4831,23,0,23,0,1,,,,,,,,,,,,,,,,,,,,,
,,,,,,,,,,,,,,,,,,,,,,,,,611605de0a30eebef2479dc3,2021-09-11_17h28.26.669,arrow_simon_vert,2021.1.2,MacIntel,59.98080614,,,,,,,,,,,right,2.2795,24,0,24,0,1,,,,,,,,,,,,,,,,,,,,,
,,,,,,,,,,,,,,,,,,,,,,,,,611605de0a30eebef2479dc3,2021-09-11_17h28.26.669,arrow_simon_vert,2021.1.2,MacIntel,59.98080614,,,,,,,,,,,down,2.2784,25,0,25,0,1,,,,,,,,,,,,,,,,,,,,,
,,,,,,,,,,,,,,,,,,,,,,,,,611605de0a30eebef2479dc3,2021-09-11_17h28.26.669,arrow_simon_vert,2021.1.2,MacIntel,59.98080614,,,,,,,,,,,left,2.3821,26,0,26,0,1,,,,,,,,,,,,,,,,,,,,,
,,,,,,,,,,,,,,,,,,,,,,,,,611605de0a30eebef2479dc3,2021-09-11_17h28.26.669,arrow_simon_vert,2021.1.2,MacIntel,59.98080614,,,,,,,,,,,up,2.5019,27,0,27,0,1,,,,,,,,,,,,,,,,,,,,,
,,,,,,,,,,,,,,,,,,,,,,,,,611605de0a30eebef2479dc3,2021-09-11_17h28.26.669,arrow_simon_vert,2021.1.2,MacIntel,59.98080614,,,,,,,,,,,right,2.502,28,0,28,0,1,,,,,,,,,,,,,,,,,,,,,
,,,,,,,,,,,,,,,,,,,,,,,,,611605de0a30eebef2479dc3,2021-09-11_17h28.26.669,arrow_simon_vert,2021.1.2,MacIntel,59.98080614,,,,,,,,,,,down,2.4189,29,0,29,0,1,,,,,,,,,,,,,,,,,,,,,
,,,,,,,,,,,,,,,,,,,,,,,,,611605de0a30eebef2479dc3,2021-09-11_17h28.26.669,arrow_simon_vert,2021.1.2,MacIntel,59.98080614,,,,,,,,,,,left,2.4831,30,0,30,0,1,,,,,,,,,,,,,,,,,,,,,
,,,,,,,,,,,,,,,,,,,,,,,,,611605de0a30eebef2479dc3,2021-09-11_17h28.26.669,arrow_simon_vert,2021.1.2,MacIntel,59.98080614,,,,,,,,,,,up,2.5505,31,0,31,0,1,,,,,,,,,,,,,,,,,,,,,
,,,,,,,,,,,,,,,,,,,,,,,,,611605de0a30eebef2479dc3,2021-09-11_17h28.26.669,arrow_simon_vert,2021.1.2,MacIntel,59.98080614,,,,,,,,,,,right,2.5016,32,0,32,0,1,,,,,,,,,,,,,,,,,,,,,
,,,,,,,,,,,,,,,,,,,,,,,,,611605de0a30eebef2479dc3,2021-09-11_17h28.26.669,arrow_simon_vert,2021.1.2,MacIntel,59.98080614,,,,,,,,,,,down,2.5169,33,0,33,0,1,,,,,,,,,,,,,,,,,,,,,
,,,,,,,,,,,,,,,,,,,,,,,,,611605de0a30eebef2479dc3,2021-09-11_17h28.26.669,arrow_simon_vert,2021.1.2,MacIntel,59.98080614,,,,,,,,,,,left,2.4844,34,0,34,0,1,,,,,,,,,,,,,,,,,,,,,
,,,,,,,,,,,,,,,,,,,,,,,,,611605de0a30eebef2479dc3,2021-09-11_17h28.26.669,arrow_simon_vert,2021.1.2,MacIntel,59.98080614,,,,,,,,,,,up,2.467,35,0,35,0,1,,,,,,,,,,,,,,,,,,,,,
,,,,,,,,,,,,,,,,,,,,,,,,,611605de0a30eebef2479dc3,2021-09-11_17h28.26.669,arrow_simon_vert,2021.1.2,MacIntel,59.98080614,,,,,,,,,,,right,2.467,36,0,36,0,1,,,,,,,,,,,,,,,,,,,,,
,,,,,,,,,,,,,,,,,,,,,,,,,611605de0a30eebef2479dc3,2021-09-11_17h28.26.669,arrow_simon_vert,2021.1.2,MacIntel,59.98080614,,,,,,,,,,,down,2.5178,37,0,37,0,1,,,,,,,,,,,,,,,,,,,,,
,,,,,,,,,,,,,,,,,,,,,,,,,611605de0a30eebef2479dc3,2021-09-11_17h28.26.669,arrow_simon_vert,2021.1.2,MacIntel,59.98080614,,,,,,,,,,,left,2.185,38,0,38,0,1,,,,,,,,,,,,,,,,,,,,,
,,,,,,,,,,,,,,,,,,,,,,,,,611605de0a30eebef2479dc3,2021-09-11_17h28.26.669,arrow_simon_vert,2021.1.2,MacIntel,59.98080614,,,,,,,,,,,up,2.5332,39,0,39,0,1,,,,,,,,,,,,,,,,,,,,,
,,,,,,,,,,,,,,,,,,,,,,,,,611605de0a30eebef2479dc3,2021-09-11_17h28.26.669,arrow_simon_vert,2021.1.2,MacIntel,59.98080614,,,,,,,,,,,right,2.567,40,0,40,0,1,,,,,,,,,,,,,,,,,,,,,
,,,,,,,,,,,,,,,,,,,,,,,,,611605de0a30eebef2479dc3,2021-09-11_17h28.26.669,arrow_simon_vert,2021.1.2,MacIntel,59.98080614,,,,,,,,,,,down,2.5522,41,0,41,0,1,,,,,,,,,,,,,,,,,,,,,
,,,,,,,,,,,,,,,,,,,,,,,,,611605de0a30eebef2479dc3,2021-09-11_17h28.26.669,arrow_simon_vert,2021.1.2,MacIntel,59.98080614,,,,,,,,,,,left,2.5509,42,0,42,0,1,,,,,,,,,,,,,,,,,,,,,
,,,,,,,,,,,,,,,,,,,,,,,,,611605de0a30eebef2479dc3,2021-09-11_17h28.26.669,arrow_simon_vert,2021.1.2,MacIntel,59.98080614,,,,,,,,,,,up,2.5855,43,0,43,0,1,,,,,,,,,,,,,,,,,,,,,
,,,,,,,,,,,,,,,,,,,,,,,,,611605de0a30eebef2479dc3,2021-09-11_17h28.26.669,arrow_simon_vert,2021.1.2,MacIntel,59.98080614,,,,,,,,,,,right,2.5363,44,0,44,0,1,,,,,,,,,,,,,,,,,,,,,
,,,,,,,,,,,,,,,,,,,,,,,,,611605de0a30eebef2479dc3,2021-09-11_17h28.26.669,arrow_simon_vert,2021.1.2,MacIntel,59.98080614,,,,,,,,,,,down,2.534,45,0,45,0,1,,,,,,,,,,,,,,,,,,,,,
,,,,,,,,,,,,,,,,,,,,,,,,,611605de0a30eebef2479dc3,2021-09-11_17h28.26.669,arrow_simon_vert,2021.1.2,MacIntel,59.98080614,,,,,,,,,,,left,2.5669,46,0,46,0,1,,,,,,,,,,,,,,,,,,,,,
,,,,,,,,,,,,,,,,,,,,,,,,,611605de0a30eebef2479dc3,2021-09-11_17h28.26.669,arrow_simon_vert,2021.1.2,MacIntel,59.98080614,,,,,,,,,,,up,2.5034,47,0,47,0,1,,,,,,,,,,,,,,,,,,,,,
,,,,,,,,,,,,,,,,,,,,,,,,,611605de0a30eebef2479dc3,2021-09-11_17h28.26.669,arrow_simon_vert,2021.1.2,MacIntel,59.98080614,,,,,,,,,,,right,2.4832,48,0,48,0,1,,,,,,,,,,,,,,,,,,,,,
,,,,,,,,,,,,,,,,,,,,,,,,,611605de0a30eebef2479dc3,2021-09-11_17h28.26.669,arrow_simon_vert,2021.1.2,MacIntel,59.98080614,,,,,,,,,,,down,2.5038,49,0,49,0,1,,,,,,,,,,,,,,,,,,,,,
,,,,,,,,,,,,,,,,,,,,,,,,,611605de0a30eebef2479dc3,2021-09-11_17h28.26.669,arrow_simon_vert,2021.1.2,MacIntel,59.98080614,,,,,,,,,,,left,2.6126,50,0,50,0,1,,,,,,,,,,,,,,,,,,,,,
,,,,,,,,,,,,,,,,,,,,,,,,,611605de0a30eebef2479dc3,2021-09-11_17h28.26.669,arrow_simon_vert,2021.1.2,MacIntel,59.98080614,,,,,,,,,,,up,2.5517,51,0,51,0,1,,,,,,,,,,,,,,,,,,,,,
,,,,,,,,,,,,,,,,,,,,,,,,,611605de0a30eebef2479dc3,2021-09-11_17h28.26.669,arrow_simon_vert,2021.1.2,MacIntel,59.98080614,,,,,,,,,,,right,2.6003,52,0,52,0,1,,,,,,,,,,,,,,,,,,,,,
,,,,,,,,,,,,,,,,,,,,,,,,,611605de0a30eebef2479dc3,2021-09-11_17h28.26.669,arrow_simon_vert,2021.1.2,MacIntel,59.98080614,,,,,,,,,,,down,2.5685,53,0,53,0,1,,,,,,,,,,,,,,,,,,,,,
,,,,,,,,,,,,,,,,,,,,,,,,,611605de0a30eebef2479dc3,2021-09-11_17h28.26.669,arrow_simon_vert,2021.1.2,MacIntel,59.98080614,,,,,,,,,,,left,2.5151,54,0,54,0,1,,,,,,,,,,,,,,,,,,,,,
,,,,,,,,,,,,,,,,,,,,,,,,,611605de0a30eebef2479dc3,2021-09-11_17h28.26.669,arrow_simon_vert,2021.1.2,MacIntel,59.98080614,,,,,,,,,,,up,2.5347,55,0,55,0,1,,,,,,,,,,,,,,,,,,,,,
,,,,,,,,,,,,,,,,,,,,,,,,,611605de0a30eebef2479dc3,2021-09-11_17h28.26.669,arrow_simon_vert,2021.1.2,MacIntel,59.98080614,,,,,,,,,,,right,2.6185,56,0,56,0,1,,,,,,,,,,,,,,,,,,,,,
,,,,,,,,,,,,,,,,,,,,,,,,,611605de0a30eebef2479dc3,2021-09-11_17h28.26.669,arrow_simon_vert,2021.1.2,MacIntel,59.98080614,,,,,,,,,,,down,2.4375,57,0,57,0,1,,,,,,,,,,,,,,,,,,,,,
,,,,,,,,,,,,,,,,,,,,,,,,,611605de0a30eebef2479dc3,2021-09-11_17h28.26.669,arrow_simon_vert,2021.1.2,MacIntel,59.98080614,,,,,,,,,,,left,2.4533,58,0,58,0,1,,,,,,,,,,,,,,,,,,,,,
,,,,,,,,,,,,,,,,,,,,,,,,,611605de0a30eebef2479dc3,2021-09-11_17h28.26.669,arrow_simon_vert,2021.1.2,MacIntel,59.98080614,,,,,,,,,,,up,2.4185,59,0,59,0,1,,,,,,,,,,,,,,,,,,,,,
,,,,,,0,1.857133616,#a3d0fb,"[""-0.25"",""0""]",right_blue.png,right,,,,,,,,right,right_blue.png,up_orange.png,up,left,down,611605de0a30eebef2479dc3,2021-09-11_17h28.26.669,arrow_simon_vert,2021.1.2,MacIntel,59.98080614,,,,,,,,,,,,,,,,,,space,0,15.2352,right,1,1.6189,1,TRUE,FALSE,0,0,0,0,1,,,,,,,
,,,,,,0,1.582040274,#f3af84,"[""0"",""0.25""]",up_orange.png,up,,,,,,,,right,right_blue.png,up_orange.png,up,right,up,611605de0a30eebef2479dc3,2021-09-11_17h28.26.669,arrow_simon_vert,2021.1.2,MacIntel,59.98080614,,,,,,,,,,,,,,,,,,,,,up,1,1.3843,2,FALSE,TRUE,0,1,1,1,1,,,,,,,
,,,,,,0,1.749639048,#a3d0fb,"[""0.25"",""0""]",left_blue.png,left,,,,,,,,left,left_blue.png,down_orange.png,down,right,up,611605de0a30eebef2479dc3,2021-09-11_17h28.26.669,arrow_simon_vert,2021.1.2,MacIntel,59.98080614,,,,,,,,,,,,,,,,,,,,,left,1,1.4522,3,FALSE,FALSE,0,2,2,3,1,,,,,,,
,,,,,,0,2.285249384,#f3af84,"[""0"",""-0.25""]",up_orange.png,up,,,,,,,,right,right_blue.png,up_orange.png,up,left,down,611605de0a30eebef2479dc3,2021-09-11_17h28.26.669,arrow_simon_vert,2021.1.2,MacIntel,59.98080614,,,,,,,,,,,,,,,,,,,,,up,1,1.7513,4,TRUE,FALSE,0,3,3,0,1,,,,,,,
,,,,,,0,1.726111816,#a3d0fb,"[""0.25"",""0""]",left_blue.png,left,,,,,,,,left,left_blue.png,down_orange.png,down,right,up,611605de0a30eebef2479dc3,2021-09-11_17h28.26.669,arrow_simon_vert,2021.1.2,MacIntel,59.98080614,,,,,,,,,,,,,,,,,,,,,left,1,1.2187,5,FALSE,TRUE,1,0,4,3,1,,,,,,,
,,,,,,0,1.597995866,#f3af84,"[""0"",""0.25""]",up_orange.png,up,,,,,,,,right,right_blue.png,up_orange.png,up,right,up,611605de0a30eebef2479dc3,2021-09-11_17h28.26.669,arrow_simon_vert,2021.1.2,MacIntel,59.98080614,,,,,,,,,,,,,,,,,,,,,up,1,1.5523,6,FALSE,FALSE,1,1,5,1,1,,,,,,,
,,,,,,0,1.926600813,#a3d0fb,"[""-0.25"",""0""]",left_blue.png,left,,,,,,,,left,left_blue.png,down_orange.png,down,left,down,611605de0a30eebef2479dc3,2021-09-11_17h28.26.669,arrow_simon_vert,2021.1.2,MacIntel,59.98080614,,,,,,,,,,,,,,,,,,,,,left,1,1.6351,7,TRUE,FALSE,1,2,6,2,1,,,,,,,
,,,,,,0,1.813598991,#f3af84,"[""0"",""-0.25""]",up_orange.png,up,,,,,,,,right,right_blue.png,up_orange.png,up,left,down,611605de0a30eebef2479dc3,2021-09-11_17h28.26.669,arrow_simon_vert,2021.1.2,MacIntel,59.98080614,,,,,,,,,,,,,,,,,,,,,up,1,1.3673,8,FALSE,TRUE,1,3,7,0,1,,,,,,,
,,,,,,0,1.652069336,#a3d0fb,"[""-0.25"",""0""]",left_blue.png,left,,,,,,,,left,left_blue.png,down_orange.png,down,left,down,611605de0a30eebef2479dc3,2021-09-11_17h28.26.669,arrow_simon_vert,2021.1.2,MacIntel,59.98080614,,,,,,,,,,,,,,,,,,,,,left,1,1.5337,9,FALSE,FALSE,2,0,8,2,1,,,,,,,
,,,,,,0,2.368670852,#f3af84,"[""0"",""-0.25""]",up_orange.png,up,,,,,,,,right,right_blue.png,up_orange.png,up,left,down,611605de0a30eebef2479dc3,2021-09-11_17h28.26.669,arrow_simon_vert,2021.1.2,MacIntel,59.98080614,,,,,,,,,,,,,,,,,,,,,up,1,1.7498,10,TRUE,FALSE,2,1,9,0,1,,,,,,,
,,,,,,0,2.092591982,#a3d0fb,"[""-0.25"",""0""]",left_blue.png,left,,,,,,,,left,left_blue.png,down_orange.png,down,left,down,611605de0a30eebef2479dc3,2021-09-11_17h28.26.669,arrow_simon_vert,2021.1.2,MacIntel,59.98080614,,,,,,,,,,,,,,,,,,,,,left,1,1.536,11,FALSE,FALSE,2,2,10,2,1,,,,,,,
,,,,,,0,1.91603845,#f3af84,"[""0"",""0.25""]",down_orange.png,down,,,,,,,,left,left_blue.png,down_orange.png,down,right,up,611605de0a30eebef2479dc3,2021-09-11_17h28.26.669,arrow_simon_vert,2021.1.2,MacIntel,59.98080614,,,,,,,,,,,,,,,,,,,,,down,1,1.5177,12,FALSE,FALSE,2,3,11,3,1,,,,,,,
,,,,,,0,2.498962658,#a3d0fb,"[""0.25"",""0""]",right_blue.png,right,,,,,,,,right,right_blue.png,up_orange.png,up,right,up,611605de0a30eebef2479dc3,2021-09-11_17h28.26.669,arrow_simon_vert,2021.1.2,MacIntel,59.98080614,,,,,,,,,,,,,,,,,,,,,left,0,1.9028,13,TRUE,FALSE,3,0,12,1,1,,,,,,,
,,,,,,0,1.522254735,#f3af84,"[""0"",""-0.25""]",down_orange.png,down,,,,,,,,left,left_blue.png,down_orange.png,down,left,down,611605de0a30eebef2479dc3,2021-09-11_17h28.26.669,arrow_simon_vert,2021.1.2,MacIntel,59.98080614,,,,,,,,,,,,,,,,,,,,,down,1,1.1841,14,FALSE,TRUE,3,1,13,2,1,,,,,,,
,,,,,,0,1.768058554,#a3d0fb,"[""-0.25"",""0""]",left_blue.png,left,,,,,,,,left,left_blue.png,down_orange.png,down,left,down,611605de0a30eebef2479dc3,2021-09-11_17h28.26.669,arrow_simon_vert,2021.1.2,MacIntel,59.98080614,,,,,,,,,,,,,,,,,,,,,left,1,1.4252,15,FALSE,FALSE,3,2,14,2,1,,,,,,,
,,,,,,0,2.400395341,#f3af84,"[""0"",""0.25""]",up_orange.png,up,,,,,,,,right,right_blue.png,up_orange.png,up,right,up,611605de0a30eebef2479dc3,2021-09-11_17h28.26.669,arrow_simon_vert,2021.1.2,MacIntel,59.98080614,,,,,,,,,,,,,,,,,,,,,up,1,2.0087,16,TRUE,FALSE,3,3,15,1,1,,,,,,,
,,,,,,0,1.83788018,#a3d0fb,"[""0.25"",""0""]",right_blue.png,right,,,,,,,,right,right_blue.png,up_orange.png,up,right,up,611605de0a30eebef2479dc3,2021-09-11_17h28.26.669,arrow_simon_vert,2021.1.2,MacIntel,59.98080614,,,,,,,,,,,,,,,,,,,,,right,1,1.4466,17,FALSE,FALSE,4,0,16,1,1,,,,,,,
,,,,,,0,2.435446575,#f3af84,"[""0"",""0.25""]",down_orange.png,down,,,,,,,,left,left_blue.png,down_orange.png,down,right,up,611605de0a30eebef2479dc3,2021-09-11_17h28.26.669,arrow_simon_vert,2021.1.2,MacIntel,59.98080614,,,,,,,,,,,,,,,,,,,,,down,1,1.82,18,TRUE,FALSE,4,1,17,3,1,,,,,,,
,,,,,,0,2.387604177,#a3d0fb,"[""0.25"",""0""]",left_blue.png,left,,,,,,,,left,left_blue.png,down_orange.png,down,right,up,611605de0a30eebef2479dc3,2021-09-11_17h28.26.669,arrow_simon_vert,2021.1.2,MacIntel,59.98080614,,,,,,,,,,,,,,,,,,,,,left,1,1.7442,19,TRUE,FALSE,4,2,18,3,1,,,,,,,
,,,,,,0,1.893954346,#f3af84,"[""0"",""0.25""]",down_orange.png,down,,,,,,,,left,left_blue.png,down_orange.png,down,right,up,611605de0a30eebef2479dc3,2021-09-11_17h28.26.669,arrow_simon_vert,2021.1.2,MacIntel,59.98080614,,,,,,,,,,,,,,,,,,,,,down,1,1.3844,20,FALSE,TRUE,4,3,19,3,1,,,,,,,
,,,,,,0,2.399440466,#a3d0fb,"[""-0.25"",""0""]",right_blue.png,right,,,,,,,,right,right_blue.png,up_orange.png,up,left,down,611605de0a30eebef2479dc3,2021-09-11_17h28.26.669,arrow_simon_vert,2021.1.2,MacIntel,59.98080614,,,,,,,,,,,,,,,,,,,,,left,0,1.7543,21,TRUE,FALSE,5,0,20,0,1,,,,,,,
,,,,,,0,2.062675615,#f3af84,"[""0"",""0.25""]",up_orange.png,up,,,,,,,,right,right_blue.png,up_orange.png,up,right,up,611605de0a30eebef2479dc3,2021-09-11_17h28.26.669,arrow_simon_vert,2021.1.2,MacIntel,59.98080614,,,,,,,,,,,,,,,,,,,,,up,1,1.5747,22,FALSE,FALSE,5,1,21,1,1,,,,,,,
,,,,,,0,2.162314668,#a3d0fb,"[""0.25"",""0""]",right_blue.png,right,,,,,,,,right,right_blue.png,up_orange.png,up,right,up,611605de0a30eebef2479dc3,2021-09-11_17h28.26.669,arrow_simon_vert,2021.1.2,MacIntel,59.98080614,,,,,,,,,,,,,,,,,,,,,right,1,1.5669,23,FALSE,FALSE,5,2,22,1,1,,,,,,,
,,,,,,0,2.076614674,#f3af84,"[""0"",""0.25""]",up_orange.png,up,,,,,,,,right,right_blue.png,up_orange.png,up,right,up,611605de0a30eebef2479dc3,2021-09-11_17h28.26.669,arrow_simon_vert,2021.1.2,MacIntel,59.98080614,,,,,,,,,,,,,,,,,,,,,up,1,1.7177,24,TRUE,FALSE,5,3,23,1,1,,,,,,,
,,,,,,0,1.536743412,#a3d0fb,"[""0.25"",""0""]",right_blue.png,right,,,,,,,,right,right_blue.png,up_orange.png,up,right,up,611605de0a30eebef2479dc3,2021-09-11_17h28.26.669,arrow_simon_vert,2021.1.2,MacIntel,59.98080614,,,,,,,,,,,,,,,,,,,,,right,1,1.2149,25,FALSE,TRUE,6,0,24,1,1,,,,,,,
,,,,,,0,1.736400626,#f3af84,"[""0"",""0.25""]",down_orange.png,down,,,,,,,,left,left_blue.png,down_orange.png,down,right,up,611605de0a30eebef2479dc3,2021-09-11_17h28.26.669,arrow_simon_vert,2021.1.2,MacIntel,59.98080614,,,,,,,,,,,,,,,,,,,,,down,1,1.2788,26,FALSE,TRUE,6,1,25,3,1,,,,,,,
,,,,,,0,1.879426513,#a3d0fb,"[""0.25"",""0""]",right_blue.png,right,,,,,,,,right,right_blue.png,up_orange.png,up,right,up,611605de0a30eebef2479dc3,2021-09-11_17h28.26.669,arrow_simon_vert,2021.1.2,MacIntel,59.98080614,,,,,,,,,,,,,,,,,,,,,right,1,1.4009,27,FALSE,FALSE,6,2,26,1,1,,,,,,,
,,,,,,0,2.093415656,#f3af84,"[""0"",""-0.25""]",down_orange.png,down,,,,,,,,left,left_blue.png,down_orange.png,down,left,down,611605de0a30eebef2479dc3,2021-09-11_17h28.26.669,arrow_simon_vert,2021.1.2,MacIntel,59.98080614,,,,,,,,,,,,,,,,,,,,,down,1,1.555,28,FALSE,FALSE,6,3,27,2,1,,,,,,,
,,,,,,0,2.46193512,#a3d0fb,"[""-0.25"",""0""]",left_blue.png,left,,,,,,,,left,left_blue.png,down_orange.png,down,left,down,611605de0a30eebef2479dc3,2021-09-11_17h28.26.669,arrow_simon_vert,2021.1.2,MacIntel,59.98080614,,,,,,,,,,,,,,,,,,,,,left,1,1.8608,29,TRUE,FALSE,7,0,28,2,1,,,,,,,
,,,,,,0,2.010834331,#f3af84,"[""0"",""0.25""]",down_orange.png,down,,,,,,,,left,left_blue.png,down_orange.png,down,right,up,611605de0a30eebef2479dc3,2021-09-11_17h28.26.669,arrow_simon_vert,2021.1.2,MacIntel,59.98080614,,,,,,,,,,,,,,,,,,,,,down,1,1.7009,30,TRUE,FALSE,7,1,29,3,1,,,,,,,
,,,,,,0,1.883060811,#a3d0fb,"[""0.25"",""0""]",left_blue.png,left,,,,,,,,left,left_blue.png,down_orange.png,down,right,up,611605de0a30eebef2479dc3,2021-09-11_17h28.26.669,arrow_simon_vert,2021.1.2,MacIntel,59.98080614,,,,,,,,,,,,,,,,,,,,,left,1,1.4534,31,FALSE,FALSE,7,2,30,3,1,,,,,,,
,,,,,,0,1.942044229,#f3af84,"[""0"",""-0.25""]",down_orange.png,down,,,,,,,,left,left_blue.png,down_orange.png,down,left,down,611605de0a30eebef2479dc3,2021-09-11_17h28.26.669,arrow_simon_vert,2021.1.2,MacIntel,59.98080614,,,,,,,,,,,,,,,,,,,,,down,1,1.3663,32,FALSE,TRUE,7,3,31,2,1,,,,,,,
,,,,,,0,2.471624835,#a3d0fb,"[""-0.25"",""0""]",right_blue.png,right,,,,,,,,right,right_blue.png,up_orange.png,up,left,down,611605de0a30eebef2479dc3,2021-09-11_17h28.26.669,arrow_simon_vert,2021.1.2,MacIntel,59.98080614,,,,,,,,,,,,,,,,,,,,,up,0,1.7683,33,TRUE,FALSE,8,0,32,0,1,,,,,,,
,,,,,,0,1.77670507,#f3af84,"[""0"",""0.25""]",down_orange.png,down,,,,,,,,left,left_blue.png,down_orange.png,down,right,up,611605de0a30eebef2479dc3,2021-09-11_17h28.26.669,arrow_simon_vert,2021.1.2,MacIntel,59.98080614,,,,,,,,,,,,,,,,,,,,,down,1,1.5396,34,FALSE,FALSE,8,1,33,3,1,,,,,,,
,,,,,,0,2.391741414,#a3d0fb,"[""-0.25"",""0""]",left_blue.png,left,,,,,,,,left,left_blue.png,down_orange.png,down,left,down,611605de0a30eebef2479dc3,2021-09-11_17h28.26.669,arrow_simon_vert,2021.1.2,MacIntel,59.98080614,,,,,,,,,,,,,,,,,,,,,right,0,1.301,35,FALSE,TRUE,8,2,34,2,1,,,,,,,
,,,,,,0,2.325509182,#f3af84,"[""0"",""0.25""]",down_orange.png,down,,,,,,,,left,left_blue.png,down_orange.png,down,right,up,611605de0a30eebef2479dc3,2021-09-11_17h28.26.669,arrow_simon_vert,2021.1.2,MacIntel,59.98080614,,,,,,,,,,,,,,,,,,,,,down,1,1.7015,36,TRUE,FALSE,8,3,35,3,1,,,,,,,
,,,,,,0,1.808958488,#a3d0fb,"[""0.25"",""0""]",left_blue.png,left,,,,,,,,left,left_blue.png,down_orange.png,down,right,up,611605de0a30eebef2479dc3,2021-09-11_17h28.26.669,arrow_simon_vert,2021.1.2,MacIntel,59.98080614,,,,,,,,,,,,,,,,,,,,,left,1,1.179,37,FALSE,TRUE,9,0,36,3,1,,,,,,,
,,,,,,0,2.191204509,#f3af84,"[""0"",""0.25""]",down_orange.png,down,,,,,,,,left,left_blue.png,down_orange.png,down,right,up,611605de0a30eebef2479dc3,2021-09-11_17h28.26.669,arrow_simon_vert,2021.1.2,MacIntel,59.98080614,,,,,,,,,,,,,,,,,,,,,down,1,1.9878,38,TRUE,FALSE,9,1,37,3,1,,,,,,,
,,,,,,0,2.304701902,#a3d0fb,"[""-0.25"",""0""]",right_blue.png,right,,,,,,,,right,right_blue.png,up_orange.png,up,left,down,611605de0a30eebef2479dc3,2021-09-11_17h28.26.669,arrow_simon_vert,2021.1.2,MacIntel,59.98080614,,,,,,,,,,,,,,,,,,,,,right,1,1.6999,39,TRUE,FALSE,9,2,38,0,1,,,,,,,
,,,,,,0,1.706463291,#f3af84,"[""0"",""0.25""]",up_orange.png,up,,,,,,,,right,right_blue.png,up_orange.png,up,right,up,611605de0a30eebef2479dc3,2021-09-11_17h28.26.669,arrow_simon_vert,2021.1.2,MacIntel,59.98080614,,,,,,,,,,,,,,,,,,,,,up,1,1.1349,40,FALSE,TRUE,9,3,39,1,1,,,,,,,
,,,,,,0,1.501062916,#a3d0fb,"[""0.25"",""0""]",left_blue.png,left,,,,,,,,left,left_blue.png,down_orange.png,down,right,up,611605de0a30eebef2479dc3,2021-09-11_17h28.26.669,arrow_simon_vert,2021.1.2,MacIntel,59.98080614,,,,,,,,,,,,,,,,,,,,,left,1,1.3834,41,FALSE,TRUE,10,0,40,3,1,,,,,,,
,,,,,,0,2.019735746,#f3af84,"[""0"",""0.25""]",up_orange.png,up,,,,,,,,right,right_blue.png,up_orange.png,up,right,up,611605de0a30eebef2479dc3,2021-09-11_17h28.26.669,arrow_simon_vert,2021.1.2,MacIntel,59.98080614,,,,,,,,,,,,,,,,,,,,,up,1,1.5567,42,FALSE,FALSE,10,1,41,1,1,,,,,,,
,,,,,,0,1.932470491,#a3d0fb,"[""-0.25"",""0""]",right_blue.png,right,,,,,,,,right,right_blue.png,up_orange.png,up,left,down,611605de0a30eebef2479dc3,2021-09-11_17h28.26.669,arrow_simon_vert,2021.1.2,MacIntel,59.98080614,,,,,,,,,,,,,,,,,,,,,right,1,1.3574,43,FALSE,TRUE,10,2,42,0,1,,,,,,,
,,,,,,0,1.956718225,#f3af84,"[""0"",""-0.25""]",down_orange.png,down,,,,,,,,left,left_blue.png,down_orange.png,down,left,down,611605de0a30eebef2479dc3,2021-09-11_17h28.26.669,arrow_simon_vert,2021.1.2,MacIntel,59.98080614,,,,,,,,,,,,,,,,,,,,,down,1,1.4542,44,FALSE,FALSE,10,3,43,2,1,,,,,,,
,,,,,,0,2.069657969,#a3d0fb,"[""-0.25"",""0""]",left_blue.png,left,,,,,,,,left,left_blue.png,down_orange.png,down,left,down,611605de0a30eebef2479dc3,2021-09-11_17h28.26.669,arrow_simon_vert,2021.1.2,MacIntel,59.98080614,,,,,,,,,,,,,,,,,,,,,left,1,1.5344,45,FALSE,FALSE,11,0,44,2,1,,,,,,,
,,,,,,0,1.761653245,#f3af84,"[""0"",""-0.25""]",up_orange.png,up,,,,,,,,right,right_blue.png,up_orange.png,up,left,down,611605de0a30eebef2479dc3,2021-09-11_17h28.26.669,arrow_simon_vert,2021.1.2,MacIntel,59.98080614,,,,,,,,,,,,,,,,,,,,,up,1,1.2436,46,FALSE,TRUE,11,1,45,0,1,,,,,,,
,,,,,,0,2.270512528,#a3d0fb,"[""-0.25"",""0""]",left_blue.png,left,,,,,,,,left,left_blue.png,down_orange.png,down,left,down,611605de0a30eebef2479dc3,2021-09-11_17h28.26.669,arrow_simon_vert,2021.1.2,MacIntel,59.98080614,,,,,,,,,,,,,,,,,,,,,left,1,1.6525,47,TRUE,FALSE,11,2,46,2,1,,,,,,,
,,,,,,0,2.000100126,#f3af84,"[""0"",""-0.25""]",down_orange.png,down,,,,,,,,left,left_blue.png,down_orange.png,down,left,down,611605de0a30eebef2479dc3,2021-09-11_17h28.26.669,arrow_simon_vert,2021.1.2,MacIntel,59.98080614,,,,,,,,,,,,,,,,,,,,,down,1,1.484,48,FALSE,FALSE,11,3,47,2,1,,,,,,,
,,,,,,0,2.308477233,#a3d0fb,"[""-0.25"",""0""]",right_blue.png,right,,,,,,,,right,right_blue.png,up_orange.png,up,left,down,611605de0a30eebef2479dc3,2021-09-11_17h28.26.669,arrow_simon_vert,2021.1.2,MacIntel,59.98080614,,,,,,,,,,,,,,,,,,,,,right,1,1.6679,49,TRUE,FALSE,12,0,48,0,1,,,,,,,
,,,,,,0,2.292663165,#f3af84,"[""0"",""-0.25""]",up_orange.png,up,,,,,,,,right,right_blue.png,up_orange.png,up,left,down,611605de0a30eebef2479dc3,2021-09-11_17h28.26.669,arrow_simon_vert,2021.1.2,MacIntel,59.98080614,,,,,,,,,,,,,,,,,,,,,up,1,1.7024,50,TRUE,FALSE,12,1,49,0,1,,,,,,,
,,,,,,0,1.802448771,#a3d0fb,"[""-0.25"",""0""]",right_blue.png,right,,,,,,,,right,right_blue.png,up_orange.png,up,left,down,611605de0a30eebef2479dc3,2021-09-11_17h28.26.669,arrow_simon_vert,2021.1.2,MacIntel,59.98080614,,,,,,,,,,,,,,,,,,,,,right,1,1.2063,51,FALSE,TRUE,12,2,50,0,1,,,,,,,
,,,,,,0,2.276918992,#f3af84,"[""0"",""0.25""]",up_orange.png,up,,,,,,,,right,right_blue.png,up_orange.png,up,right,up,611605de0a30eebef2479dc3,2021-09-11_17h28.26.669,arrow_simon_vert,2021.1.2,MacIntel,59.98080614,,,,,,,,,,,,,,,,,,,,,up,1,1.6351,52,TRUE,FALSE,12,3,51,1,1,,,,,,,
,,,,,,0,2.200850454,#a3d0fb,"[""-0.25"",""0""]",left_blue.png,left,,,,,,,,left,left_blue.png,down_orange.png,down,left,down,611605de0a30eebef2479dc3,2021-09-11_17h28.26.669,arrow_simon_vert,2021.1.2,MacIntel,59.98080614,,,,,,,,,,,,,,,,,,,,,left,1,1.5349,53,FALSE,FALSE,13,0,52,2,1,,,,,,,
,,,,,,0,1.86437228,#f3af84,"[""0"",""0.25""]",up_orange.png,up,,,,,,,,right,right_blue.png,up_orange.png,up,right,up,611605de0a30eebef2479dc3,2021-09-11_17h28.26.669,arrow_simon_vert,2021.1.2,MacIntel,59.98080614,,,,,,,,,,,,,,,,,,,,,up,1,1.481,54,FALSE,FALSE,13,1,53,1,1,,,,,,,
,,,,,,0,2.016081148,#a3d0fb,"[""-0.25"",""0""]",right_blue.png,right,,,,,,,,right,right_blue.png,up_orange.png,up,left,down,611605de0a30eebef2479dc3,2021-09-11_17h28.26.669,arrow_simon_vert,2021.1.2,MacIntel,59.98080614,,,,,,,,,,,,,,,,,,,,,right,1,1.4465,55,FALSE,FALSE,13,2,54,0,1,,,,,,,
,,,,,,0,2.39237507,#f3af84,"[""0"",""0.25""]",up_orange.png,up,,,,,,,,right,right_blue.png,up_orange.png,up,right,up,611605de0a30eebef2479dc3,2021-09-11_17h28.26.669,arrow_simon_vert,2021.1.2,MacIntel,59.98080614,,,,,,,,,,,,,,,,,,,,,up,1,1.8009,56,TRUE,FALSE,13,3,55,1,1,,,,,,,
,,,,,,0,2.275948935,#a3d0fb,"[""-0.25"",""0""]",left_blue.png,left,,,,,,,,left,left_blue.png,down_orange.png,down,left,down,611605de0a30eebef2479dc3,2021-09-11_17h28.26.669,arrow_simon_vert,2021.1.2,MacIntel,59.98080614,,,,,,,,,,,,,,,,,,,,,left,1,1.6173,57,TRUE,FALSE,14,0,56,2,1,,,,,,,
,,,,,,0,2.029022705,#f3af84,"[""0"",""-0.25""]",up_orange.png,up,,,,,,,,right,right_blue.png,up_orange.png,up,left,down,611605de0a30eebef2479dc3,2021-09-11_17h28.26.669,arrow_simon_vert,2021.1.2,MacIntel,59.98080614,,,,,,,,,,,,,,,,,,,,,up,1,1.6299,58,TRUE,FALSE,14,1,57,0,1,,,,,,,
,,,,,,0,2.286149748,#a3d0fb,"[""-0.25"",""0""]",right_blue.png,right,,,,,,,,right,right_blue.png,up_orange.png,up,left,down,611605de0a30eebef2479dc3,2021-09-11_17h28.26.669,arrow_simon_vert,2021.1.2,MacIntel,59.98080614,,,,,,,,,,,,,,,,,,,,,left,0,1.6234,59,TRUE,FALSE,14,2,58,0,1,,,,,,,
,,,,,,0,2.267358574,#f3af84,"[""0"",""0.25""]",down_orange.png,down,,,,,,,,left,left_blue.png,down_orange.png,down,right,up,611605de0a30eebef2479dc3,2021-09-11_17h28.26.669,arrow_simon_vert,2021.1.2,MacIntel,59.98080614,,,,,,,,,,,,,,,,,,,,,up,0,1.6176,60,TRUE,FALSE,14,3,59,3,1,,,,,,,
,,,,,,,,,,,,,,,,,,,,,,,,,611605de0a30eebef2479dc3,2021-09-11_17h28.26.669,arrow_simon_vert,2021.1.2,MacIntel,59.98080614,,,,,,,,,,,,,,,,,,,,,,,,,,,,,,,,space,5.9667,0,0,0,0,1
,,,,,,0,2.032651014,#a3d0fb,"[""-0.25"",""0""]",right_blue.png,right,,,,,,,,right,right_blue.png,up_orange.png,up,left,down,611605de0a30eebef2479dc3,2021-09-11_17h28.26.669,arrow_simon_vert,2021.1.2,MacIntel,59.98080614,,,,,,,,,,,,,,,,,,,,,right,1,1.5185,1,FALSE,FALSE,0,0,0,0,1,,,,,,,
,,,,,,0,1.742058466,#f3af84,"[""0"",""-0.25""]",up_orange.png,up,,,,,,,,right,right_blue.png,up_orange.png,up,left,down,611605de0a30eebef2479dc3,2021-09-11_17h28.26.669,arrow_simon_vert,2021.1.2,MacIntel,59.98080614,,,,,,,,,,,,,,,,,,,,,up,1,1.6679,2,TRUE,FALSE,0,1,1,0,1,,,,,,,
,,,,,,0,2.244700388,#a3d0fb,"[""0.25"",""0""]",left_blue.png,left,,,,,,,,left,left_blue.png,down_orange.png,down,right,up,611605de0a30eebef2479dc3,2021-09-11_17h28.26.669,arrow_simon_vert,2021.1.2,MacIntel,59.98080614,,,,,,,,,,,,,,,,,,,,,left,1,1.8622,3,TRUE,FALSE,0,2,2,3,1,,,,,,,
,,,,,,0,2.061154259,#f3af84,"[""0"",""-0.25""]",down_orange.png,down,,,,,,,,left,left_blue.png,down_orange.png,down,left,down,611605de0a30eebef2479dc3,2021-09-11_17h28.26.669,arrow_simon_vert,2021.1.2,MacIntel,59.98080614,,,,,,,,,,,,,,,,,,,,,down,1,1.557,4,FALSE,FALSE,0,3,3,2,1,,,,,,,
,,,,,,0,1.622318712,#a3d0fb,"[""0.25"",""0""]",left_blue.png,left,,,,,,,,left,left_blue.png,down_orange.png,down,right,up,611605de0a30eebef2479dc3,2021-09-11_17h28.26.669,arrow_simon_vert,2021.1.2,MacIntel,59.98080614,,,,,,,,,,,,,,,,,,,,,left,1,1.1982,5,FALSE,TRUE,1,0,4,3,1,,,,,,,
,,,,,,0,2.417305999,#f3af84,"[""0"",""-0.25""]",up_orange.png,up,,,,,,,,right,right_blue.png,up_orange.png,up,left,down,611605de0a30eebef2479dc3,2021-09-11_17h28.26.669,arrow_simon_vert,2021.1.2,MacIntel,59.98080614,,,,,,,,,,,,,,,,,,,,,up,1,1.8348,6,TRUE,FALSE,1,1,5,0,1,,,,,,,
,,,,,,0,1.751478962,#a3d0fb,"[""0.25"",""0""]",left_blue.png,left,,,,,,,,left,left_blue.png,down_orange.png,down,right,up,611605de0a30eebef2479dc3,2021-09-11_17h28.26.669,arrow_simon_vert,2021.1.2,MacIntel,59.98080614,,,,,,,,,,,,,,,,,,,,,left,1,1.3181,7,FALSE,TRUE,1,2,6,3,1,,,,,,,
,,,,,,0,2.36229522,#f3af84,"[""0"",""-0.25""]",up_orange.png,up,,,,,,,,right,right_blue.png,up_orange.png,up,left,down,611605de0a30eebef2479dc3,2021-09-11_17h28.26.669,arrow_simon_vert,2021.1.2,MacIntel,59.98080614,,,,,,,,,,,,,,,,,,,,,up,1,1.7813,8,TRUE,FALSE,1,3,7,0,1,,,,,,,
,,,,,,0,1.727447616,#a3d0fb,"[""0.25"",""0""]",right_blue.png,right,,,,,,,,right,right_blue.png,up_orange.png,up,right,up,611605de0a30eebef2479dc3,2021-09-11_17h28.26.669,arrow_simon_vert,2021.1.2,MacIntel,59.98080614,,,,,,,,,,,,,,,,,,,,,right,1,1.2828,9,FALSE,TRUE,2,0,8,1,1,,,,,,,
,,,,,,0,2.450790073,#f3af84,"[""0"",""-0.25""]",down_orange.png,down,,,,,,,,left,left_blue.png,down_orange.png,down,left,down,611605de0a30eebef2479dc3,2021-09-11_17h28.26.669,arrow_simon_vert,2021.1.2,MacIntel,59.98080614,,,,,,,,,,,,,,,,,,,,,up,0,1.7175,10,TRUE,FALSE,2,1,9,2,1,,,,,,,
,,,,,,0,2.411870851,#a3d0fb,"[""-0.25"",""0""]",left_blue.png,left,,,,,,,,left,left_blue.png,down_orange.png,down,left,down,611605de0a30eebef2479dc3,2021-09-11_17h28.26.669,arrow_simon_vert,2021.1.2,MacIntel,59.98080614,,,,,,,,,,,,,,,,,,,,,left,1,1.7516,11,TRUE,FALSE,2,2,10,2,1,,,,,,,
,,,,,,0,2.189836465,#f3af84,"[""0"",""-0.25""]",down_orange.png,down,,,,,,,,left,left_blue.png,down_orange.png,down,left,down,611605de0a30eebef2479dc3,2021-09-11_17h28.26.669,arrow_simon_vert,2021.1.2,MacIntel,59.98080614,,,,,,,,,,,,,,,,,,,,,down,1,1.5621,12,FALSE,FALSE,2,3,11,2,1,,,,,,,
,,,,,,0,2.064427895,#a3d0fb,"[""-0.25"",""0""]",left_blue.png,left,,,,,,,,left,left_blue.png,down_orange.png,down,left,down,611605de0a30eebef2479dc3,2021-09-11_17h28.26.669,arrow_simon_vert,2021.1.2,MacIntel,59.98080614,,,,,,,,,,,,,,,,,,,,,left,1,1.5869,13,FALSE,FALSE,3,0,12,2,1,,,,,,,
,,,,,,0,1.756087902,#f3af84,"[""0"",""-0.25""]",down_orange.png,down,,,,,,,,left,left_blue.png,down_orange.png,down,left,down,611605de0a30eebef2479dc3,2021-09-11_17h28.26.669,arrow_simon_vert,2021.1.2,MacIntel,59.98080614,,,,,,,,,,,,,,,,,,,,,down,1,1.4346,14,FALSE,FALSE,3,1,13,2,1,,,,,,,
,,,,,,0,1.600899928,#a3d0fb,"[""-0.25"",""0""]",right_blue.png,right,,,,,,,,right,right_blue.png,up_orange.png,up,left,down,611605de0a30eebef2479dc3,2021-09-11_17h28.26.669,arrow_simon_vert,2021.1.2,MacIntel,59.98080614,,,,,,,,,,,,,,,,,,,,,right,1,1.4468,15,FALSE,FALSE,3,2,14,0,1,,,,,,,
,,,,,,0,1.783119732,#f3af84,"[""0"",""0.25""]",down_orange.png,down,,,,,,,,left,left_blue.png,down_orange.png,down,right,up,611605de0a30eebef2479dc3,2021-09-11_17h28.26.669,arrow_simon_vert,2021.1.2,MacIntel,59.98080614,,,,,,,,,,,,,,,,,,,,,down,1,1.4073,16,FALSE,FALSE,3,3,15,3,1,,,,,,,
,,,,,,0,1.522208816,#a3d0fb,"[""-0.25"",""0""]",left_blue.png,left,,,,,,,,left,left_blue.png,down_orange.png,down,left,down,611605de0a30eebef2479dc3,2021-09-11_17h28.26.669,arrow_simon_vert,2021.1.2,MacIntel,59.98080614,,,,,,,,,,,,,,,,,,,,,left,1,1.4354,17,FALSE,FALSE,4,0,16,2,1,,,,,,,
,,,,,,0,1.728366886,#f3af84,"[""0"",""0.25""]",up_orange.png,up,,,,,,,,right,right_blue.png,up_orange.png,up,right,up,611605de0a30eebef2479dc3,2021-09-11_17h28.26.669,arrow_simon_vert,2021.1.2,MacIntel,59.98080614,,,,,,,,,,,,,,,,,,,,,up,1,1.3678,18,FALSE,TRUE,4,1,17,1,1,,,,,,,
,,,,,,0,2.156424597,#a3d0fb,"[""0.25"",""0""]",left_blue.png,left,,,,,,,,left,left_blue.png,down_orange.png,down,right,up,611605de0a30eebef2479dc3,2021-09-11_17h28.26.669,arrow_simon_vert,2021.1.2,MacIntel,59.98080614,,,,,,,,,,,,,,,,,,,,,left,1,1.6176,19,TRUE,FALSE,4,2,18,3,1,,,,,,,
,,,,,,1,2.135311148,#f3af84,"[""0"",""-0.25""]",up_orange.png,up,,,,,,,,right,right_blue.png,up_orange.png,up,left,down,611605de0a30eebef2479dc3,2021-09-11_17h28.26.669,arrow_simon_vert,2021.1.2,MacIntel,59.98080614,,,,,,,,,,,,,,,,,,,,,down,0,1.5707,20,FALSE,FALSE,4,3,19,0,1,,,,,,,
,,,,,,0,1.911747503,#a3d0fb,"[""-0.25"",""0""]",left_blue.png,left,,,,,,,,left,left_blue.png,down_orange.png,down,left,down,611605de0a30eebef2479dc3,2021-09-11_17h28.26.669,arrow_simon_vert,2021.1.2,MacIntel,59.98080614,,,,,,,,,,,,,,,,,,,,,left,1,1.5016,21,FALSE,FALSE,5,0,20,2,1,,,,,,,
,,,,,,0,2.430861462,#f3af84,"[""0"",""-0.25""]",down_orange.png,down,,,,,,,,left,left_blue.png,down_orange.png,down,left,down,611605de0a30eebef2479dc3,2021-09-11_17h28.26.669,arrow_simon_vert,2021.1.2,MacIntel,59.98080614,,,,,,,,,,,,,,,,,,,,,left,0,1.8338,22,TRUE,FALSE,5,1,21,2,1,,,,,,,
,,,,,,0,2.360772931,#a3d0fb,"[""0.25"",""0""]",right_blue.png,right,,,,,,,,right,right_blue.png,up_orange.png,up,right,up,611605de0a30eebef2479dc3,2021-09-11_17h28.26.669,arrow_simon_vert,2021.1.2,MacIntel,59.98080614,,,,,,,,,,,,,,,,,,,,,right,1,1.7506,23,TRUE,FALSE,5,2,22,1,1,,,,,,,
,,,,,,0,1.896238012,#f3af84,"[""0"",""-0.25""]",up_orange.png,up,,,,,,,,right,right_blue.png,up_orange.png,up,left,down,611605de0a30eebef2479dc3,2021-09-11_17h28.26.669,arrow_simon_vert,2021.1.2,MacIntel,59.98080614,,,,,,,,,,,,,,,,,,,,,up,1,1.4279,24,FALSE,FALSE,5,3,23,0,1,,,,,,,
,,,,,,0,1.916408254,#a3d0fb,"[""0.25"",""0""]",right_blue.png,right,,,,,,,,right,right_blue.png,up_orange.png,up,right,up,611605de0a30eebef2479dc3,2021-09-11_17h28.26.669,arrow_simon_vert,2021.1.2,MacIntel,59.98080614,,,,,,,,,,,,,,,,,,,,,right,1,1.388,25,FALSE,TRUE,6,0,24,1,1,,,,,,,
,,,,,,0,2.305844277,#f3af84,"[""0"",""0.25""]",up_orange.png,up,,,,,,,,right,right_blue.png,up_orange.png,up,right,up,611605de0a30eebef2479dc3,2021-09-11_17h28.26.669,arrow_simon_vert,2021.1.2,MacIntel,59.98080614,,,,,,,,,,,,,,,,,,,,,up,1,1.7334,26,TRUE,FALSE,6,1,25,1,1,,,,,,,
,,,,,,0,2.352155382,#a3d0fb,"[""0.25"",""0""]",left_blue.png,left,,,,,,,,left,left_blue.png,down_orange.png,down,right,up,611605de0a30eebef2479dc3,2021-09-11_17h28.26.669,arrow_simon_vert,2021.1.2,MacIntel,59.98080614,,,,,,,,,,,,,,,,,,,,,left,1,1.7186,27,TRUE,FALSE,6,2,26,3,1,,,,,,,
,,,,,,0,2.302971462,#f3af84,"[""0"",""-0.25""]",up_orange.png,up,,,,,,,,right,right_blue.png,up_orange.png,up,left,down,611605de0a30eebef2479dc3,2021-09-11_17h28.26.669,arrow_simon_vert,2021.1.2,MacIntel,59.98080614,,,,,,,,,,,,,,,,,,,,,up,1,1.7512,28,TRUE,FALSE,6,3,27,0,1,,,,,,,
,,,,,,0,2.181488322,#a3d0fb,"[""0.25"",""0""]",left_blue.png,left,,,,,,,,left,left_blue.png,down_orange.png,down,right,up,611605de0a30eebef2479dc3,2021-09-11_17h28.26.669,arrow_simon_vert,2021.1.2,MacIntel,59.98080614,,,,,,,,,,,,,,,,,,,,,left,1,1.5905,29,FALSE,FALSE,7,0,28,3,1,,,,,,,
,,,,,,0,2.187653904,#f3af84,"[""0"",""0.25""]",down_orange.png,down,,,,,,,,left,left_blue.png,down_orange.png,down,right,up,611605de0a30eebef2479dc3,2021-09-11_17h28.26.669,arrow_simon_vert,2021.1.2,MacIntel,59.98080614,,,,,,,,,,,,,,,,,,,,,down,1,1.7168,30,TRUE,FALSE,7,1,29,3,1,,,,,,,
,,,,,,0,2.081696561,#a3d0fb,"[""-0.25"",""0""]",right_blue.png,right,,,,,,,,right,right_blue.png,up_orange.png,up,left,down,611605de0a30eebef2479dc3,2021-09-11_17h28.26.669,arrow_simon_vert,2021.1.2,MacIntel,59.98080614,,,,,,,,,,,,,,,,,,,,,right,1,1.6344,31,TRUE,FALSE,7,2,30,0,1,,,,,,,
,,,,,,0,2.161211459,#f3af84,"[""0"",""0.25""]",down_orange.png,down,,,,,,,,left,left_blue.png,down_orange.png,down,right,up,611605de0a30eebef2479dc3,2021-09-11_17h28.26.669,arrow_simon_vert,2021.1.2,MacIntel,59.98080614,,,,,,,,,,,,,,,,,,,,,down,1,1.6543,32,TRUE,FALSE,7,3,31,3,1,,,,,,,
,,,,,,0,2.322466366,#a3d0fb,"[""0.25"",""0""]",left_blue.png,left,,,,,,,,left,left_blue.png,down_orange.png,down,right,up,611605de0a30eebef2479dc3,2021-09-11_17h28.26.669,arrow_simon_vert,2021.1.2,MacIntel,59.98080614,,,,,,,,,,,,,,,,,,,,,left,1,1.7686,33,TRUE,FALSE,8,0,32,3,1,,,,,,,
,,,,,,0,1.71451462,#f3af84,"[""0"",""0.25""]",up_orange.png,up,,,,,,,,right,right_blue.png,up_orange.png,up,right,up,611605de0a30eebef2479dc3,2021-09-11_17h28.26.669,arrow_simon_vert,2021.1.2,MacIntel,59.98080614,,,,,,,,,,,,,,,,,,,,,up,1,1.4034,34,FALSE,FALSE,8,1,33,1,1,,,,,,,
,,,,,,0,1.988456507,#a3d0fb,"[""0.25"",""0""]",right_blue.png,right,,,,,,,,right,right_blue.png,up_orange.png,up,right,up,611605de0a30eebef2479dc3,2021-09-11_17h28.26.669,arrow_simon_vert,2021.1.2,MacIntel,59.98080614,,,,,,,,,,,,,,,,,,,,,right,1,1.5002,35,FALSE,FALSE,8,2,34,1,1,,,,,,,
,,,,,,0,2.463804037,#f3af84,"[""0"",""0.25""]",down_orange.png,down,,,,,,,,left,left_blue.png,down_orange.png,down,right,up,611605de0a30eebef2479dc3,2021-09-11_17h28.26.669,arrow_simon_vert,2021.1.2,MacIntel,59.98080614,,,,,,,,,,,,,,,,,,,,,down,1,1.8843,36,TRUE,FALSE,8,3,35,3,1,,,,,,,
,,,,,,0,1.916478562,#a3d0fb,"[""0.25"",""0""]",right_blue.png,right,,,,,,,,right,right_blue.png,up_orange.png,up,right,up,611605de0a30eebef2479dc3,2021-09-11_17h28.26.669,arrow_simon_vert,2021.1.2,MacIntel,59.98080614,,,,,,,,,,,,,,,,,,,,,right,1,1.4646,37,FALSE,FALSE,9,0,36,1,1,,,,,,,
,,,,,,0,1.699696659,#f3af84,"[""0"",""0.25""]",up_orange.png,up,,,,,,,,right,right_blue.png,up_orange.png,up,right,up,611605de0a30eebef2479dc3,2021-09-11_17h28.26.669,arrow_simon_vert,2021.1.2,MacIntel,59.98080614,,,,,,,,,,,,,,,,,,,,,up,1,1.1515,38,FALSE,TRUE,9,1,37,1,1,,,,,,,
,,,,,,0,1.732406074,#a3d0fb,"[""-0.25"",""0""]",left_blue.png,left,,,,,,,,left,left_blue.png,down_orange.png,down,left,down,611605de0a30eebef2479dc3,2021-09-11_17h28.26.669,arrow_simon_vert,2021.1.2,MacIntel,59.98080614,,,,,,,,,,,,,,,,,,,,,left,1,1.5679,39,FALSE,FALSE,9,2,38,2,1,,,,,,,
,,,,,,0,1.810986962,#f3af84,"[""0"",""0.25""]",down_orange.png,down,,,,,,,,left,left_blue.png,down_orange.png,down,right,up,611605de0a30eebef2479dc3,2021-09-11_17h28.26.669,arrow_simon_vert,2021.1.2,MacIntel,59.98080614,,,,,,,,,,,,,,,,,,,,,down,1,1.4018,40,FALSE,FALSE,9,3,39,3,1,,,,,,,
,,,,,,0,2.157454439,#a3d0fb,"[""-0.25"",""0""]",left_blue.png,left,,,,,,,,left,left_blue.png,down_orange.png,down,left,down,611605de0a30eebef2479dc3,2021-09-11_17h28.26.669,arrow_simon_vert,2021.1.2,MacIntel,59.98080614,,,,,,,,,,,,,,,,,,,,,left,1,1.7041,41,TRUE,FALSE,10,0,40,2,1,,,,,,,
,,,,,,1,2.055637772,#f3af84,"[""0"",""-0.25""]",up_orange.png,up,,,,,,,,right,right_blue.png,up_orange.png,up,left,down,611605de0a30eebef2479dc3,2021-09-11_17h28.26.669,arrow_simon_vert,2021.1.2,MacIntel,59.98080614,,,,,,,,,,,,,,,,,,,,,down,0,1.4677,42,FALSE,FALSE,10,1,41,0,1,,,,,,,
,,,,,,1,1.94320633,#a3d0fb,"[""0.25"",""0""]",left_blue.png,left,,,,,,,,left,left_blue.png,down_orange.png,down,right,up,611605de0a30eebef2479dc3,2021-09-11_17h28.26.669,arrow_simon_vert,2021.1.2,MacIntel,59.98080614,,,,,,,,,,,,,,,,,,,,,left,1,1.3187,43,FALSE,TRUE,10,2,42,3,1,,,,,,,
,,,,,,0,1.895083686,#f3af84,"[""0"",""0.25""]",down_orange.png,down,,,,,,,,left,left_blue.png,down_orange.png,down,right,up,611605de0a30eebef2479dc3,2021-09-11_17h28.26.669,arrow_simon_vert,2021.1.2,MacIntel,59.98080614,,,,,,,,,,,,,,,,,,,,,down,1,1.4337,44,FALSE,FALSE,10,3,43,3,1,,,,,,,
,,,,,,0,2.248250193,#a3d0fb,"[""0.25"",""0""]",right_blue.png,right,,,,,,,,right,right_blue.png,up_orange.png,up,right,up,611605de0a30eebef2479dc3,2021-09-11_17h28.26.669,arrow_simon_vert,2021.1.2,MacIntel,59.98080614,,,,,,,,,,,,,,,,,,,,,right,1,1.6839,45,TRUE,FALSE,11,0,44,1,1,,,,,,,
,,,,,,0,2.398772312,#f3af84,"[""0"",""0.25""]",up_orange.png,up,,,,,,,,right,right_blue.png,up_orange.png,up,right,up,611605de0a30eebef2479dc3,2021-09-11_17h28.26.669,arrow_simon_vert,2021.1.2,MacIntel,59.98080614,,,,,,,,,,,,,,,,,,,,,up,1,1.8353,46,TRUE,FALSE,11,1,45,1,1,,,,,,,
,,,,,,0,2.441999792,#a3d0fb,"[""0.25"",""0""]",right_blue.png,right,,,,,,,,right,right_blue.png,up_orange.png,up,right,up,611605de0a30eebef2479dc3,2021-09-11_17h28.26.669,arrow_simon_vert,2021.1.2,MacIntel,59.98080614,,,,,,,,,,,,,,,,,,,,,right,1,2.4376,47,TRUE,FALSE,11,2,46,1,1,,,,,,,
,,,,,,0,2.470509249,#f3af84,"[""0"",""-0.25""]",up_orange.png,up,,,,,,,,right,right_blue.png,up_orange.png,up,left,down,611605de0a30eebef2479dc3,2021-09-11_17h28.26.669,arrow_simon_vert,2021.1.2,MacIntel,59.98080614,,,,,,,,,,,,,,,,,,,,,left,0,1.7484,48,TRUE,FALSE,11,3,47,0,1,,,,,,,
,,,,,,0,2.094065607,#a3d0fb,"[""-0.25"",""0""]",right_blue.png,right,,,,,,,,right,right_blue.png,up_orange.png,up,left,down,611605de0a30eebef2479dc3,2021-09-11_17h28.26.669,arrow_simon_vert,2021.1.2,MacIntel,59.98080614,,,,,,,,,,,,,,,,,,,,,right,1,1.4825,49,FALSE,FALSE,12,0,48,0,1,,,,,,,
,,,,,,0,1.759394213,#f3af84,"[""0"",""0.25""]",up_orange.png,up,,,,,,,,right,right_blue.png,up_orange.png,up,right,up,611605de0a30eebef2479dc3,2021-09-11_17h28.26.669,arrow_simon_vert,2021.1.2,MacIntel,59.98080614,,,,,,,,,,,,,,,,,,,,,up,1,1.2501,50,FALSE,TRUE,12,1,49,1,1,,,,,,,
,,,,,,0,1.735231721,#a3d0fb,"[""-0.25"",""0""]",right_blue.png,right,,,,,,,,right,right_blue.png,up_orange.png,up,left,down,611605de0a30eebef2479dc3,2021-09-11_17h28.26.669,arrow_simon_vert,2021.1.2,MacIntel,59.98080614,,,,,,,,,,,,,,,,,,,,,right,1,1.2512,51,FALSE,TRUE,12,2,50,0,1,,,,,,,
,,,,,,0,1.521817196,#f3af84,"[""0"",""-0.25""]",down_orange.png,down,,,,,,,,left,left_blue.png,down_orange.png,down,left,down,611605de0a30eebef2479dc3,2021-09-11_17h28.26.669,arrow_simon_vert,2021.1.2,MacIntel,59.98080614,,,,,,,,,,,,,,,,,,,,,up,0,1.1178,52,FALSE,TRUE,12,3,51,2,1,,,,,,,
,,,,,,0,2.48381063,#a3d0fb,"[""-0.25"",""0""]",right_blue.png,right,,,,,,,,right,right_blue.png,up_orange.png,up,left,down,611605de0a30eebef2479dc3,2021-09-11_17h28.26.669,arrow_simon_vert,2021.1.2,MacIntel,59.98080614,,,,,,,,,,,,,,,,,,,,,right,1,1.9115,53,TRUE,FALSE,13,0,52,0,1,,,,,,,
,,,,,,0,1.667568714,#f3af84,"[""0"",""-0.25""]",down_orange.png,down,,,,,,,,left,left_blue.png,down_orange.png,down,left,down,611605de0a30eebef2479dc3,2021-09-11_17h28.26.669,arrow_simon_vert,2021.1.2,MacIntel,59.98080614,,,,,,,,,,,,,,,,,,,,,down,1,1.2673,54,FALSE,TRUE,13,1,53,2,1,,,,,,,
,,,,,,0,1.845141364,#a3d0fb,"[""-0.25"",""0""]",left_blue.png,left,,,,,,,,left,left_blue.png,down_orange.png,down,left,down,611605de0a30eebef2479dc3,2021-09-11_17h28.26.669,arrow_simon_vert,2021.1.2,MacIntel,59.98080614,,,,,,,,,,,,,,,,,,,,,left,1,1.2054,55,FALSE,TRUE,13,2,54,2,1,,,,,,,
,,,,,,0,2.034149439,#f3af84,"[""0"",""0.25""]",down_orange.png,down,,,,,,,,left,left_blue.png,down_orange.png,down,right,up,611605de0a30eebef2479dc3,2021-09-11_17h28.26.669,arrow_simon_vert,2021.1.2,MacIntel,59.98080614,,,,,,,,,,,,,,,,,,,,,down,1,1.5356,56,FALSE,FALSE,13,3,55,3,1,,,,,,,
,,,,,,0,2.275212503,#a3d0fb,"[""-0.25"",""0""]",left_blue.png,left,,,,,,,,left,left_blue.png,down_orange.png,down,left,down,611605de0a30eebef2479dc3,2021-09-11_17h28.26.669,arrow_simon_vert,2021.1.2,MacIntel,59.98080614,,,,,,,,,,,,,,,,,,,,,left,1,1.6509,57,TRUE,FALSE,14,0,56,2,1,,,,,,,
,,,,,,0,1.728144568,#f3af84,"[""0"",""0.25""]",up_orange.png,up,,,,,,,,right,right_blue.png,up_orange.png,up,right,up,611605de0a30eebef2479dc3,2021-09-11_17h28.26.669,arrow_simon_vert,2021.1.2,MacIntel,59.98080614,,,,,,,,,,,,,,,,,,,,,up,1,1.1341,58,FALSE,TRUE,14,1,57,1,1,,,,,,,
,,,,,,0,2.073625597,#a3d0fb,"[""0.25"",""0""]",right_blue.png,right,,,,,,,,right,right_blue.png,up_orange.png,up,right,up,611605de0a30eebef2479dc3,2021-09-11_17h28.26.669,arrow_simon_vert,2021.1.2,MacIntel,59.98080614,,,,,,,,,,,,,,,,,,,,,right,1,1.4663,59,FALSE,FALSE,14,2,58,1,1,,,,,,,
,,,,,,0,2.288457044,#f3af84,"[""0"",""-0.25""]",up_orange.png,up,,,,,,,,right,right_blue.png,up_orange.png,up,left,down,611605de0a30eebef2479dc3,2021-09-11_17h28.26.669,arrow_simon_vert,2021.1.2,MacIntel,59.98080614,,,,,,,,,,,,,,,,,,,,,up,1,1.6884,60,TRUE,FALSE,14,3,59,0,1,,,,,,,
,,,,,,,,,,,,,,,,,,,,,,,,,611605de0a30eebef2479dc3,2021-09-11_17h28.26.669,arrow_simon_vert,2021.1.2,MacIntel,59.98080614,,,,,,,,,,,,,,,,,,,,,,,,,,,,,,,,space,2.1353,1,0,1,0,1
,,,,,,0,1.863071177,#a3d0fb,"[""0.25"",""0""]",right_blue.png,right,,,,,,,,right,right_blue.png,up_orange.png,up,right,up,611605de0a30eebef2479dc3,2021-09-11_17h28.26.669,arrow_simon_vert,2021.1.2,MacIntel,59.98080614,,,,,,,,,,,,,,,,,,,,,right,1,1.2451,1,FALSE,TRUE,0,0,0,1,1,,,,,,,
,,,,,,0,1.906969388,#f3af84,"[""0"",""0.25""]",down_orange.png,down,,,,,,,,left,left_blue.png,down_orange.png,down,right,up,611605de0a30eebef2479dc3,2021-09-11_17h28.26.669,arrow_simon_vert,2021.1.2,MacIntel,59.98080614,,,,,,,,,,,,,,,,,,,,,down,1,1.3857,2,FALSE,TRUE,0,1,1,3,1,,,,,,,
,,,,,,1,2.031399641,#a3d0fb,"[""-0.25"",""0""]",right_blue.png,right,,,,,,,,right,right_blue.png,up_orange.png,up,left,down,611605de0a30eebef2479dc3,2021-09-11_17h28.26.669,arrow_simon_vert,2021.1.2,MacIntel,59.98080614,,,,,,,,,,,,,,,,,,,,,down,0,1.4019,3,FALSE,FALSE,0,2,2,0,1,,,,,,,
,,,,,,1,2.2443956,#f3af84,"[""0"",""-0.25""]",up_orange.png,up,,,,,,,,right,right_blue.png,up_orange.png,up,left,down,611605de0a30eebef2479dc3,2021-09-11_17h28.26.669,arrow_simon_vert,2021.1.2,MacIntel,59.98080614,,,,,,,,,,,,,,,,,,,,,up,1,1.6848,4,TRUE,FALSE,0,3,3,0,1,,,,,,,
,,,,,,1,1.922924394,#a3d0fb,"[""-0.25"",""0""]",left_blue.png,left,,,,,,,,left,left_blue.png,down_orange.png,down,left,down,611605de0a30eebef2479dc3,2021-09-11_17h28.26.669,arrow_simon_vert,2021.1.2,MacIntel,59.98080614,,,,,,,,,,,,,,,,,,,,,left,1,1.3991,5,FALSE,TRUE,1,0,4,2,1,,,,,,,
,,,,,,1,1.504763501,#f3af84,"[""0"",""-0.25""]",down_orange.png,down,,,,,,,,left,left_blue.png,down_orange.png,down,left,down,611605de0a30eebef2479dc3,2021-09-11_17h28.26.669,arrow_simon_vert,2021.1.2,MacIntel,59.98080614,,,,,,,,,,,,,,,,,,,,,down,1,1.2674,6,FALSE,TRUE,1,1,5,2,1,,,,,,,
,,,,,,0,1.624043225,#a3d0fb,"[""-0.25"",""0""]",right_blue.png,right,,,,,,,,right,right_blue.png,up_orange.png,up,left,down,611605de0a30eebef2479dc3,2021-09-11_17h28.26.669,arrow_simon_vert,2021.1.2,MacIntel,59.98080614,,,,,,,,,,,,,,,,,,,,,right,1,1.4498,7,FALSE,FALSE,1,2,6,0,1,,,,,,,
,,,,,,0,2.368414258,#f3af84,"[""0"",""-0.25""]",up_orange.png,up,,,,,,,,right,right_blue.png,up_orange.png,up,left,down,611605de0a30eebef2479dc3,2021-09-11_17h28.26.669,arrow_simon_vert,2021.1.2,MacIntel,59.98080614,,,,,,,,,,,,,,,,,,,,,up,1,1.7844,8,TRUE,FALSE,1,3,7,0,1,,,,,,,
,,,,,,0,2.437439254,#a3d0fb,"[""-0.25"",""0""]",right_blue.png,right,,,,,,,,right,right_blue.png,up_orange.png,up,left,down,611605de0a30eebef2479dc3,2021-09-11_17h28.26.669,arrow_simon_vert,2021.1.2,MacIntel,59.98080614,,,,,,,,,,,,,,,,,,,,,left,0,1.8012,9,TRUE,FALSE,2,0,8,0,1,,,,,,,
,,,,,,0,1.605755031,#f3af84,"[""0"",""0.25""]",up_orange.png,up,,,,,,,,right,right_blue.png,up_orange.png,up,right,up,611605de0a30eebef2479dc3,2021-09-11_17h28.26.669,arrow_simon_vert,2021.1.2,MacIntel,59.98080614,,,,,,,,,,,,,,,,,,,,,up,1,1.3521,10,FALSE,TRUE,2,1,9,1,1,,,,,,,
,,,,,,0,1.671731675,#a3d0fb,"[""-0.25"",""0""]",right_blue.png,right,,,,,,,,right,right_blue.png,up_orange.png,up,left,down,611605de0a30eebef2479dc3,2021-09-11_17h28.26.669,arrow_simon_vert,2021.1.2,MacIntel,59.98080614,,,,,,,,,,,,,,,,,,,,,right,1,1.2515,11,FALSE,TRUE,2,2,10,0,1,,,,,,,
,,,,,,0,2.139533637,#f3af84,"[""0"",""0.25""]",down_orange.png,down,,,,,,,,left,left_blue.png,down_orange.png,down,right,up,611605de0a30eebef2479dc3,2021-09-11_17h28.26.669,arrow_simon_vert,2021.1.2,MacIntel,59.98080614,,,,,,,,,,,,,,,,,,,,,up,0,2.2325,12,TRUE,FALSE,2,3,11,3,1,,,,,,,
,,,,,,0,1.862154892,#a3d0fb,"[""0.25"",""0""]",right_blue.png,right,,,,,,,,right,right_blue.png,up_orange.png,up,right,up,611605de0a30eebef2479dc3,2021-09-11_17h28.26.669,arrow_simon_vert,2021.1.2,MacIntel,59.98080614,,,,,,,,,,,,,,,,,,,,,right,1,1.2345,13,FALSE,TRUE,3,0,12,1,1,,,,,,,
,,,,,,0,2.002026678,#f3af84,"[""0"",""-0.25""]",down_orange.png,down,,,,,,,,left,left_blue.png,down_orange.png,down,left,down,611605de0a30eebef2479dc3,2021-09-11_17h28.26.669,arrow_simon_vert,2021.1.2,MacIntel,59.98080614,,,,,,,,,,,,,,,,,,,,,down,1,1.4833,14,FALSE,FALSE,3,1,13,2,1,,,,,,,
,,,,,,0,1.985387951,#a3d0fb,"[""-0.25"",""0""]",left_blue.png,left,,,,,,,,left,left_blue.png,down_orange.png,down,left,down,611605de0a30eebef2479dc3,2021-09-11_17h28.26.669,arrow_simon_vert,2021.1.2,MacIntel,59.98080614,,,,,,,,,,,,,,,,,,,,,left,1,1.4183,15,FALSE,FALSE,3,2,14,2,1,,,,,,,
,,,,,,0,1.799892765,#f3af84,"[""0"",""0.25""]",down_orange.png,down,,,,,,,,left,left_blue.png,down_orange.png,down,right,up,611605de0a30eebef2479dc3,2021-09-11_17h28.26.669,arrow_simon_vert,2021.1.2,MacIntel,59.98080614,,,,,,,,,,,,,,,,,,,,,down,1,1.3522,16,FALSE,TRUE,3,3,15,3,1,,,,,,,
,,,,,,0,2.429648695,#a3d0fb,"[""0.25"",""0""]",right_blue.png,right,,,,,,,,right,right_blue.png,up_orange.png,up,right,up,611605de0a30eebef2479dc3,2021-09-11_17h28.26.669,arrow_simon_vert,2021.1.2,MacIntel,59.98080614,,,,,,,,,,,,,,,,,,,,,left,0,0.0004,17,FALSE,TRUE,4,0,16,1,1,,,,,,,
,,,,,,0,1.919103972,#f3af84,"[""0"",""-0.25""]",up_orange.png,up,,,,,,,,right,right_blue.png,up_orange.png,up,left,down,611605de0a30eebef2479dc3,2021-09-11_17h28.26.669,arrow_simon_vert,2021.1.2,MacIntel,59.98080614,,,,,,,,,,,,,,,,,,,,,up,1,1.5338,18,FALSE,FALSE,4,1,17,0,1,,,,,,,
,,,,,,0,1.984273576,#a3d0fb,"[""-0.25"",""0""]",right_blue.png,right,,,,,,,,right,right_blue.png,up_orange.png,up,left,down,611605de0a30eebef2479dc3,2021-09-11_17h28.26.669,arrow_simon_vert,2021.1.2,MacIntel,59.98080614,,,,,,,,,,,,,,,,,,,,,right,1,1.502,19,FALSE,FALSE,4,2,18,0,1,,,,,,,
,,,,,,0,1.893834438,#f3af84,"[""0"",""0.25""]",down_orange.png,down,,,,,,,,left,left_blue.png,down_orange.png,down,right,up,611605de0a30eebef2479dc3,2021-09-11_17h28.26.669,arrow_simon_vert,2021.1.2,MacIntel,59.98080614,,,,,,,,,,,,,,,,,,,,,down,1,1.4693,20,FALSE,FALSE,4,3,19,3,1,,,,,,,
,,,,,,0,1.591651945,#a3d0fb,"[""0.25"",""0""]",left_blue.png,left,,,,,,,,left,left_blue.png,down_orange.png,down,right,up,611605de0a30eebef2479dc3,2021-09-11_17h28.26.669,arrow_simon_vert,2021.1.2,MacIntel,59.98080614,,,,,,,,,,,,,,,,,,,,,left,1,1.6019,21,TRUE,FALSE,5,0,20,3,1,,,,,,,
,,,,,,0,2.276878285,#f3af84,"[""0"",""0.25""]",down_orange.png,down,,,,,,,,left,left_blue.png,down_orange.png,down,right,up,611605de0a30eebef2479dc3,2021-09-11_17h28.26.669,arrow_simon_vert,2021.1.2,MacIntel,59.98080614,,,,,,,,,,,,,,,,,,,,,down,1,1.686,22,TRUE,FALSE,5,1,21,3,1,,,,,,,
,,,,,,0,1.969296247,#a3d0fb,"[""-0.25"",""0""]",right_blue.png,right,,,,,,,,right,right_blue.png,up_orange.png,up,left,down,611605de0a30eebef2479dc3,2021-09-11_17h28.26.669,arrow_simon_vert,2021.1.2,MacIntel,59.98080614,,,,,,,,,,,,,,,,,,,,,right,1,2.2189,23,TRUE,FALSE,5,2,22,0,1,,,,,,,
,,,,,,0,1.861483876,#f3af84,"[""0"",""0.25""]",up_orange.png,up,,,,,,,,right,right_blue.png,up_orange.png,up,right,up,611605de0a30eebef2479dc3,2021-09-11_17h28.26.669,arrow_simon_vert,2021.1.2,MacIntel,59.98080614,,,,,,,,,,,,,,,,,,,,,up,1,1.5837,24,FALSE,FALSE,5,3,23,1,1,,,,,,,
,,,,,,0,1.744356236,#a3d0fb,"[""-0.25"",""0""]",left_blue.png,left,,,,,,,,left,left_blue.png,down_orange.png,down,left,down,611605de0a30eebef2479dc3,2021-09-11_17h28.26.669,arrow_simon_vert,2021.1.2,MacIntel,59.98080614,,,,,,,,,,,,,,,,,,,,,left,1,1.1525,25,FALSE,TRUE,6,0,24,2,1,,,,,,,
,,,,,,0,1.557399552,#f3af84,"[""0"",""0.25""]",down_orange.png,down,,,,,,,,left,left_blue.png,down_orange.png,down,right,up,611605de0a30eebef2479dc3,2021-09-11_17h28.26.669,arrow_simon_vert,2021.1.2,MacIntel,59.98080614,,,,,,,,,,,,,,,,,,,,,down,1,1.4954,26,FALSE,FALSE,6,1,25,3,1,,,,,,,
,,,,,,0,2.206056765,#a3d0fb,"[""-0.25"",""0""]",right_blue.png,right,,,,,,,,right,right_blue.png,up_orange.png,up,left,down,611605de0a30eebef2479dc3,2021-09-11_17h28.26.669,arrow_simon_vert,2021.1.2,MacIntel,59.98080614,,,,,,,,,,,,,,,,,,,,,right,1,1.6183,27,TRUE,FALSE,6,2,26,0,1,,,,,,,
,,,,,,0,2.34278657,#f3af84,"[""0"",""0.25""]",down_orange.png,down,,,,,,,,left,left_blue.png,down_orange.png,down,right,up,611605de0a30eebef2479dc3,2021-09-11_17h28.26.669,arrow_simon_vert,2021.1.2,MacIntel,59.98080614,,,,,,,,,,,,,,,,,,,,,down,1,1.7859,28,TRUE,FALSE,6,3,27,3,1,,,,,,,
,,,,,,0,1.577090724,#a3d0fb,"[""0.25"",""0""]",right_blue.png,right,,,,,,,,right,right_blue.png,up_orange.png,up,right,up,611605de0a30eebef2479dc3,2021-09-11_17h28.26.669,arrow_simon_vert,2021.1.2,MacIntel,59.98080614,,,,,,,,,,,,,,,,,,,,,right,1,1.3178,29,FALSE,TRUE,7,0,28,1,1,,,,,,,
,,,,,,0,2.151520053,#f3af84,"[""0"",""-0.25""]",up_orange.png,up,,,,,,,,right,right_blue.png,up_orange.png,up,left,down,611605de0a30eebef2479dc3,2021-09-11_17h28.26.669,arrow_simon_vert,2021.1.2,MacIntel,59.98080614,,,,,,,,,,,,,,,,,,,,,up,1,1.6507,30,TRUE,FALSE,7,1,29,0,1,,,,,,,
,,,,,,0,2.335579439,#a3d0fb,"[""0.25"",""0""]",right_blue.png,right,,,,,,,,right,right_blue.png,up_orange.png,up,right,up,611605de0a30eebef2479dc3,2021-09-11_17h28.26.669,arrow_simon_vert,2021.1.2,MacIntel,59.98080614,,,,,,,,,,,,,,,,,,,,,right,1,1.6808,31,TRUE,FALSE,7,2,30,1,1,,,,,,,
,,,,,,0,1.904449023,#f3af84,"[""0"",""-0.25""]",up_orange.png,up,,,,,,,,right,right_blue.png,up_orange.png,up,left,down,611605de0a30eebef2479dc3,2021-09-11_17h28.26.669,arrow_simon_vert,2021.1.2,MacIntel,59.98080614,,,,,,,,,,,,,,,,,,,,,up,1,1.5186,32,FALSE,FALSE,7,3,31,0,1,,,,,,,
,,,,,,0,2.094990912,#a3d0fb,"[""-0.25"",""0""]",left_blue.png,left,,,,,,,,left,left_blue.png,down_orange.png,down,left,down,611605de0a30eebef2479dc3,2021-09-11_17h28.26.669,arrow_simon_vert,2021.1.2,MacIntel,59.98080614,,,,,,,,,,,,,,,,,,,,,left,1,1.5512,33,FALSE,FALSE,8,0,32,2,1,,,,,,,
,,,,,,0,1.911534049,#f3af84,"[""0"",""-0.25""]",down_orange.png,down,,,,,,,,left,left_blue.png,down_orange.png,down,left,down,611605de0a30eebef2479dc3,2021-09-11_17h28.26.669,arrow_simon_vert,2021.1.2,MacIntel,59.98080614,,,,,,,,,,,,,,,,,,,,,down,1,1.4683,34,FALSE,FALSE,8,1,33,2,1,,,,,,,
,,,,,,0,1.783692682,#a3d0fb,"[""0.25"",""0""]",right_blue.png,right,,,,,,,,right,right_blue.png,up_orange.png,up,right,up,611605de0a30eebef2479dc3,2021-09-11_17h28.26.669,arrow_simon_vert,2021.1.2,MacIntel,59.98080614,,,,,,,,,,,,,,,,,,,,,right,1,1.7042,35,TRUE,FALSE,8,2,34,1,1,,,,,,,
,,,,,,0,2.130552536,#f3af84,"[""0"",""-0.25""]",down_orange.png,down,,,,,,,,left,left_blue.png,down_orange.png,down,left,down,611605de0a30eebef2479dc3,2021-09-11_17h28.26.669,arrow_simon_vert,2021.1.2,MacIntel,59.98080614,,,,,,,,,,,,,,,,,,,,,down,1,1.7501,36,TRUE,FALSE,8,3,35,2,1,,,,,,,
,,,,,,0,2.106415568,#a3d0fb,"[""0.25"",""0""]",right_blue.png,right,,,,,,,,right,right_blue.png,up_orange.png,up,right,up,611605de0a30eebef2479dc3,2021-09-11_17h28.26.669,arrow_simon_vert,2021.1.2,MacIntel,59.98080614,,,,,,,,,,,,,,,,,,,,,right,1,1.5513,37,FALSE,FALSE,9,0,36,1,1,,,,,,,
,,,,,,0,2.472968859,#f3af84,"[""0"",""0.25""]",up_orange.png,up,,,,,,,,right,right_blue.png,up_orange.png,up,right,up,611605de0a30eebef2479dc3,2021-09-11_17h28.26.669,arrow_simon_vert,2021.1.2,MacIntel,59.98080614,,,,,,,,,,,,,,,,,,,,,up,1,2.0348,38,TRUE,FALSE,9,1,37,1,1,,,,,,,
,,,,,,0,1.815950854,#a3d0fb,"[""0.25"",""0""]",right_blue.png,right,,,,,,,,right,right_blue.png,up_orange.png,up,right,up,611605de0a30eebef2479dc3,2021-09-11_17h28.26.669,arrow_simon_vert,2021.1.2,MacIntel,59.98080614,,,,,,,,,,,,,,,,,,,,,right,1,1.3353,39,FALSE,TRUE,9,2,38,1,1,,,,,,,
,,,,,,0,2.389487882,#f3af84,"[""0"",""-0.25""]",down_orange.png,down,,,,,,,,left,left_blue.png,down_orange.png,down,left,down,611605de0a30eebef2479dc3,2021-09-11_17h28.26.669,arrow_simon_vert,2021.1.2,MacIntel,59.98080614,,,,,,,,,,,,,,,,,,,,,down,1,1.8356,40,TRUE,FALSE,9,3,39,2,1,,,,,,,
,,,,,,0,2.346610332,#a3d0fb,"[""-0.25"",""0""]",left_blue.png,left,,,,,,,,left,left_blue.png,down_orange.png,down,left,down,611605de0a30eebef2479dc3,2021-09-11_17h28.26.669,arrow_simon_vert,2021.1.2,MacIntel,59.98080614,,,,,,,,,,,,,,,,,,,,,left,1,1.7187,41,TRUE,FALSE,10,0,40,2,1,,,,,,,
,,,,,,1,2.071232807,#f3af84,"[""0"",""0.25""]",down_orange.png,down,,,,,,,,left,left_blue.png,down_orange.png,down,right,up,611605de0a30eebef2479dc3,2021-09-11_17h28.26.669,arrow_simon_vert,2021.1.2,MacIntel,59.98080614,,,,,,,,,,,,,,,,,,,,,up,0,1.4356,42,FALSE,FALSE,10,1,41,3,1,,,,,,,
,,,,,,1,1.649703308,#a3d0fb,"[""0.25"",""0""]",left_blue.png,left,,,,,,,,left,left_blue.png,down_orange.png,down,right,up,611605de0a30eebef2479dc3,2021-09-11_17h28.26.669,arrow_simon_vert,2021.1.2,MacIntel,59.98080614,,,,,,,,,,,,,,,,,,,,,down,0,1.1167,43,FALSE,TRUE,10,2,42,3,1,,,,,,,
,,,,,,1,1.568684599,#f3af84,"[""0"",""-0.25""]",up_orange.png,up,,,,,,,,right,right_blue.png,up_orange.png,up,left,down,611605de0a30eebef2479dc3,2021-09-11_17h28.26.669,arrow_simon_vert,2021.1.2,MacIntel,59.98080614,,,,,,,,,,,,,,,,,,,,,up,1,1.084,44,FALSE,TRUE,10,3,43,0,1,,,,,,,
,,,,,,1,1.506995708,#a3d0fb,"[""-0.25"",""0""]",left_blue.png,left,,,,,,,,left,left_blue.png,down_orange.png,down,left,down,611605de0a30eebef2479dc3,2021-09-11_17h28.26.669,arrow_simon_vert,2021.1.2,MacIntel,59.98080614,,,,,,,,,,,,,,,,,,,,,left,1,1.2016,45,FALSE,TRUE,11,0,44,2,1,,,,,,,
,,,,,,1,1.578362198,#f3af84,"[""0"",""-0.25""]",down_orange.png,down,,,,,,,,left,left_blue.png,down_orange.png,down,left,down,611605de0a30eebef2479dc3,2021-09-11_17h28.26.669,arrow_simon_vert,2021.1.2,MacIntel,59.98080614,,,,,,,,,,,,,,,,,,,,,down,1,1.3634,46,FALSE,TRUE,11,1,45,2,1,,,,,,,
,,,,,,1,2.279918165,#a3d0fb,"[""0.25"",""0""]",right_blue.png,right,,,,,,,,right,right_blue.png,up_orange.png,up,right,up,611605de0a30eebef2479dc3,2021-09-11_17h28.26.669,arrow_simon_vert,2021.1.2,MacIntel,59.98080614,,,,,,,,,,,,,,,,,,,,,right,1,1.6356,47,TRUE,FALSE,11,2,46,1,1,,,,,,,
,,,,,,1,1.920447026,#f3af84,"[""0"",""-0.25""]",down_orange.png,down,,,,,,,,left,left_blue.png,down_orange.png,down,left,down,611605de0a30eebef2479dc3,2021-09-11_17h28.26.669,arrow_simon_vert,2021.1.2,MacIntel,59.98080614,,,,,,,,,,,,,,,,,,,,,down,1,1.3664,48,FALSE,TRUE,11,3,47,2,1,,,,,,,
,,,,,,1,1.902598613,#a3d0fb,"[""0.25"",""0""]",right_blue.png,right,,,,,,,,right,right_blue.png,up_orange.png,up,right,up,611605de0a30eebef2479dc3,2021-09-11_17h28.26.669,arrow_simon_vert,2021.1.2,MacIntel,59.98080614,,,,,,,,,,,,,,,,,,,,,right,1,1.2671,49,FALSE,TRUE,12,0,48,1,1,,,,,,,
,,,,,,1,1.529663883,#f3af84,"[""0"",""0.25""]",up_orange.png,up,,,,,,,,right,right_blue.png,up_orange.png,up,right,up,611605de0a30eebef2479dc3,2021-09-11_17h28.26.669,arrow_simon_vert,2021.1.2,MacIntel,59.98080614,,,,,,,,,,,,,,,,,,,,,up,1,1.202,50,FALSE,TRUE,12,1,49,1,1,,,,,,,
,,,,,,1,1.703081302,#a3d0fb,"[""-0.25"",""0""]",right_blue.png,right,,,,,,,,right,right_blue.png,up_orange.png,up,left,down,611605de0a30eebef2479dc3,2021-09-11_17h28.26.669,arrow_simon_vert,2021.1.2,MacIntel,59.98080614,,,,,,,,,,,,,,,,,,,,,right,1,1.1853,51,FALSE,TRUE,12,2,50,0,1,,,,,,,
,,,,,,1,2.440486445,#f3af84,"[""0"",""-0.25""]",down_orange.png,down,,,,,,,,left,left_blue.png,down_orange.png,down,left,down,611605de0a30eebef2479dc3,2021-09-11_17h28.26.669,arrow_simon_vert,2021.1.2,MacIntel,59.98080614,,,,,,,,,,,,,,,,,,,,,down,1,1.7852,52,TRUE,FALSE,12,3,51,2,1,,,,,,,
,,,,,,0,1.901507702,#a3d0fb,"[""0.25"",""0""]",right_blue.png,right,,,,,,,,right,right_blue.png,up_orange.png,up,right,up,611605de0a30eebef2479dc3,2021-09-11_17h28.26.669,arrow_simon_vert,2021.1.2,MacIntel,59.98080614,,,,,,,,,,,,,,,,,,,,,right,1,1.5676,53,FALSE,FALSE,13,0,52,1,1,,,,,,,
,,,,,,0,2.027341971,#f3af84,"[""0"",""-0.25""]",up_orange.png,up,,,,,,,,right,right_blue.png,up_orange.png,up,left,down,611605de0a30eebef2479dc3,2021-09-11_17h28.26.669,arrow_simon_vert,2021.1.2,MacIntel,59.98080614,,,,,,,,,,,,,,,,,,,,,up,1,1.5886,54,FALSE,FALSE,13,1,53,0,1,,,,,,,
,,,,,,0,2.477745014,#a3d0fb,"[""0.25"",""0""]",left_blue.png,left,,,,,,,,left,left_blue.png,down_orange.png,down,right,up,611605de0a30eebef2479dc3,2021-09-11_17h28.26.669,arrow_simon_vert,2021.1.2,MacIntel,59.98080614,,,,,,,,,,,,,,,,,,,,,left,1,1.9484,55,TRUE,FALSE,13,2,54,3,1,,,,,,,
,,,,,,0,1.92287583,#f3af84,"[""0"",""0.25""]",down_orange.png,down,,,,,,,,left,left_blue.png,down_orange.png,down,right,up,611605de0a30eebef2479dc3,2021-09-11_17h28.26.669,arrow_simon_vert,2021.1.2,MacIntel,59.98080614,,,,,,,,,,,,,,,,,,,,,down,1,1.4627,56,FALSE,FALSE,13,3,55,3,1,,,,,,,
,,,,,,0,2.400478009,#a3d0fb,"[""0.25"",""0""]",left_blue.png,left,,,,,,,,left,left_blue.png,down_orange.png,down,right,up,611605de0a30eebef2479dc3,2021-09-11_17h28.26.669,arrow_simon_vert,2021.1.2,MacIntel,59.98080614,,,,,,,,,,,,,,,,,,,,,left,1,1.8232,57,TRUE,FALSE,14,0,56,3,1,,,,,,,
,,,,,,0,1.713818941,#f3af84,"[""0"",""0.25""]",down_orange.png,down,,,,,,,,left,left_blue.png,down_orange.png,down,right,up,611605de0a30eebef2479dc3,2021-09-11_17h28.26.669,arrow_simon_vert,2021.1.2,MacIntel,59.98080614,,,,,,,,,,,,,,,,,,,,,down,1,1.4465,58,FALSE,FALSE,14,1,57,3,1,,,,,,,
,,,,,,0,2.157967453,#a3d0fb,"[""0.25"",""0""]",left_blue.png,left,,,,,,,,left,left_blue.png,down_orange.png,down,right,up,611605de0a30eebef2479dc3,2021-09-11_17h28.26.669,arrow_simon_vert,2021.1.2,MacIntel,59.98080614,,,,,,,,,,,,,,,,,,,,,left,1,1.6017,59,TRUE,FALSE,14,2,58,3,1,,,,,,,
,,,,,,0,2.397238103,#f3af84,"[""0"",""-0.25""]",down_orange.png,down,,,,,,,,left,left_blue.png,down_orange.png,down,left,down,611605de0a30eebef2479dc3,2021-09-11_17h28.26.669,arrow_simon_vert,2021.1.2,MacIntel,59.98080614,,,,,,,,,,,,,,,,,,,,,down,1,2.0878,60,TRUE,FALSE,14,3,59,2,1,,,,,,,
,,,,,,,,,,,,,,,,,,,,,,,,,611605de0a30eebef2479dc3,2021-09-11_17h28.26.669,arrow_simon_vert,2021.1.2,MacIntel,59.98080614,,,,,,,,,,,,,,,,,,,,,,,,,,,,,,,,space,2.5008,2,0,2,0,1
,,,,,,0,2.031584579,#a3d0fb,"[""0.25"",""0""]",left_blue.png,left,,,,,,,,left,left_blue.png,down_orange.png,down,right,up,611605de0a30eebef2479dc3,2021-09-11_17h28.26.669,arrow_simon_vert,2021.1.2,MacIntel,59.98080614,,,,,,,,,,,,,,,,,,,,,left,1,1.4695,1,FALSE,FALSE,0,0,0,3,1,,,,,,,
,,,,,,0,2.096215506,#f3af84,"[""0"",""-0.25""]",down_orange.png,down,,,,,,,,left,left_blue.png,down_orange.png,down,left,down,611605de0a30eebef2479dc3,2021-09-11_17h28.26.669,arrow_simon_vert,2021.1.2,MacIntel,59.98080614,,,,,,,,,,,,,,,,,,,,,down,1,1.5831,2,FALSE,FALSE,0,1,1,2,1,,,,,,,
,,,,,,0,1.927945614,#a3d0fb,"[""0.25"",""0""]",left_blue.png,left,,,,,,,,left,left_blue.png,down_orange.png,down,right,up,611605de0a30eebef2479dc3,2021-09-11_17h28.26.669,arrow_simon_vert,2021.1.2,MacIntel,59.98080614,,,,,,,,,,,,,,,,,,,,,left,1,1.4682,3,FALSE,FALSE,0,2,2,3,1,,,,,,,
,,,,,,0,1.592292693,#f3af84,"[""0"",""-0.25""]",up_orange.png,up,,,,,,,,right,right_blue.png,up_orange.png,up,left,down,611605de0a30eebef2479dc3,2021-09-11_17h28.26.669,arrow_simon_vert,2021.1.2,MacIntel,59.98080614,,,,,,,,,,,,,,,,,,,,,up,1,1.0867,4,FALSE,TRUE,0,3,3,0,1,,,,,,,
,,,,,,0,2.151304064,#a3d0fb,"[""0.25"",""0""]",right_blue.png,right,,,,,,,,right,right_blue.png,up_orange.png,up,right,up,611605de0a30eebef2479dc3,2021-09-11_17h28.26.669,arrow_simon_vert,2021.1.2,MacIntel,59.98080614,,,,,,,,,,,,,,,,,,,,,right,1,1.5907,5,FALSE,FALSE,1,0,4,1,1,,,,,,,
,,,,,,0,1.518516177,#f3af84,"[""0"",""0.25""]",up_orange.png,up,,,,,,,,right,right_blue.png,up_orange.png,up,right,up,611605de0a30eebef2479dc3,2021-09-11_17h28.26.669,arrow_simon_vert,2021.1.2,MacIntel,59.98080614,,,,,,,,,,,,,,,,,,,,,up,1,1.4014,6,FALSE,FALSE,1,1,5,1,1,,,,,,,
,,,,,,0,1.582687145,#a3d0fb,"[""-0.25"",""0""]",right_blue.png,right,,,,,,,,right,right_blue.png,up_orange.png,up,left,down,611605de0a30eebef2479dc3,2021-09-11_17h28.26.669,arrow_simon_vert,2021.1.2,MacIntel,59.98080614,,,,,,,,,,,,,,,,,,,,,right,1,1.3508,7,FALSE,TRUE,1,2,6,0,1,,,,,,,
,,,,,,0,2.279014514,#f3af84,"[""0"",""-0.25""]",down_orange.png,down,,,,,,,,left,left_blue.png,down_orange.png,down,left,down,611605de0a30eebef2479dc3,2021-09-11_17h28.26.669,arrow_simon_vert,2021.1.2,MacIntel,59.98080614,,,,,,,,,,,,,,,,,,,,,down,1,1.7527,8,TRUE,FALSE,1,3,7,2,1,,,,,,,
,,,,,,0,2.20684283,#a3d0fb,"[""0.25"",""0""]",left_blue.png,left,,,,,,,,left,left_blue.png,down_orange.png,down,right,up,611605de0a30eebef2479dc3,2021-09-11_17h28.26.669,arrow_simon_vert,2021.1.2,MacIntel,59.98080614,,,,,,,,,,,,,,,,,,,,,left,1,1.6537,9,TRUE,FALSE,2,0,8,3,1,,,,,,,
,,,,,,0,2.206776482,#f3af84,"[""0"",""-0.25""]",down_orange.png,down,,,,,,,,left,left_blue.png,down_orange.png,down,left,down,611605de0a30eebef2479dc3,2021-09-11_17h28.26.669,arrow_simon_vert,2021.1.2,MacIntel,59.98080614,,,,,,,,,,,,,,,,,,,,,down,1,1.6191,10,TRUE,FALSE,2,1,9,2,1,,,,,,,
,,,,,,0,2.07459406,#a3d0fb,"[""0.25"",""0""]",left_blue.png,left,,,,,,,,left,left_blue.png,down_orange.png,down,right,up,611605de0a30eebef2479dc3,2021-09-11_17h28.26.669,arrow_simon_vert,2021.1.2,MacIntel,59.98080614,,,,,,,,,,,,,,,,,,,,,left,1,1.5168,11,FALSE,FALSE,2,2,10,3,1,,,,,,,
