instruct_resp_simon.keys,instruct_resp_simon.corr,instruct_resp_simon.rt,trial_resp_simon.keys,trial_resp_simon.corr,trial_resp_simon.rt,kerr,target_onset,target_color,target_pos,target_file,target_resp,trials_train_simon.thisRepN,trials_train_simon.thisTrialN,trials_train_simon.thisN,trials_train_simon.thisIndex,trials_train_simon.ran,odd_target_pos,even_target_pos,odd_target_resp,odd_target_file,even_target_file,even_target_resp,odd_target_side,even_target_side,participant,date,expName,psychopyVersion,OS,frameRate,train_block_note_resp.keys,train_block_note_resp.rt,blocks_train.thisRepN,blocks_train.thisTrialN,blocks_train.thisN,blocks_train.thisIndex,blocks_train.ran,instruct_resp_timing.keys,instruct_resp_timing.corr,instruct_resp_timing.rt,trial_resp_timing.keys,trial_resp_timing.rt,trials_train_timing.thisRepN,trials_train_timing.thisTrialN,trials_train_timing.thisN,trials_train_timing.thisIndex,trials_train_timing.ran,instruct_resp.keys,instruct_resp.corr,instruct_resp.rt,trial_resp.keys,trial_resp.corr,trial_resp.rt,trial_num,too_slow,too_soon,trials.thisRepN,trials.thisTrialN,trials.thisN,trials.thisIndex,trials.ran,block_note_resp.keys,block_note_resp.rt,blocks.thisRepN,blocks.thisTrialN,blocks.thisN,blocks.thisIndex,blocks.ran
space,0,51.4979,left,1,7.6651,0,0.111036988,#a3d0fb,"[""-0.25"",""0""]",left_blue.png,left,0,0,0,2,1,,,left,left_blue.png,down_orange.png,down,left,down,61247491151682b679e31db0,2021-09-11_15h42.25.819,arrow_simon_vert,2021.1.2,MacIntel,59.97361161,,,,,,,,,,,,,,,,,,,,,,,,,,,,,,,,,,,,,,
,,,down,1,3.7164,0,0.026905336,#f3af84,"[""0"",""-0.25""]",down_orange.png,down,0,1,1,2,1,,,left,left_blue.png,down_orange.png,down,left,down,61247491151682b679e31db0,2021-09-11_15h42.25.819,arrow_simon_vert,2021.1.2,MacIntel,59.97361161,,,,,,,,,,,,,,,,,,,,,,,,,,,,,,,,,,,,,,
,,,left,1,3.2516,0,0.260214628,#a3d0fb,"[""-0.25"",""0""]",left_blue.png,left,0,2,2,2,1,,,left,left_blue.png,down_orange.png,down,left,down,61247491151682b679e31db0,2021-09-11_15h42.25.819,arrow_simon_vert,2021.1.2,MacIntel,59.97361161,,,,,,,,,,,,,,,,,,,,,,,,,,,,,,,,,,,,,,
,,,up,1,3.0982,0,0.108307155,#f3af84,"[""0"",""0.25""]",up_orange.png,up,0,3,3,1,1,,,right,right_blue.png,up_orange.png,up,right,up,61247491151682b679e31db0,2021-09-11_15h42.25.819,arrow_simon_vert,2021.1.2,MacIntel,59.97361161,,,,,,,,,,,,,,,,,,,,,,,,,,,,,,,,,,,,,,
,,,right,1,5.8515,0,0.068209316,#a3d0fb,"[""-0.25"",""0""]",right_blue.png,right,1,0,4,0,1,,,right,right_blue.png,up_orange.png,up,left,down,61247491151682b679e31db0,2021-09-11_15h42.25.819,arrow_simon_vert,2021.1.2,MacIntel,59.97361161,,,,,,,,,,,,,,,,,,,,,,,,,,,,,,,,,,,,,,
,,,down,1,2.3203,0,0.40275688,#f3af84,"[""0"",""0.25""]",down_orange.png,down,1,1,5,3,1,,,left,left_blue.png,down_orange.png,down,right,up,61247491151682b679e31db0,2021-09-11_15h42.25.819,arrow_simon_vert,2021.1.2,MacIntel,59.97361161,,,,,,,,,,,,,,,,,,,,,,,,,,,,,,,,,,,,,,
,,,left,1,3.4216,0,0.743137175,#a3d0fb,"[""0.25"",""0""]",left_blue.png,left,1,2,6,3,1,,,left,left_blue.png,down_orange.png,down,right,up,61247491151682b679e31db0,2021-09-11_15h42.25.819,arrow_simon_vert,2021.1.2,MacIntel,59.97361161,,,,,,,,,,,,,,,,,,,,,,,,,,,,,,,,,,,,,,
,,,up,1,2.1192,0,0.020653077,#f3af84,"[""0"",""-0.25""]",up_orange.png,up,1,3,7,0,1,,,right,right_blue.png,up_orange.png,up,left,down,61247491151682b679e31db0,2021-09-11_15h42.25.819,arrow_simon_vert,2021.1.2,MacIntel,59.97361161,,,,,,,,,,,,,,,,,,,,,,,,,,,,,,,,,,,,,,
,,,left,1,1.8171,0,0.983661506,#a3d0fb,"[""0.25"",""0""]",left_blue.png,left,2,0,8,3,1,,,left,left_blue.png,down_orange.png,down,right,up,61247491151682b679e31db0,2021-09-11_15h42.25.819,arrow_simon_vert,2021.1.2,MacIntel,59.97361161,,,,,,,,,,,,,,,,,,,,,,,,,,,,,,,,,,,,,,
,,,up,1,1.769,0,0.947741118,#f3af84,"[""0"",""0.25""]",up_orange.png,up,2,1,9,1,1,,,right,right_blue.png,up_orange.png,up,right,up,61247491151682b679e31db0,2021-09-11_15h42.25.819,arrow_simon_vert,2021.1.2,MacIntel,59.97361161,,,,,,,,,,,,,,,,,,,,,,,,,,,,,,,,,,,,,,
,,,right,1,2.2367,0,0.926614087,#a3d0fb,"[""0.25"",""0""]",right_blue.png,right,2,2,10,1,1,,,right,right_blue.png,up_orange.png,up,right,up,61247491151682b679e31db0,2021-09-11_15h42.25.819,arrow_simon_vert,2021.1.2,MacIntel,59.97361161,,,,,,,,,,,,,,,,,,,,,,,,,,,,,,,,,,,,,,
,,,down,1,1.3685,0,0.598544677,#f3af84,"[""0"",""0.25""]",down_orange.png,down,2,3,11,3,1,,,left,left_blue.png,down_orange.png,down,right,up,61247491151682b679e31db0,2021-09-11_15h42.25.819,arrow_simon_vert,2021.1.2,MacIntel,59.97361161,,,,,,,,,,,,,,,,,,,,,,,,,,,,,,,,,,,,,,
,,,left,1,1.0849,0,0.449328408,#a3d0fb,"[""-0.25"",""0""]",left_blue.png,left,3,0,12,2,1,,,left,left_blue.png,down_orange.png,down,left,down,61247491151682b679e31db0,2021-09-11_15h42.25.819,arrow_simon_vert,2021.1.2,MacIntel,59.97361161,,,,,,,,,,,,,,,,,,,,,,,,,,,,,,,,,,,,,,
,,,down,1,1.8016,0,0.983185295,#f3af84,"[""0"",""0.25""]",down_orange.png,down,3,1,13,3,1,,,left,left_blue.png,down_orange.png,down,right,up,61247491151682b679e31db0,2021-09-11_15h42.25.819,arrow_simon_vert,2021.1.2,MacIntel,59.97361161,,,,,,,,,,,,,,,,,,,,,,,,,,,,,,,,,,,,,,
,,,left,1,1.0018,0,0.304950649,#a3d0fb,"[""0.25"",""0""]",left_blue.png,left,3,2,14,3,1,,,left,left_blue.png,down_orange.png,down,right,up,61247491151682b679e31db0,2021-09-11_15h42.25.819,arrow_simon_vert,2021.1.2,MacIntel,59.97361161,,,,,,,,,,,,,,,,,,,,,,,,,,,,,,,,,,,,,,
,,,up,1,1.5836,0,0.496925753,#f3af84,"[""0"",""-0.25""]",up_orange.png,up,3,3,15,0,1,,,right,right_blue.png,up_orange.png,up,left,down,61247491151682b679e31db0,2021-09-11_15h42.25.819,arrow_simon_vert,2021.1.2,MacIntel,59.97361161,,,,,,,,,,,,,,,,,,,,,,,,,,,,,,,,,,,,,,
,,,left,1,1.5344,0,0.825379872,#a3d0fb,"[""-0.25"",""0""]",left_blue.png,left,4,0,16,2,1,,,left,left_blue.png,down_orange.png,down,left,down,61247491151682b679e31db0,2021-09-11_15h42.25.819,arrow_simon_vert,2021.1.2,MacIntel,59.97361161,,,,,,,,,,,,,,,,,,,,,,,,,,,,,,,,,,,,,,
,,,up,1,1.7005,0,0.132154428,#f3af84,"[""0"",""0.25""]",up_orange.png,up,4,1,17,1,1,,,right,right_blue.png,up_orange.png,up,right,up,61247491151682b679e31db0,2021-09-11_15h42.25.819,arrow_simon_vert,2021.1.2,MacIntel,59.97361161,,,,,,,,,,,,,,,,,,,,,,,,,,,,,,,,,,,,,,
,,,left,1,1.1837,0,0.23141458,#a3d0fb,"[""0.25"",""0""]",left_blue.png,left,4,2,18,3,1,,,left,left_blue.png,down_orange.png,down,right,up,61247491151682b679e31db0,2021-09-11_15h42.25.819,arrow_simon_vert,2021.1.2,MacIntel,59.97361161,,,,,,,,,,,,,,,,,,,,,,,,,,,,,,,,,,,,,,
,,,up,1,3.8694,0,0.121614007,#f3af84,"[""0"",""-0.25""]",up_orange.png,up,4,3,19,0,1,,,right,right_blue.png,up_orange.png,up,left,down,61247491151682b679e31db0,2021-09-11_15h42.25.819,arrow_simon_vert,2021.1.2,MacIntel,59.97361161,,,,,,,,,,,,,,,,,,,,,,,,,,,,,,,,,,,,,,
,,,right,1,1.3684,0,0.735122694,#a3d0fb,"[""0.25"",""0""]",right_blue.png,right,5,0,20,1,1,,,right,right_blue.png,up_orange.png,up,right,up,61247491151682b679e31db0,2021-09-11_15h42.25.819,arrow_simon_vert,2021.1.2,MacIntel,59.97361161,,,,,,,,,,,,,,,,,,,,,,,,,,,,,,,,,,,,,,
,,,down,1,1.0037,0,0.180761777,#f3af84,"[""0"",""0.25""]",down_orange.png,down,5,1,21,3,1,,,left,left_blue.png,down_orange.png,down,right,up,61247491151682b679e31db0,2021-09-11_15h42.25.819,arrow_simon_vert,2021.1.2,MacIntel,59.97361161,,,,,,,,,,,,,,,,,,,,,,,,,,,,,,,,,,,,,,
,,,left,1,0.9851,0,0.268641282,#a3d0fb,"[""0.25"",""0""]",left_blue.png,left,5,2,22,3,1,,,left,left_blue.png,down_orange.png,down,right,up,61247491151682b679e31db0,2021-09-11_15h42.25.819,arrow_simon_vert,2021.1.2,MacIntel,59.97361161,,,,,,,,,,,,,,,,,,,,,,,,,,,,,,,,,,,,,,
,,,up,1,1.8362,0,0.455084725,#f3af84,"[""0"",""-0.25""]",up_orange.png,up,5,3,23,0,1,,,right,right_blue.png,up_orange.png,up,left,down,61247491151682b679e31db0,2021-09-11_15h42.25.819,arrow_simon_vert,2021.1.2,MacIntel,59.97361161,,,,,,,,,,,,,,,,,,,,,,,,,,,,,,,,,,,,,,
,,,left,1,0.7321,0,0.007813171,#a3d0fb,"[""0.25"",""0""]",left_blue.png,left,6,0,24,3,1,,,left,left_blue.png,down_orange.png,down,right,up,61247491151682b679e31db0,2021-09-11_15h42.25.819,arrow_simon_vert,2021.1.2,MacIntel,59.97361161,,,,,,,,,,,,,,,,,,,,,,,,,,,,,,,,,,,,,,
,,,down,1,1.4677,0,0.091884573,#f3af84,"[""0"",""0.25""]",down_orange.png,down,6,1,25,3,1,,,left,left_blue.png,down_orange.png,down,right,up,61247491151682b679e31db0,2021-09-11_15h42.25.819,arrow_simon_vert,2021.1.2,MacIntel,59.97361161,,,,,,,,,,,,,,,,,,,,,,,,,,,,,,,,,,,,,,
,,,right,1,0.7037,0,0.072051744,#a3d0fb,"[""0.25"",""0""]",right_blue.png,right,6,2,26,1,1,,,right,right_blue.png,up_orange.png,up,right,up,61247491151682b679e31db0,2021-09-11_15h42.25.819,arrow_simon_vert,2021.1.2,MacIntel,59.97361161,,,,,,,,,,,,,,,,,,,,,,,,,,,,,,,,,,,,,,
,,,down,1,1.2509,0,0.574014745,#f3af84,"[""0"",""-0.25""]",down_orange.png,down,6,3,27,2,1,,,left,left_blue.png,down_orange.png,down,left,down,61247491151682b679e31db0,2021-09-11_15h42.25.819,arrow_simon_vert,2021.1.2,MacIntel,59.97361161,,,,,,,,,,,,,,,,,,,,,,,,,,,,,,,,,,,,,,
,,,left,1,0.9395,0,0.163283214,#a3d0fb,"[""-0.25"",""0""]",left_blue.png,left,7,0,28,2,1,,,left,left_blue.png,down_orange.png,down,left,down,61247491151682b679e31db0,2021-09-11_15h42.25.819,arrow_simon_vert,2021.1.2,MacIntel,59.97361161,,,,,,,,,,,,,,,,,,,,,,,,,,,,,,,,,,,,,,
,,,up,1,1.6521,0,0.935038648,#f3af84,"[""0"",""-0.25""]",up_orange.png,up,7,1,29,0,1,,,right,right_blue.png,up_orange.png,up,left,down,61247491151682b679e31db0,2021-09-11_15h42.25.819,arrow_simon_vert,2021.1.2,MacIntel,59.97361161,,,,,,,,,,,,,,,,,,,,,,,,,,,,,,,,,,,,,,
,,,left,1,1.4182,0,0.781308151,#a3d0fb,"[""-0.25"",""0""]",left_blue.png,left,7,2,30,2,1,,,left,left_blue.png,down_orange.png,down,left,down,61247491151682b679e31db0,2021-09-11_15h42.25.819,arrow_simon_vert,2021.1.2,MacIntel,59.97361161,,,,,,,,,,,,,,,,,,,,,,,,,,,,,,,,,,,,,,
,,,up,1,1.6715,0,0.865624166,#f3af84,"[""0"",""0.25""]",up_orange.png,up,7,3,31,1,1,,,right,right_blue.png,up_orange.png,up,right,up,61247491151682b679e31db0,2021-09-11_15h42.25.819,arrow_simon_vert,2021.1.2,MacIntel,59.97361161,,,,,,,,,,,,,,,,,,,,,,,,,,,,,,,,,,,,,,
,,,right,1,1.1176,0,0.19296784,#a3d0fb,"[""0.25"",""0""]",right_blue.png,right,8,0,32,1,1,,,right,right_blue.png,up_orange.png,up,right,up,61247491151682b679e31db0,2021-09-11_15h42.25.819,arrow_simon_vert,2021.1.2,MacIntel,59.97361161,,,,,,,,,,,,,,,,,,,,,,,,,,,,,,,,,,,,,,
,,,up,1,1.6163,0,0.660306629,#f3af84,"[""0"",""-0.25""]",up_orange.png,up,8,1,33,0,1,,,right,right_blue.png,up_orange.png,up,left,down,61247491151682b679e31db0,2021-09-11_15h42.25.819,arrow_simon_vert,2021.1.2,MacIntel,59.97361161,,,,,,,,,,,,,,,,,,,,,,,,,,,,,,,,,,,,,,
,,,right,1,0.9539,0,0.359371713,#a3d0fb,"[""0.25"",""0""]",right_blue.png,right,8,2,34,1,1,,,right,right_blue.png,up_orange.png,up,right,up,61247491151682b679e31db0,2021-09-11_15h42.25.819,arrow_simon_vert,2021.1.2,MacIntel,59.97361161,,,,,,,,,,,,,,,,,,,,,,,,,,,,,,,,,,,,,,
,,,up,1,0.8036,0,0.028291436,#f3af84,"[""0"",""-0.25""]",up_orange.png,up,8,3,35,0,1,,,right,right_blue.png,up_orange.png,up,left,down,61247491151682b679e31db0,2021-09-11_15h42.25.819,arrow_simon_vert,2021.1.2,MacIntel,59.97361161,,,,,,,,,,,,,,,,,,,,,,,,,,,,,,,,,,,,,,
,,,right,1,1.2679,0,0.780687126,#a3d0fb,"[""0.25"",""0""]",right_blue.png,right,9,0,36,1,1,,,right,right_blue.png,up_orange.png,up,right,up,61247491151682b679e31db0,2021-09-11_15h42.25.819,arrow_simon_vert,2021.1.2,MacIntel,59.97361161,,,,,,,,,,,,,,,,,,,,,,,,,,,,,,,,,,,,,,
,,,up,1,1.2011,0,0.603069321,#f3af84,"[""0"",""0.25""]",up_orange.png,up,9,1,37,1,1,,,right,right_blue.png,up_orange.png,up,right,up,61247491151682b679e31db0,2021-09-11_15h42.25.819,arrow_simon_vert,2021.1.2,MacIntel,59.97361161,,,,,,,,,,,,,,,,,,,,,,,,,,,,,,,,,,,,,,
,,,right,1,1.4362,0,0.927146121,#a3d0fb,"[""-0.25"",""0""]",right_blue.png,right,9,2,38,0,1,,,right,right_blue.png,up_orange.png,up,left,down,61247491151682b679e31db0,2021-09-11_15h42.25.819,arrow_simon_vert,2021.1.2,MacIntel,59.97361161,,,,,,,,,,,,,,,,,,,,,,,,,,,,,,,,,,,,,,
,,,up,1,1.2194,0,0.407950262,#f3af84,"[""0"",""-0.25""]",up_orange.png,up,9,3,39,0,1,,,right,right_blue.png,up_orange.png,up,left,down,61247491151682b679e31db0,2021-09-11_15h42.25.819,arrow_simon_vert,2021.1.2,MacIntel,59.97361161,,,,,,,,,,,,,,,,,,,,,,,,,,,,,,,,,,,,,,
,,,left,1,1.4542,0,0.915293095,#a3d0fb,"[""-0.25"",""0""]",left_blue.png,left,10,0,40,2,1,,,left,left_blue.png,down_orange.png,down,left,down,61247491151682b679e31db0,2021-09-11_15h42.25.819,arrow_simon_vert,2021.1.2,MacIntel,59.97361161,,,,,,,,,,,,,,,,,,,,,,,,,,,,,,,,,,,,,,
,,,up,1,1.3356,0,0.315807702,#f3af84,"[""0"",""-0.25""]",up_orange.png,up,10,1,41,0,1,,,right,right_blue.png,up_orange.png,up,left,down,61247491151682b679e31db0,2021-09-11_15h42.25.819,arrow_simon_vert,2021.1.2,MacIntel,59.97361161,,,,,,,,,,,,,,,,,,,,,,,,,,,,,,,,,,,,,,
,,,right,1,0.9947,0,0.422741312,#a3d0fb,"[""0.25"",""0""]",right_blue.png,right,10,2,42,1,1,,,right,right_blue.png,up_orange.png,up,right,up,61247491151682b679e31db0,2021-09-11_15h42.25.819,arrow_simon_vert,2021.1.2,MacIntel,59.97361161,,,,,,,,,,,,,,,,,,,,,,,,,,,,,,,,,,,,,,
,,,down,1,0.8013,0,0.109808461,#f3af84,"[""0"",""0.25""]",down_orange.png,down,10,3,43,3,1,,,left,left_blue.png,down_orange.png,down,right,up,61247491151682b679e31db0,2021-09-11_15h42.25.819,arrow_simon_vert,2021.1.2,MacIntel,59.97361161,,,,,,,,,,,,,,,,,,,,,,,,,,,,,,,,,,,,,,
,,,right,1,0.9523,0,0.333555945,#a3d0fb,"[""-0.25"",""0""]",right_blue.png,right,11,0,44,0,1,,,right,right_blue.png,up_orange.png,up,left,down,61247491151682b679e31db0,2021-09-11_15h42.25.819,arrow_simon_vert,2021.1.2,MacIntel,59.97361161,,,,,,,,,,,,,,,,,,,,,,,,,,,,,,,,,,,,,,
,,,down,1,1.6844,0,0.791126978,#f3af84,"[""0"",""-0.25""]",down_orange.png,down,11,1,45,2,1,,,left,left_blue.png,down_orange.png,down,left,down,61247491151682b679e31db0,2021-09-11_15h42.25.819,arrow_simon_vert,2021.1.2,MacIntel,59.97361161,,,,,,,,,,,,,,,,,,,,,,,,,,,,,,,,,,,,,,
,,,left,1,1.2174,0,0.246144563,#a3d0fb,"[""-0.25"",""0""]",left_blue.png,left,11,2,46,2,1,,,left,left_blue.png,down_orange.png,down,left,down,61247491151682b679e31db0,2021-09-11_15h42.25.819,arrow_simon_vert,2021.1.2,MacIntel,59.97361161,,,,,,,,,,,,,,,,,,,,,,,,,,,,,,,,,,,,,,
,,,up,1,1.5863,0,0.58616907,#f3af84,"[""0"",""0.25""]",up_orange.png,up,11,3,47,1,1,,,right,right_blue.png,up_orange.png,up,right,up,61247491151682b679e31db0,2021-09-11_15h42.25.819,arrow_simon_vert,2021.1.2,MacIntel,59.97361161,,,,,,,,,,,,,,,,,,,,,,,,,,,,,,,,,,,,,,
,,,right,1,1.3684,0,0.800695179,#a3d0fb,"[""0.25"",""0""]",right_blue.png,right,12,0,48,1,1,,,right,right_blue.png,up_orange.png,up,right,up,61247491151682b679e31db0,2021-09-11_15h42.25.819,arrow_simon_vert,2021.1.2,MacIntel,59.97361161,,,,,,,,,,,,,,,,,,,,,,,,,,,,,,,,,,,,,,
,,,down,1,1.4839,0,0.606563889,#f3af84,"[""0"",""0.25""]",down_orange.png,down,12,1,49,3,1,,,left,left_blue.png,down_orange.png,down,right,up,61247491151682b679e31db0,2021-09-11_15h42.25.819,arrow_simon_vert,2021.1.2,MacIntel,59.97361161,,,,,,,,,,,,,,,,,,,,,,,,,,,,,,,,,,,,,,
,,,left,1,1.3175,0,0.828878263,#a3d0fb,"[""-0.25"",""0""]",left_blue.png,left,12,2,50,2,1,,,left,left_blue.png,down_orange.png,down,left,down,61247491151682b679e31db0,2021-09-11_15h42.25.819,arrow_simon_vert,2021.1.2,MacIntel,59.97361161,,,,,,,,,,,,,,,,,,,,,,,,,,,,,,,,,,,,,,
,,,up,1,1.3689,0,0.420904304,#f3af84,"[""0"",""-0.25""]",up_orange.png,up,12,3,51,0,1,,,right,right_blue.png,up_orange.png,up,left,down,61247491151682b679e31db0,2021-09-11_15h42.25.819,arrow_simon_vert,2021.1.2,MacIntel,59.97361161,,,,,,,,,,,,,,,,,,,,,,,,,,,,,,,,,,,,,,
,,,right,1,1.4177,0,0.923415881,#a3d0fb,"[""0.25"",""0""]",right_blue.png,right,13,0,52,1,1,,,right,right_blue.png,up_orange.png,up,right,up,61247491151682b679e31db0,2021-09-11_15h42.25.819,arrow_simon_vert,2021.1.2,MacIntel,59.97361161,,,,,,,,,,,,,,,,,,,,,,,,,,,,,,,,,,,,,,
,,,up,1,1.6022,0,0.922249198,#f3af84,"[""0"",""-0.25""]",up_orange.png,up,13,1,53,0,1,,,right,right_blue.png,up_orange.png,up,left,down,61247491151682b679e31db0,2021-09-11_15h42.25.819,arrow_simon_vert,2021.1.2,MacIntel,59.97361161,,,,,,,,,,,,,,,,,,,,,,,,,,,,,,,,,,,,,,
,,,left,1,0.6494,0,0.021907163,#a3d0fb,"[""-0.25"",""0""]",left_blue.png,left,13,2,54,2,1,,,left,left_blue.png,down_orange.png,down,left,down,61247491151682b679e31db0,2021-09-11_15h42.25.819,arrow_simon_vert,2021.1.2,MacIntel,59.97361161,,,,,,,,,,,,,,,,,,,,,,,,,,,,,,,,,,,,,,
,,,down,1,0.6503,0,0.015687997,#f3af84,"[""0"",""-0.25""]",down_orange.png,down,13,3,55,2,1,,,left,left_blue.png,down_orange.png,down,left,down,61247491151682b679e31db0,2021-09-11_15h42.25.819,arrow_simon_vert,2021.1.2,MacIntel,59.97361161,,,,,,,,,,,,,,,,,,,,,,,,,,,,,,,,,,,,,,
,,,right,1,0.9334,0,0.26712462,#a3d0fb,"[""-0.25"",""0""]",right_blue.png,right,14,0,56,0,1,,,right,right_blue.png,up_orange.png,up,left,down,61247491151682b679e31db0,2021-09-11_15h42.25.819,arrow_simon_vert,2021.1.2,MacIntel,59.97361161,,,,,,,,,,,,,,,,,,,,,,,,,,,,,,,,,,,,,,
,,,down,1,2.1528,0,0.490818839,#f3af84,"[""0"",""0.25""]",down_orange.png,down,14,1,57,3,1,,,left,left_blue.png,down_orange.png,down,right,up,61247491151682b679e31db0,2021-09-11_15h42.25.819,arrow_simon_vert,2021.1.2,MacIntel,59.97361161,,,,,,,,,,,,,,,,,,,,,,,,,,,,,,,,,,,,,,
,,,left,1,1.6522,0,0.31302459,#a3d0fb,"[""-0.25"",""0""]",left_blue.png,left,14,2,58,2,1,,,left,left_blue.png,down_orange.png,down,left,down,61247491151682b679e31db0,2021-09-11_15h42.25.819,arrow_simon_vert,2021.1.2,MacIntel,59.97361161,,,,,,,,,,,,,,,,,,,,,,,,,,,,,,,,,,,,,,
,,,down,1,1.134,0,0.401388199,#f3af84,"[""0"",""0.25""]",down_orange.png,down,14,3,59,3,1,,,left,left_blue.png,down_orange.png,down,right,up,61247491151682b679e31db0,2021-09-11_15h42.25.819,arrow_simon_vert,2021.1.2,MacIntel,59.97361161,,,,,,,,,,,,,,,,,,,,,,,,,,,,,,,,,,,,,,
,,,,,,,,,,,,,,,,,,,,,,,,,61247491151682b679e31db0,2021-09-11_15h42.25.819,arrow_simon_vert,2021.1.2,MacIntel,59.97361161,space,24.5705,0,0,0,0,1,,,,,,,,,,,,,,,,,,,,,,,,,,,,,,,
,,,right,1,1.5461,0,0.885158382,#a3d0fb,"[""-0.25"",""0""]",right_blue.png,right,0,0,0,0,1,,,right,right_blue.png,up_orange.png,up,left,down,61247491151682b679e31db0,2021-09-11_15h42.25.819,arrow_simon_vert,2021.1.2,MacIntel,59.97361161,,,,,,,,,,,,,,,,,,,,,,,,,,,,,,,,,,,,,,
,,,down,1,1.6378,0,0.741194575,#f3af84,"[""0"",""0.25""]",down_orange.png,down,0,1,1,3,1,,,left,left_blue.png,down_orange.png,down,right,up,61247491151682b679e31db0,2021-09-11_15h42.25.819,arrow_simon_vert,2021.1.2,MacIntel,59.97361161,,,,,,,,,,,,,,,,,,,,,,,,,,,,,,,,,,,,,,
,,,right,1,1.287,0,0.836108811,#a3d0fb,"[""0.25"",""0""]",right_blue.png,right,0,2,2,1,1,,,right,right_blue.png,up_orange.png,up,right,up,61247491151682b679e31db0,2021-09-11_15h42.25.819,arrow_simon_vert,2021.1.2,MacIntel,59.97361161,,,,,,,,,,,,,,,,,,,,,,,,,,,,,,,,,,,,,,
,,,up,1,0.8185,0,0.028543645,#f3af84,"[""0"",""-0.25""]",up_orange.png,up,0,3,3,0,1,,,right,right_blue.png,up_orange.png,up,left,down,61247491151682b679e31db0,2021-09-11_15h42.25.819,arrow_simon_vert,2021.1.2,MacIntel,59.97361161,,,,,,,,,,,,,,,,,,,,,,,,,,,,,,,,,,,,,,
,,,right,1,0.8678,0,0.43354188,#a3d0fb,"[""0.25"",""0""]",right_blue.png,right,1,0,4,1,1,,,right,right_blue.png,up_orange.png,up,right,up,61247491151682b679e31db0,2021-09-11_15h42.25.819,arrow_simon_vert,2021.1.2,MacIntel,59.97361161,,,,,,,,,,,,,,,,,,,,,,,,,,,,,,,,,,,,,,
,,,up,1,0.7523,0,0.206586624,#f3af84,"[""0"",""0.25""]",up_orange.png,up,1,1,5,1,1,,,right,right_blue.png,up_orange.png,up,right,up,61247491151682b679e31db0,2021-09-11_15h42.25.819,arrow_simon_vert,2021.1.2,MacIntel,59.97361161,,,,,,,,,,,,,,,,,,,,,,,,,,,,,,,,,,,,,,
,,,left,1,1.3515,0,0.672916125,#a3d0fb,"[""-0.25"",""0""]",left_blue.png,left,1,2,6,2,1,,,left,left_blue.png,down_orange.png,down,left,down,61247491151682b679e31db0,2021-09-11_15h42.25.819,arrow_simon_vert,2021.1.2,MacIntel,59.97361161,,,,,,,,,,,,,,,,,,,,,,,,,,,,,,,,,,,,,,
,,,down,1,0.7536,0,0.093475752,#f3af84,"[""0"",""0.25""]",down_orange.png,down,1,3,7,3,1,,,left,left_blue.png,down_orange.png,down,right,up,61247491151682b679e31db0,2021-09-11_15h42.25.819,arrow_simon_vert,2021.1.2,MacIntel,59.97361161,,,,,,,,,,,,,,,,,,,,,,,,,,,,,,,,,,,,,,
,,,left,1,0.9342,0,0.146748563,#a3d0fb,"[""0.25"",""0""]",left_blue.png,left,2,0,8,3,1,,,left,left_blue.png,down_orange.png,down,right,up,61247491151682b679e31db0,2021-09-11_15h42.25.819,arrow_simon_vert,2021.1.2,MacIntel,59.97361161,,,,,,,,,,,,,,,,,,,,,,,,,,,,,,,,,,,,,,
,,,down,1,0.8847,0,0.380420756,#f3af84,"[""0"",""0.25""]",down_orange.png,down,2,1,9,3,1,,,left,left_blue.png,down_orange.png,down,right,up,61247491151682b679e31db0,2021-09-11_15h42.25.819,arrow_simon_vert,2021.1.2,MacIntel,59.97361161,,,,,,,,,,,,,,,,,,,,,,,,,,,,,,,,,,,,,,
,,,right,1,1.2508,0,0.684132884,#a3d0fb,"[""-0.25"",""0""]",right_blue.png,right,2,2,10,0,1,,,right,right_blue.png,up_orange.png,up,left,down,61247491151682b679e31db0,2021-09-11_15h42.25.819,arrow_simon_vert,2021.1.2,MacIntel,59.97361161,,,,,,,,,,,,,,,,,,,,,,,,,,,,,,,,,,,,,,
,,,up,1,0.954,0,0.207470569,#f3af84,"[""0"",""0.25""]",up_orange.png,up,2,3,11,1,1,,,right,right_blue.png,up_orange.png,up,right,up,61247491151682b679e31db0,2021-09-11_15h42.25.819,arrow_simon_vert,2021.1.2,MacIntel,59.97361161,,,,,,,,,,,,,,,,,,,,,,,,,,,,,,,,,,,,,,
,,,right,1,0.6415,0,0.075423114,#a3d0fb,"[""-0.25"",""0""]",right_blue.png,right,3,0,12,0,1,,,right,right_blue.png,up_orange.png,up,left,down,61247491151682b679e31db0,2021-09-11_15h42.25.819,arrow_simon_vert,2021.1.2,MacIntel,59.97361161,,,,,,,,,,,,,,,,,,,,,,,,,,,,,,,,,,,,,,
,,,down,1,1.2675,0,0.723221186,#f3af84,"[""0"",""-0.25""]",down_orange.png,down,3,1,13,2,1,,,left,left_blue.png,down_orange.png,down,left,down,61247491151682b679e31db0,2021-09-11_15h42.25.819,arrow_simon_vert,2021.1.2,MacIntel,59.97361161,,,,,,,,,,,,,,,,,,,,,,,,,,,,,,,,,,,,,,
,,,left,1,0.8684,0,0.24908541,#a3d0fb,"[""0.25"",""0""]",left_blue.png,left,3,2,14,3,1,,,left,left_blue.png,down_orange.png,down,right,up,61247491151682b679e31db0,2021-09-11_15h42.25.819,arrow_simon_vert,2021.1.2,MacIntel,59.97361161,,,,,,,,,,,,,,,,,,,,,,,,,,,,,,,,,,,,,,
,,,down,1,0.6015,0,0.119031888,#f3af84,"[""0"",""0.25""]",down_orange.png,down,3,3,15,3,1,,,left,left_blue.png,down_orange.png,down,right,up,61247491151682b679e31db0,2021-09-11_15h42.25.819,arrow_simon_vert,2021.1.2,MacIntel,59.97361161,,,,,,,,,,,,,,,,,,,,,,,,,,,,,,,,,,,,,,
,,,left,1,1.4872,0,0.961603078,#a3d0fb,"[""-0.25"",""0""]",left_blue.png,left,4,0,16,2,1,,,left,left_blue.png,down_orange.png,down,left,down,61247491151682b679e31db0,2021-09-11_15h42.25.819,arrow_simon_vert,2021.1.2,MacIntel,59.97361161,,,,,,,,,,,,,,,,,,,,,,,,,,,,,,,,,,,,,,
,,,down,1,0.7022,0,0.192433669,#f3af84,"[""0"",""0.25""]",down_orange.png,down,4,1,17,3,1,,,left,left_blue.png,down_orange.png,down,right,up,61247491151682b679e31db0,2021-09-11_15h42.25.819,arrow_simon_vert,2021.1.2,MacIntel,59.97361161,,,,,,,,,,,,,,,,,,,,,,,,,,,,,,,,,,,,,,
,,,left,1,1.5168,0,0.814504407,#a3d0fb,"[""0.25"",""0""]",left_blue.png,left,4,2,18,3,1,,,left,left_blue.png,down_orange.png,down,right,up,61247491151682b679e31db0,2021-09-11_15h42.25.819,arrow_simon_vert,2021.1.2,MacIntel,59.97361161,,,,,,,,,,,,,,,,,,,,,,,,,,,,,,,,,,,,,,
,,,up,1,1.7679,0,0.736164788,#f3af84,"[""0"",""-0.25""]",up_orange.png,up,4,3,19,0,1,,,right,right_blue.png,up_orange.png,up,left,down,61247491151682b679e31db0,2021-09-11_15h42.25.819,arrow_simon_vert,2021.1.2,MacIntel,59.97361161,,,,,,,,,,,,,,,,,,,,,,,,,,,,,,,,,,,,,,
,,,right,1,0.6343,0,0.18326951,#a3d0fb,"[""0.25"",""0""]",right_blue.png,right,5,0,20,1,1,,,right,right_blue.png,up_orange.png,up,right,up,61247491151682b679e31db0,2021-09-11_15h42.25.819,arrow_simon_vert,2021.1.2,MacIntel,59.97361161,,,,,,,,,,,,,,,,,,,,,,,,,,,,,,,,,,,,,,
,,,down,1,1.2541,0,0.618106019,#f3af84,"[""0"",""0.25""]",down_orange.png,down,5,1,21,3,1,,,left,left_blue.png,down_orange.png,down,right,up,61247491151682b679e31db0,2021-09-11_15h42.25.819,arrow_simon_vert,2021.1.2,MacIntel,59.97361161,,,,,,,,,,,,,,,,,,,,,,,,,,,,,,,,,,,,,,
,,,left,1,0.8201,0,0.266309123,#a3d0fb,"[""0.25"",""0""]",left_blue.png,left,5,2,22,3,1,,,left,left_blue.png,down_orange.png,down,right,up,61247491151682b679e31db0,2021-09-11_15h42.25.819,arrow_simon_vert,2021.1.2,MacIntel,59.97361161,,,,,,,,,,,,,,,,,,,,,,,,,,,,,,,,,,,,,,
,,,down,1,0.5503,0,0.050137379,#f3af84,"[""0"",""-0.25""]",down_orange.png,down,5,3,23,2,1,,,left,left_blue.png,down_orange.png,down,left,down,61247491151682b679e31db0,2021-09-11_15h42.25.819,arrow_simon_vert,2021.1.2,MacIntel,59.97361161,,,,,,,,,,,,,,,,,,,,,,,,,,,,,,,,,,,,,,
,,,right,1,1.0347,0,0.586261141,#a3d0fb,"[""0.25"",""0""]",right_blue.png,right,6,0,24,1,1,,,right,right_blue.png,up_orange.png,up,right,up,61247491151682b679e31db0,2021-09-11_15h42.25.819,arrow_simon_vert,2021.1.2,MacIntel,59.97361161,,,,,,,,,,,,,,,,,,,,,,,,,,,,,,,,,,,,,,
,,,up,1,1.7338,0,0.916204005,#f3af84,"[""0"",""-0.25""]",up_orange.png,up,6,1,25,0,1,,,right,right_blue.png,up_orange.png,up,left,down,61247491151682b679e31db0,2021-09-11_15h42.25.819,arrow_simon_vert,2021.1.2,MacIntel,59.97361161,,,,,,,,,,,,,,,,,,,,,,,,,,,,,,,,,,,,,,
,,,left,1,1.5002,0,0.931831247,#a3d0fb,"[""-0.25"",""0""]",left_blue.png,left,6,2,26,2,1,,,left,left_blue.png,down_orange.png,down,left,down,61247491151682b679e31db0,2021-09-11_15h42.25.819,arrow_simon_vert,2021.1.2,MacIntel,59.97361161,,,,,,,,,,,,,,,,,,,,,,,,,,,,,,,,,,,,,,
,,,up,1,0.9172,0,0.283396352,#f3af84,"[""0"",""-0.25""]",up_orange.png,up,6,3,27,0,1,,,right,right_blue.png,up_orange.png,up,left,down,61247491151682b679e31db0,2021-09-11_15h42.25.819,arrow_simon_vert,2021.1.2,MacIntel,59.97361161,,,,,,,,,,,,,,,,,,,,,,,,,,,,,,,,,,,,,,
,,,left,1,1.202,0,0.702663166,#a3d0fb,"[""-0.25"",""0""]",left_blue.png,left,7,0,28,2,1,,,left,left_blue.png,down_orange.png,down,left,down,61247491151682b679e31db0,2021-09-11_15h42.25.819,arrow_simon_vert,2021.1.2,MacIntel,59.97361161,,,,,,,,,,,,,,,,,,,,,,,,,,,,,,,,,,,,,,
,,,down,1,2.168,0,0.705410738,#f3af84,"[""0"",""-0.25""]",down_orange.png,down,7,1,29,2,1,,,left,left_blue.png,down_orange.png,down,left,down,61247491151682b679e31db0,2021-09-11_15h42.25.819,arrow_simon_vert,2021.1.2,MacIntel,59.97361161,,,,,,,,,,,,,,,,,,,,,,,,,,,,,,,,,,,,,,
,,,right,1,1.3192,0,0.739253721,#a3d0fb,"[""-0.25"",""0""]",right_blue.png,right,7,2,30,0,1,,,right,right_blue.png,up_orange.png,up,left,down,61247491151682b679e31db0,2021-09-11_15h42.25.819,arrow_simon_vert,2021.1.2,MacIntel,59.97361161,,,,,,,,,,,,,,,,,,,,,,,,,,,,,,,,,,,,,,
,,,down,1,2.4017,0,0.31108456,#f3af84,"[""0"",""-0.25""]",down_orange.png,down,7,3,31,2,1,,,left,left_blue.png,down_orange.png,down,left,down,61247491151682b679e31db0,2021-09-11_15h42.25.819,arrow_simon_vert,2021.1.2,MacIntel,59.97361161,,,,,,,,,,,,,,,,,,,,,,,,,,,,,,,,,,,,,,
,,,right,1,0.9692,0,0.384445316,#a3d0fb,"[""-0.25"",""0""]",right_blue.png,right,8,0,32,0,1,,,right,right_blue.png,up_orange.png,up,left,down,61247491151682b679e31db0,2021-09-11_15h42.25.819,arrow_simon_vert,2021.1.2,MacIntel,59.97361161,,,,,,,,,,,,,,,,,,,,,,,,,,,,,,,,,,,,,,
,,,down,1,1.1547,0,0.610810742,#f3af84,"[""0"",""0.25""]",down_orange.png,down,8,1,33,3,1,,,left,left_blue.png,down_orange.png,down,right,up,61247491151682b679e31db0,2021-09-11_15h42.25.819,arrow_simon_vert,2021.1.2,MacIntel,59.97361161,,,,,,,,,,,,,,,,,,,,,,,,,,,,,,,,,,,,,,
,,,right,1,4.1375,0,0.412386715,#a3d0fb,"[""0.25"",""0""]",right_blue.png,right,8,2,34,1,1,,,right,right_blue.png,up_orange.png,up,right,up,61247491151682b679e31db0,2021-09-11_15h42.25.819,arrow_simon_vert,2021.1.2,MacIntel,59.97361161,,,,,,,,,,,,,,,,,,,,,,,,,,,,,,,,,,,,,,
,,,up,1,1.7853,0,0.989936732,#f3af84,"[""0"",""0.25""]",up_orange.png,up,8,3,35,1,1,,,right,right_blue.png,up_orange.png,up,right,up,61247491151682b679e31db0,2021-09-11_15h42.25.819,arrow_simon_vert,2021.1.2,MacIntel,59.97361161,,,,,,,,,,,,,,,,,,,,,,,,,,,,,,,,,,,,,,
,,,left,1,0.7044,0,0.003960678,#a3d0fb,"[""0.25"",""0""]",left_blue.png,left,9,0,36,3,1,,,left,left_blue.png,down_orange.png,down,right,up,61247491151682b679e31db0,2021-09-11_15h42.25.819,arrow_simon_vert,2021.1.2,MacIntel,59.97361161,,,,,,,,,,,,,,,,,,,,,,,,,,,,,,,,,,,,,,
,,,down,1,0.5172,0,0.009492583,#f3af84,"[""0"",""-0.25""]",down_orange.png,down,9,1,37,2,1,,,left,left_blue.png,down_orange.png,down,left,down,61247491151682b679e31db0,2021-09-11_15h42.25.819,arrow_simon_vert,2021.1.2,MacIntel,59.97361161,,,,,,,,,,,,,,,,,,,,,,,,,,,,,,,,,,,,,,
,,,left,1,1.3022,0,0.859812739,#a3d0fb,"[""-0.25"",""0""]",left_blue.png,left,9,2,38,2,1,,,left,left_blue.png,down_orange.png,down,left,down,61247491151682b679e31db0,2021-09-11_15h42.25.819,arrow_simon_vert,2021.1.2,MacIntel,59.97361161,,,,,,,,,,,,,,,,,,,,,,,,,,,,,,,,,,,,,,
,,,up,1,1.1177,0,0.278906225,#f3af84,"[""0"",""0.25""]",up_orange.png,up,9,3,39,1,1,,,right,right_blue.png,up_orange.png,up,right,up,61247491151682b679e31db0,2021-09-11_15h42.25.819,arrow_simon_vert,2021.1.2,MacIntel,59.97361161,,,,,,,,,,,,,,,,,,,,,,,,,,,,,,,,,,,,,,
,,,right,1,1.0004,0,0.464100387,#a3d0fb,"[""-0.25"",""0""]",right_blue.png,right,10,0,40,0,1,,,right,right_blue.png,up_orange.png,up,left,down,61247491151682b679e31db0,2021-09-11_15h42.25.819,arrow_simon_vert,2021.1.2,MacIntel,59.97361161,,,,,,,,,,,,,,,,,,,,,,,,,,,,,,,,,,,,,,
,,,up,1,1.4678,0,0.59826156,#f3af84,"[""0"",""-0.25""]",up_orange.png,up,10,1,41,0,1,,,right,right_blue.png,up_orange.png,up,left,down,61247491151682b679e31db0,2021-09-11_15h42.25.819,arrow_simon_vert,2021.1.2,MacIntel,59.97361161,,,,,,,,,,,,,,,,,,,,,,,,,,,,,,,,,,,,,,
,,,left,1,0.5857,0,0.10638358,#a3d0fb,"[""-0.25"",""0""]",left_blue.png,left,10,2,42,2,1,,,left,left_blue.png,down_orange.png,down,left,down,61247491151682b679e31db0,2021-09-11_15h42.25.819,arrow_simon_vert,2021.1.2,MacIntel,59.97361161,,,,,,,,,,,,,,,,,,,,,,,,,,,,,,,,,,,,,,
,,,up,1,1.4361,0,0.952873015,#f3af84,"[""0"",""-0.25""]",up_orange.png,up,10,3,43,0,1,,,right,right_blue.png,up_orange.png,up,left,down,61247491151682b679e31db0,2021-09-11_15h42.25.819,arrow_simon_vert,2021.1.2,MacIntel,59.97361161,,,,,,,,,,,,,,,,,,,,,,,,,,,,,,,,,,,,,,
,,,right,1,1.418,0,0.981402088,#a3d0fb,"[""-0.25"",""0""]",right_blue.png,right,11,0,44,0,1,,,right,right_blue.png,up_orange.png,up,left,down,61247491151682b679e31db0,2021-09-11_15h42.25.819,arrow_simon_vert,2021.1.2,MacIntel,59.97361161,,,,,,,,,,,,,,,,,,,,,,,,,,,,,,,,,,,,,,
,,,up,1,1.9523,0,0.273517367,#f3af84,"[""0"",""0.25""]",up_orange.png,up,11,1,45,1,1,,,right,right_blue.png,up_orange.png,up,right,up,61247491151682b679e31db0,2021-09-11_15h42.25.819,arrow_simon_vert,2021.1.2,MacIntel,59.97361161,,,,,,,,,,,,,,,,,,,,,,,,,,,,,,,,,,,,,,
,,,left,1,0.9192,0,0.414769429,#a3d0fb,"[""0.25"",""0""]",left_blue.png,left,11,2,46,3,1,,,left,left_blue.png,down_orange.png,down,right,up,61247491151682b679e31db0,2021-09-11_15h42.25.819,arrow_simon_vert,2021.1.2,MacIntel,59.97361161,,,,,,,,,,,,,,,,,,,,,,,,,,,,,,,,,,,,,,
,,,up,1,0.9211,0,0.415756118,#f3af84,"[""0"",""0.25""]",up_orange.png,up,11,3,47,1,1,,,right,right_blue.png,up_orange.png,up,right,up,61247491151682b679e31db0,2021-09-11_15h42.25.819,arrow_simon_vert,2021.1.2,MacIntel,59.97361161,,,,,,,,,,,,,,,,,,,,,,,,,,,,,,,,,,,,,,
,,,left,1,0.9536,0,0.443011944,#a3d0fb,"[""-0.25"",""0""]",left_blue.png,left,12,0,48,2,1,,,left,left_blue.png,down_orange.png,down,left,down,61247491151682b679e31db0,2021-09-11_15h42.25.819,arrow_simon_vert,2021.1.2,MacIntel,59.97361161,,,,,,,,,,,,,,,,,,,,,,,,,,,,,,,,,,,,,,
,,,up,1,0.6702,0,0.266658387,#f3af84,"[""0"",""0.25""]",up_orange.png,up,12,1,49,1,1,,,right,right_blue.png,up_orange.png,up,right,up,61247491151682b679e31db0,2021-09-11_15h42.25.819,arrow_simon_vert,2021.1.2,MacIntel,59.97361161,,,,,,,,,,,,,,,,,,,,,,,,,,,,,,,,,,,,,,
,,,right,1,1.0665,0,0.543283945,#a3d0fb,"[""0.25"",""0""]",right_blue.png,right,12,2,50,1,1,,,right,right_blue.png,up_orange.png,up,right,up,61247491151682b679e31db0,2021-09-11_15h42.25.819,arrow_simon_vert,2021.1.2,MacIntel,59.97361161,,,,,,,,,,,,,,,,,,,,,,,,,,,,,,,,,,,,,,
,,,down,1,0.718,0,0.121396728,#f3af84,"[""0"",""-0.25""]",down_orange.png,down,12,3,51,2,1,,,left,left_blue.png,down_orange.png,down,left,down,61247491151682b679e31db0,2021-09-11_15h42.25.819,arrow_simon_vert,2021.1.2,MacIntel,59.97361161,,,,,,,,,,,,,,,,,,,,,,,,,,,,,,,,,,,,,,
,,,right,1,1.02,0,0.467677039,#a3d0fb,"[""-0.25"",""0""]",right_blue.png,right,13,0,52,0,1,,,right,right_blue.png,up_orange.png,up,left,down,61247491151682b679e31db0,2021-09-11_15h42.25.819,arrow_simon_vert,2021.1.2,MacIntel,59.97361161,,,,,,,,,,,,,,,,,,,,,,,,,,,,,,,,,,,,,,
,,,up,0,0.6695,1,0.258404992,#f3af84,"[""0"",""0.25""]",down_orange.png,down,13,1,53,3,1,,,left,left_blue.png,down_orange.png,down,right,up,61247491151682b679e31db0,2021-09-11_15h42.25.819,arrow_simon_vert,2021.1.2,MacIntel,59.97361161,,,,,,,,,,,,,,,,,,,,,,,,,,,,,,,,,,,,,,
,,,left,1,1.0033,0,0.494822589,#a3d0fb,"[""0.25"",""0""]",left_blue.png,left,13,2,54,3,1,,,left,left_blue.png,down_orange.png,down,right,up,61247491151682b679e31db0,2021-09-11_15h42.25.819,arrow_simon_vert,2021.1.2,MacIntel,59.97361161,,,,,,,,,,,,,,,,,,,,,,,,,,,,,,,,,,,,,,
,,,down,1,1.1841,0,0.761883015,#f3af84,"[""0"",""-0.25""]",down_orange.png,down,13,3,55,2,1,,,left,left_blue.png,down_orange.png,down,left,down,61247491151682b679e31db0,2021-09-11_15h42.25.819,arrow_simon_vert,2021.1.2,MacIntel,59.97361161,,,,,,,,,,,,,,,,,,,,,,,,,,,,,,,,,,,,,,
,,,left,1,0.7991,0,0.315038053,#a3d0fb,"[""-0.25"",""0""]",left_blue.png,left,14,0,56,2,1,,,left,left_blue.png,down_orange.png,down,left,down,61247491151682b679e31db0,2021-09-11_15h42.25.819,arrow_simon_vert,2021.1.2,MacIntel,59.97361161,,,,,,,,,,,,,,,,,,,,,,,,,,,,,,,,,,,,,,
,,,up,1,1.3346,0,0.911279848,#f3af84,"[""0"",""0.25""]",up_orange.png,up,14,1,57,1,1,,,right,right_blue.png,up_orange.png,up,right,up,61247491151682b679e31db0,2021-09-11_15h42.25.819,arrow_simon_vert,2021.1.2,MacIntel,59.97361161,,,,,,,,,,,,,,,,,,,,,,,,,,,,,,,,,,,,,,
,,,right,1,1.2683,0,0.919282607,#a3d0fb,"[""0.25"",""0""]",right_blue.png,right,14,2,58,1,1,,,right,right_blue.png,up_orange.png,up,right,up,61247491151682b679e31db0,2021-09-11_15h42.25.819,arrow_simon_vert,2021.1.2,MacIntel,59.97361161,,,,,,,,,,,,,,,,,,,,,,,,,,,,,,,,,,,,,,
,,,up,1,0.8216,0,0.330360447,#f3af84,"[""0"",""-0.25""]",up_orange.png,up,14,3,59,0,1,,,right,right_blue.png,up_orange.png,up,left,down,61247491151682b679e31db0,2021-09-11_15h42.25.819,arrow_simon_vert,2021.1.2,MacIntel,59.97361161,,,,,,,,,,,,,,,,,,,,,,,,,,,,,,,,,,,,,,
,,,,,,,,,,,,,,,,,,,,,,,,,61247491151682b679e31db0,2021-09-11_15h42.25.819,arrow_simon_vert,2021.1.2,MacIntel,59.97361161,space,2.7124,1,0,1,0,1,,,,,,,,,,,,,,,,,,,,,,,,,,,,,,,
,,,,,,,,,,,,,,,,,,,,,,,,,61247491151682b679e31db0,2021-09-11_15h42.25.819,arrow_simon_vert,2021.1.2,MacIntel,59.97361161,,,,,,,,space,0,88.7456,left,5.4299,0,0,0,0,1,,,,,,,,,,,,,,,,,,,,,
,,,,,,,,,,,,,,,,,,,,,,,,,61247491151682b679e31db0,2021-09-11_15h42.25.819,arrow_simon_vert,2021.1.2,MacIntel,59.97361161,,,,,,,,,,,up,3.5193,1,0,1,0,1,,,,,,,,,,,,,,,,,,,,,
,,,,,,,,,,,,,,,,,,,,,,,,,61247491151682b679e31db0,2021-09-11_15h42.25.819,arrow_simon_vert,2021.1.2,MacIntel,59.97361161,,,,,,,,,,,right,2.0705,2,0,2,0,1,,,,,,,,,,,,,,,,,,,,,
,,,,,,,,,,,,,,,,,,,,,,,,,61247491151682b679e31db0,2021-09-11_15h42.25.819,arrow_simon_vert,2021.1.2,MacIntel,59.97361161,,,,,,,,,,,down,2.2027,3,0,3,0,1,,,,,,,,,,,,,,,,,,,,,
,,,,,,,,,,,,,,,,,,,,,,,,,61247491151682b679e31db0,2021-09-11_15h42.25.819,arrow_simon_vert,2021.1.2,MacIntel,59.97361161,,,,,,,,,,,right,2.8699,4,0,4,0,1,,,,,,,,,,,,,,,,,,,,,
,,,,,,,,,,,,,,,,,,,,,,,,,61247491151682b679e31db0,2021-09-11_15h42.25.819,arrow_simon_vert,2021.1.2,MacIntel,59.97361161,,,,,,,,,,,down,2.7022,5,0,5,0,1,,,,,,,,,,,,,,,,,,,,,
,,,,,,,,,,,,,,,,,,,,,,,,,61247491151682b679e31db0,2021-09-11_15h42.25.819,arrow_simon_vert,2021.1.2,MacIntel,59.97361161,,,,,,,,,,,left,2.2369,6,0,6,0,1,,,,,,,,,,,,,,,,,,,,,
,,,,,,,,,,,,,,,,,,,,,,,,,61247491151682b679e31db0,2021-09-11_15h42.25.819,arrow_simon_vert,2021.1.2,MacIntel,59.97361161,,,,,,,,,,,down,2.4863,7,0,7,0,1,,,,,,,,,,,,,,,,,,,,,
,,,,,,,,,,,,,,,,,,,,,,,,,61247491151682b679e31db0,2021-09-11_15h42.25.819,arrow_simon_vert,2021.1.2,MacIntel,59.97361161,,,,,,,,,,,left,1.9883,8,0,8,0,1,,,,,,,,,,,,,,,,,,,,,
,,,,,,,,,,,,,,,,,,,,,,,,,61247491151682b679e31db0,2021-09-11_15h42.25.819,arrow_simon_vert,2021.1.2,MacIntel,59.97361161,,,,,,,,,,,down,1.9344,9,0,9,0,1,,,,,,,,,,,,,,,,,,,,,
,,,,,,,,,,,,,,,,,,,,,,,,,61247491151682b679e31db0,2021-09-11_15h42.25.819,arrow_simon_vert,2021.1.2,MacIntel,59.97361161,,,,,,,,,,,right,2.0037,10,0,10,0,1,,,,,,,,,,,,,,,,,,,,,
,,,,,,,,,,,,,,,,,,,,,,,,,61247491151682b679e31db0,2021-09-11_15h42.25.819,arrow_simon_vert,2021.1.2,MacIntel,59.97361161,,,,,,,,,,,down,2.6701,11,0,11,0,1,,,,,,,,,,,,,,,,,,,,,
,,,,,,,,,,,,,,,,,,,,,,,,,61247491151682b679e31db0,2021-09-11_15h42.25.819,arrow_simon_vert,2021.1.2,MacIntel,59.97361161,,,,,,,,,,,right,2.1014,12,0,12,0,1,,,,,,,,,,,,,,,,,,,,,
,,,,,,,,,,,,,,,,,,,,,,,,,61247491151682b679e31db0,2021-09-11_15h42.25.819,arrow_simon_vert,2021.1.2,MacIntel,59.97361161,,,,,,,,,,,down,2.4848,13,0,13,0,1,,,,,,,,,,,,,,,,,,,,,
,,,,,,,,,,,,,,,,,,,,,,,,,61247491151682b679e31db0,2021-09-11_15h42.25.819,arrow_simon_vert,2021.1.2,MacIntel,59.97361161,,,,,,,,,,,right,2.468,14,0,14,0,1,,,,,,,,,,,,,,,,,,,,,
,,,,,,,,,,,,,,,,,,,,,,,,,61247491151682b679e31db0,2021-09-11_15h42.25.819,arrow_simon_vert,2021.1.2,MacIntel,59.97361161,,,,,,,,,,,down,2.2848,15,0,15,0,1,,,,,,,,,,,,,,,,,,,,,
,,,,,,,,,,,,,,,,,,,,,,,,,61247491151682b679e31db0,2021-09-11_15h42.25.819,arrow_simon_vert,2021.1.2,MacIntel,59.97361161,,,,,,,,,,,right,2.337,16,0,16,0,1,,,,,,,,,,,,,,,,,,,,,
,,,,,,,,,,,,,,,,,,,,,,,,,61247491151682b679e31db0,2021-09-11_15h42.25.819,arrow_simon_vert,2021.1.2,MacIntel,59.97361161,,,,,,,,,,,down,2.4854,17,0,17,0,1,,,,,,,,,,,,,,,,,,,,,
,,,,,,,,,,,,,,,,,,,,,,,,,61247491151682b679e31db0,2021-09-11_15h42.25.819,arrow_simon_vert,2021.1.2,MacIntel,59.97361161,,,,,,,,,,,up,2.5698,18,0,18,0,1,,,,,,,,,,,,,,,,,,,,,
,,,,,,,,,,,,,,,,,,,,,,,,,61247491151682b679e31db0,2021-09-11_15h42.25.819,arrow_simon_vert,2021.1.2,MacIntel,59.97361161,,,,,,,,,,,down,2.4525,19,0,19,0,1,,,,,,,,,,,,,,,,,,,,,
,,,,,,,,,,,,,,,,,,,,,,,,,61247491151682b679e31db0,2021-09-11_15h42.25.819,arrow_simon_vert,2021.1.2,MacIntel,59.97361161,,,,,,,,,,,left,2.4187,20,0,20,0,1,,,,,,,,,,,,,,,,,,,,,
,,,,,,,,,,,,,,,,,,,,,,,,,61247491151682b679e31db0,2021-09-11_15h42.25.819,arrow_simon_vert,2021.1.2,MacIntel,59.97361161,,,,,,,,,,,down,2.5023,21,0,21,0,1,,,,,,,,,,,,,,,,,,,,,
,,,,,,,,,,,,,,,,,,,,,,,,,61247491151682b679e31db0,2021-09-11_15h42.25.819,arrow_simon_vert,2021.1.2,MacIntel,59.97361161,,,,,,,,,,,up,2.4185,22,0,22,0,1,,,,,,,,,,,,,,,,,,,,,
,,,,,,,,,,,,,,,,,,,,,,,,,61247491151682b679e31db0,2021-09-11_15h42.25.819,arrow_simon_vert,2021.1.2,MacIntel,59.97361161,,,,,,,,,,,up,2.4691,23,0,23,0,1,,,,,,,,,,,,,,,,,,,,,
,,,,,,,,,,,,,,,,,,,,,,,,,61247491151682b679e31db0,2021-09-11_15h42.25.819,arrow_simon_vert,2021.1.2,MacIntel,59.97361161,,,,,,,,,,,left,2.4529,24,0,24,0,1,,,,,,,,,,,,,,,,,,,,,
,,,,,,,,,,,,,,,,,,,,,,,,,61247491151682b679e31db0,2021-09-11_15h42.25.819,arrow_simon_vert,2021.1.2,MacIntel,59.97361161,,,,,,,,,,,down,2.4857,25,0,25,0,1,,,,,,,,,,,,,,,,,,,,,
,,,,,,,,,,,,,,,,,,,,,,,,,61247491151682b679e31db0,2021-09-11_15h42.25.819,arrow_simon_vert,2021.1.2,MacIntel,59.97361161,,,,,,,,,,,down,2.4186,26,0,26,0,1,,,,,,,,,,,,,,,,,,,,,
,,,,,,,,,,,,,,,,,,,,,,,,,61247491151682b679e31db0,2021-09-11_15h42.25.819,arrow_simon_vert,2021.1.2,MacIntel,59.97361161,,,,,,,,,,,down,2.4349,27,0,27,0,1,,,,,,,,,,,,,,,,,,,,,
,,,,,,,,,,,,,,,,,,,,,,,,,61247491151682b679e31db0,2021-09-11_15h42.25.819,arrow_simon_vert,2021.1.2,MacIntel,59.97361161,,,,,,,,,,,left,2.4355,28,0,28,0,1,,,,,,,,,,,,,,,,,,,,,
,,,,,,,,,,,,,,,,,,,,,,,,,61247491151682b679e31db0,2021-09-11_15h42.25.819,arrow_simon_vert,2021.1.2,MacIntel,59.97361161,,,,,,,,,,,down,2.4674,29,0,29,0,1,,,,,,,,,,,,,,,,,,,,,
,,,,,,,,,,,,,,,,,,,,,,,,,61247491151682b679e31db0,2021-09-11_15h42.25.819,arrow_simon_vert,2021.1.2,MacIntel,59.97361161,,,,,,,,,,,right,3.1538,30,0,30,0,1,,,,,,,,,,,,,,,,,,,,,
,,,,,,,,,,,,,,,,,,,,,,,,,61247491151682b679e31db0,2021-09-11_15h42.25.819,arrow_simon_vert,2021.1.2,MacIntel,59.97361161,,,,,,,,,,,down,2.4392,31,0,31,0,1,,,,,,,,,,,,,,,,,,,,,
,,,,,,,,,,,,,,,,,,,,,,,,,61247491151682b679e31db0,2021-09-11_15h42.25.819,arrow_simon_vert,2021.1.2,MacIntel,59.97361161,,,,,,,,,,,left,2.4189,32,0,32,0,1,,,,,,,,,,,,,,,,,,,,,
,,,,,,,,,,,,,,,,,,,,,,,,,61247491151682b679e31db0,2021-09-11_15h42.25.819,arrow_simon_vert,2021.1.2,MacIntel,59.97361161,,,,,,,,,,,up,2.4515,33,0,33,0,1,,,,,,,,,,,,,,,,,,,,,
,,,,,,,,,,,,,,,,,,,,,,,,,61247491151682b679e31db0,2021-09-11_15h42.25.819,arrow_simon_vert,2021.1.2,MacIntel,59.97361161,,,,,,,,,,,left,2.3525,34,0,34,0,1,,,,,,,,,,,,,,,,,,,,,
,,,,,,,,,,,,,,,,,,,,,,,,,61247491151682b679e31db0,2021-09-11_15h42.25.819,arrow_simon_vert,2021.1.2,MacIntel,59.97361161,,,,,,,,,,,down,2.3675,35,0,35,0,1,,,,,,,,,,,,,,,,,,,,,
,,,,,,,,,,,,,,,,,,,,,,,,,61247491151682b679e31db0,2021-09-11_15h42.25.819,arrow_simon_vert,2021.1.2,MacIntel,59.97361161,,,,,,,,,,,left,2.421,36,0,36,0,1,,,,,,,,,,,,,,,,,,,,,
,,,,,,,,,,,,,,,,,,,,,,,,,61247491151682b679e31db0,2021-09-11_15h42.25.819,arrow_simon_vert,2021.1.2,MacIntel,59.97361161,,,,,,,,,,,down,2.4202,37,0,37,0,1,,,,,,,,,,,,,,,,,,,,,
,,,,,,,,,,,,,,,,,,,,,,,,,61247491151682b679e31db0,2021-09-11_15h42.25.819,arrow_simon_vert,2021.1.2,MacIntel,59.97361161,,,,,,,,,,,left,2.5343,38,0,38,0,1,,,,,,,,,,,,,,,,,,,,,
,,,,,,,,,,,,,,,,,,,,,,,,,61247491151682b679e31db0,2021-09-11_15h42.25.819,arrow_simon_vert,2021.1.2,MacIntel,59.97361161,,,,,,,,,,,down,2.4677,39,0,39,0,1,,,,,,,,,,,,,,,,,,,,,
,,,,,,,,,,,,,,,,,,,,,,,,,61247491151682b679e31db0,2021-09-11_15h42.25.819,arrow_simon_vert,2021.1.2,MacIntel,59.97361161,,,,,,,,,,,right,2.5031,40,0,40,0,1,,,,,,,,,,,,,,,,,,,,,
,,,,,,,,,,,,,,,,,,,,,,,,,61247491151682b679e31db0,2021-09-11_15h42.25.819,arrow_simon_vert,2021.1.2,MacIntel,59.97361161,,,,,,,,,,,up,2.4045,41,0,41,0,1,,,,,,,,,,,,,,,,,,,,,
,,,,,,,,,,,,,,,,,,,,,,,,,61247491151682b679e31db0,2021-09-11_15h42.25.819,arrow_simon_vert,2021.1.2,MacIntel,59.97361161,,,,,,,,,,,left,2.5171,42,0,42,0,1,,,,,,,,,,,,,,,,,,,,,
,,,,,,,,,,,,,,,,,,,,,,,,,61247491151682b679e31db0,2021-09-11_15h42.25.819,arrow_simon_vert,2021.1.2,MacIntel,59.97361161,,,,,,,,,,,down,2.4544,43,0,43,0,1,,,,,,,,,,,,,,,,,,,,,
,,,,,,,,,,,,,,,,,,,,,,,,,61247491151682b679e31db0,2021-09-11_15h42.25.819,arrow_simon_vert,2021.1.2,MacIntel,59.97361161,,,,,,,,,,,right,2.4517,44,0,44,0,1,,,,,,,,,,,,,,,,,,,,,
,,,,,,,,,,,,,,,,,,,,,,,,,61247491151682b679e31db0,2021-09-11_15h42.25.819,arrow_simon_vert,2021.1.2,MacIntel,59.97361161,,,,,,,,,,,down,2.3008,45,0,45,0,1,,,,,,,,,,,,,,,,,,,,,
,,,,,,,,,,,,,,,,,,,,,,,,,61247491151682b679e31db0,2021-09-11_15h42.25.819,arrow_simon_vert,2021.1.2,MacIntel,59.97361161,,,,,,,,,,,down,2.3518,46,0,46,0,1,,,,,,,,,,,,,,,,,,,,,
,,,,,,,,,,,,,,,,,,,,,,,,,61247491151682b679e31db0,2021-09-11_15h42.25.819,arrow_simon_vert,2021.1.2,MacIntel,59.97361161,,,,,,,,,,,down,2.3519,47,0,47,0,1,,,,,,,,,,,,,,,,,,,,,
,,,,,,,,,,,,,,,,,,,,,,,,,61247491151682b679e31db0,2021-09-11_15h42.25.819,arrow_simon_vert,2021.1.2,MacIntel,59.97361161,,,,,,,,,,,right,2.2853,48,0,48,0,1,,,,,,,,,,,,,,,,,,,,,
,,,,,,,,,,,,,,,,,,,,,,,,,61247491151682b679e31db0,2021-09-11_15h42.25.819,arrow_simon_vert,2021.1.2,MacIntel,59.97361161,,,,,,,,,,,down,2.4217,49,0,49,0,1,,,,,,,,,,,,,,,,,,,,,
,,,,,,,,,,,,,,,,,,,,,,,,,61247491151682b679e31db0,2021-09-11_15h42.25.819,arrow_simon_vert,2021.1.2,MacIntel,59.97361161,,,,,,,,,,,left,2.5017,50,0,50,0,1,,,,,,,,,,,,,,,,,,,,,
,,,,,,,,,,,,,,,,,,,,,,,,,61247491151682b679e31db0,2021-09-11_15h42.25.819,arrow_simon_vert,2021.1.2,MacIntel,59.97361161,,,,,,,,,,,down,2.4516,51,0,51,0,1,,,,,,,,,,,,,,,,,,,,,
,,,,,,,,,,,,,,,,,,,,,,,,,61247491151682b679e31db0,2021-09-11_15h42.25.819,arrow_simon_vert,2021.1.2,MacIntel,59.97361161,,,,,,,,,,,left,2.418,52,0,52,0,1,,,,,,,,,,,,,,,,,,,,,
,,,,,,,,,,,,,,,,,,,,,,,,,61247491151682b679e31db0,2021-09-11_15h42.25.819,arrow_simon_vert,2021.1.2,MacIntel,59.97361161,,,,,,,,,,,up,2.5189,53,0,53,0,1,,,,,,,,,,,,,,,,,,,,,
,,,,,,,,,,,,,,,,,,,,,,,,,61247491151682b679e31db0,2021-09-11_15h42.25.819,arrow_simon_vert,2021.1.2,MacIntel,59.97361161,,,,,,,,,,,right,2.5515,54,0,54,0,1,,,,,,,,,,,,,,,,,,,,,
,,,,,,,,,,,,,,,,,,,,,,,,,61247491151682b679e31db0,2021-09-11_15h42.25.819,arrow_simon_vert,2021.1.2,MacIntel,59.97361161,,,,,,,,,,,down,2.4342,55,0,55,0,1,,,,,,,,,,,,,,,,,,,,,
,,,,,,,,,,,,,,,,,,,,,,,,,61247491151682b679e31db0,2021-09-11_15h42.25.819,arrow_simon_vert,2021.1.2,MacIntel,59.97361161,,,,,,,,,,,left,2.4182,56,0,56,0,1,,,,,,,,,,,,,,,,,,,,,
,,,,,,,,,,,,,,,,,,,,,,,,,61247491151682b679e31db0,2021-09-11_15h42.25.819,arrow_simon_vert,2021.1.2,MacIntel,59.97361161,,,,,,,,,,,down,2.4198,57,0,57,0,1,,,,,,,,,,,,,,,,,,,,,
,,,,,,,,,,,,,,,,,,,,,,,,,61247491151682b679e31db0,2021-09-11_15h42.25.819,arrow_simon_vert,2021.1.2,MacIntel,59.97361161,,,,,,,,,,,right,2.3675,58,0,58,0,1,,,,,,,,,,,,,,,,,,,,,
,,,,,,,,,,,,,,,,,,,,,,,,,61247491151682b679e31db0,2021-09-11_15h42.25.819,arrow_simon_vert,2021.1.2,MacIntel,59.97361161,,,,,,,,,,,up,3.2393,59,0,59,0,1,,,,,,,,,,,,,,,,,,,,,
,,,,,,0,2.078703696,#a3d0fb,"[""-0.25"",""0""]",right_blue.png,right,,,,,,,,right,right_blue.png,up_orange.png,up,left,down,61247491151682b679e31db0,2021-09-11_15h42.25.819,arrow_simon_vert,2021.1.2,MacIntel,59.97361161,,,,,,,,,,,,,,,,,,space,0,34.5607,right,1,1.9276,1,TRUE,FALSE,0,0,0,0,1,,,,,,,
,,,,,,0,2.24076635,#f3af84,"[""0"",""0.25""]",up_orange.png,up,,,,,,,,right,right_blue.png,up_orange.png,up,right,up,61247491151682b679e31db0,2021-09-11_15h42.25.819,arrow_simon_vert,2021.1.2,MacIntel,59.97361161,,,,,,,,,,,,,,,,,,,,,up,1,2.3088,2,TRUE,FALSE,0,1,1,1,1,,,,,,,
,,,,,,0,2.122518401,#a3d0fb,"[""-0.25"",""0""]",right_blue.png,right,,,,,,,,right,right_blue.png,up_orange.png,up,left,down,61247491151682b679e31db0,2021-09-11_15h42.25.819,arrow_simon_vert,2021.1.2,MacIntel,59.97361161,,,,,,,,,,,,,,,,,,,,,right,1,1.3846,3,FALSE,TRUE,0,2,2,0,1,,,,,,,
,,,,,,0,2.298810153,#f3af84,"[""0"",""-0.25""]",down_orange.png,down,,,,,,,,left,left_blue.png,down_orange.png,down,left,down,61247491151682b679e31db0,2021-09-11_15h42.25.819,arrow_simon_vert,2021.1.2,MacIntel,59.97361161,,,,,,,,,,,,,,,,,,,,,down,1,1.8043,4,TRUE,FALSE,0,3,3,2,1,,,,,,,
,,,,,,0,1.728232977,#a3d0fb,"[""-0.25"",""0""]",right_blue.png,right,,,,,,,,right,right_blue.png,up_orange.png,up,left,down,61247491151682b679e31db0,2021-09-11_15h42.25.819,arrow_simon_vert,2021.1.2,MacIntel,59.97361161,,,,,,,,,,,,,,,,,,,,,right,1,1.5693,5,FALSE,FALSE,1,0,4,0,1,,,,,,,
,,,,,,0,2.276964192,#f3af84,"[""0"",""-0.25""]",up_orange.png,up,,,,,,,,right,right_blue.png,up_orange.png,up,left,down,61247491151682b679e31db0,2021-09-11_15h42.25.819,arrow_simon_vert,2021.1.2,MacIntel,59.97361161,,,,,,,,,,,,,,,,,,,,,up,1,1.7358,6,TRUE,FALSE,1,1,5,0,1,,,,,,,
,,,,,,0,2.337054301,#a3d0fb,"[""0.25"",""0""]",right_blue.png,right,,,,,,,,right,right_blue.png,up_orange.png,up,right,up,61247491151682b679e31db0,2021-09-11_15h42.25.819,arrow_simon_vert,2021.1.2,MacIntel,59.97361161,,,,,,,,,,,,,,,,,,,,,right,1,1.6527,7,TRUE,FALSE,1,2,6,1,1,,,,,,,
,,,,,,0,1.680294124,#f3af84,"[""0"",""-0.25""]",down_orange.png,down,,,,,,,,left,left_blue.png,down_orange.png,down,left,down,61247491151682b679e31db0,2021-09-11_15h42.25.819,arrow_simon_vert,2021.1.2,MacIntel,59.97361161,,,,,,,,,,,,,,,,,,,,,down,1,1.151,8,FALSE,TRUE,1,3,7,2,1,,,,,,,
,,,,,,0,2.036764634,#a3d0fb,"[""0.25"",""0""]",left_blue.png,left,,,,,,,,left,left_blue.png,down_orange.png,down,right,up,61247491151682b679e31db0,2021-09-11_15h42.25.819,arrow_simon_vert,2021.1.2,MacIntel,59.97361161,,,,,,,,,,,,,,,,,,,,,left,1,1.7745,9,TRUE,FALSE,2,0,8,3,1,,,,,,,
,,,,,,0,2.045554034,#f3af84,"[""0"",""0.25""]",down_orange.png,down,,,,,,,,left,left_blue.png,down_orange.png,down,right,up,61247491151682b679e31db0,2021-09-11_15h42.25.819,arrow_simon_vert,2021.1.2,MacIntel,59.97361161,,,,,,,,,,,,,,,,,,,,,down,1,1.7846,10,TRUE,FALSE,2,1,9,3,1,,,,,,,
,,,,,,0,1.996537368,#a3d0fb,"[""0.25"",""0""]",left_blue.png,left,,,,,,,,left,left_blue.png,down_orange.png,down,right,up,61247491151682b679e31db0,2021-09-11_15h42.25.819,arrow_simon_vert,2021.1.2,MacIntel,59.97361161,,,,,,,,,,,,,,,,,,,,,left,1,1.6177,11,TRUE,FALSE,2,2,10,3,1,,,,,,,
,,,,,,0,2.018502891,#f3af84,"[""0"",""-0.25""]",down_orange.png,down,,,,,,,,left,left_blue.png,down_orange.png,down,left,down,61247491151682b679e31db0,2021-09-11_15h42.25.819,arrow_simon_vert,2021.1.2,MacIntel,59.97361161,,,,,,,,,,,,,,,,,,,,,down,1,1.4197,12,FALSE,FALSE,2,3,11,2,1,,,,,,,
,,,,,,0,2.060479357,#a3d0fb,"[""-0.25"",""0""]",left_blue.png,left,,,,,,,,left,left_blue.png,down_orange.png,down,left,down,61247491151682b679e31db0,2021-09-11_15h42.25.819,arrow_simon_vert,2021.1.2,MacIntel,59.97361161,,,,,,,,,,,,,,,,,,,,,left,1,1.4679,13,FALSE,FALSE,3,0,12,2,1,,,,,,,
,,,,,,0,2.356885058,#f3af84,"[""0"",""-0.25""]",up_orange.png,up,,,,,,,,right,right_blue.png,up_orange.png,up,left,down,61247491151682b679e31db0,2021-09-11_15h42.25.819,arrow_simon_vert,2021.1.2,MacIntel,59.97361161,,,,,,,,,,,,,,,,,,,,,right,0,1.6026,14,TRUE,FALSE,3,1,13,0,1,,,,,,,
,,,,,,0,2.281520644,#a3d0fb,"[""-0.25"",""0""]",left_blue.png,left,,,,,,,,left,left_blue.png,down_orange.png,down,left,down,61247491151682b679e31db0,2021-09-11_15h42.25.819,arrow_simon_vert,2021.1.2,MacIntel,59.97361161,,,,,,,,,,,,,,,,,,,,,left,1,1.771,15,TRUE,FALSE,3,2,14,2,1,,,,,,,
,,,,,,0,1.727694403,#f3af84,"[""0"",""-0.25""]",down_orange.png,down,,,,,,,,left,left_blue.png,down_orange.png,down,left,down,61247491151682b679e31db0,2021-09-11_15h42.25.819,arrow_simon_vert,2021.1.2,MacIntel,59.97361161,,,,,,,,,,,,,,,,,,,,,down,1,1.3183,16,FALSE,TRUE,3,3,15,2,1,,,,,,,
,,,,,,0,1.534305012,#a3d0fb,"[""-0.25"",""0""]",right_blue.png,right,,,,,,,,right,right_blue.png,up_orange.png,up,left,down,61247491151682b679e31db0,2021-09-11_15h42.25.819,arrow_simon_vert,2021.1.2,MacIntel,59.97361161,,,,,,,,,,,,,,,,,,,,,right,1,1.4867,17,FALSE,FALSE,4,0,16,0,1,,,,,,,
,,,,,,0,1.605128029,#f3af84,"[""0"",""0.25""]",up_orange.png,up,,,,,,,,right,right_blue.png,up_orange.png,up,right,up,61247491151682b679e31db0,2021-09-11_15h42.25.819,arrow_simon_vert,2021.1.2,MacIntel,59.97361161,,,,,,,,,,,,,,,,,,,,,up,1,1.4734,18,FALSE,FALSE,4,1,17,1,1,,,,,,,
,,,,,,0,2.300476086,#a3d0fb,"[""-0.25"",""0""]",left_blue.png,left,,,,,,,,left,left_blue.png,down_orange.png,down,left,down,61247491151682b679e31db0,2021-09-11_15h42.25.819,arrow_simon_vert,2021.1.2,MacIntel,59.97361161,,,,,,,,,,,,,,,,,,,,,left,1,1.654,19,TRUE,FALSE,4,2,18,2,1,,,,,,,
,,,,,,0,2.053882823,#f3af84,"[""0"",""-0.25""]",down_orange.png,down,,,,,,,,left,left_blue.png,down_orange.png,down,left,down,61247491151682b679e31db0,2021-09-11_15h42.25.819,arrow_simon_vert,2021.1.2,MacIntel,59.97361161,,,,,,,,,,,,,,,,,,,,,down,1,1.4523,20,FALSE,FALSE,4,3,19,2,1,,,,,,,
,,,,,,0,2.238949356,#a3d0fb,"[""0.25"",""0""]",right_blue.png,right,,,,,,,,right,right_blue.png,up_orange.png,up,right,up,61247491151682b679e31db0,2021-09-11_15h42.25.819,arrow_simon_vert,2021.1.2,MacIntel,59.97361161,,,,,,,,,,,,,,,,,,,,,right,1,1.6683,21,TRUE,FALSE,5,0,20,1,1,,,,,,,
,,,,,,0,1.866005252,#f3af84,"[""0"",""0.25""]",up_orange.png,up,,,,,,,,right,right_blue.png,up_orange.png,up,right,up,61247491151682b679e31db0,2021-09-11_15h42.25.819,arrow_simon_vert,2021.1.2,MacIntel,59.97361161,,,,,,,,,,,,,,,,,,,,,up,1,1.5505,22,FALSE,FALSE,5,1,21,1,1,,,,,,,
,,,,,,1,2.174134314,#a3d0fb,"[""0.25"",""0""]",left_blue.png,left,,,,,,,,left,left_blue.png,down_orange.png,down,right,up,61247491151682b679e31db0,2021-09-11_15h42.25.819,arrow_simon_vert,2021.1.2,MacIntel,59.97361161,,,,,,,,,,,,,,,,,,,,,right,0,1.4746,23,FALSE,FALSE,5,2,22,3,1,,,,,,,
,,,,,,0,1.612987273,#f3af84,"[""0"",""0.25""]",down_orange.png,down,,,,,,,,left,left_blue.png,down_orange.png,down,right,up,61247491151682b679e31db0,2021-09-11_15h42.25.819,arrow_simon_vert,2021.1.2,MacIntel,59.97361161,,,,,,,,,,,,,,,,,,,,,down,1,1.5205,24,FALSE,FALSE,5,3,23,3,1,,,,,,,
,,,,,,0,1.596571334,#a3d0fb,"[""-0.25"",""0""]",left_blue.png,left,,,,,,,,left,left_blue.png,down_orange.png,down,left,down,61247491151682b679e31db0,2021-09-11_15h42.25.819,arrow_simon_vert,2021.1.2,MacIntel,59.97361161,,,,,,,,,,,,,,,,,,,,,left,1,1.4496,25,FALSE,FALSE,6,0,24,2,1,,,,,,,
,,,,,,0,1.781697702,#f3af84,"[""0"",""-0.25""]",down_orange.png,down,,,,,,,,left,left_blue.png,down_orange.png,down,left,down,61247491151682b679e31db0,2021-09-11_15h42.25.819,arrow_simon_vert,2021.1.2,MacIntel,59.97361161,,,,,,,,,,,,,,,,,,,,,down,1,1.4684,26,FALSE,FALSE,6,1,25,2,1,,,,,,,
,,,,,,0,2.418655482,#a3d0fb,"[""0.25"",""0""]",left_blue.png,left,,,,,,,,left,left_blue.png,down_orange.png,down,right,up,61247491151682b679e31db0,2021-09-11_15h42.25.819,arrow_simon_vert,2021.1.2,MacIntel,59.97361161,,,,,,,,,,,,,,,,,,,,,left,1,1.6189,27,TRUE,FALSE,6,2,26,3,1,,,,,,,
,,,,,,0,1.757620185,#f3af84,"[""0"",""-0.25""]",up_orange.png,up,,,,,,,,right,right_blue.png,up_orange.png,up,left,down,61247491151682b679e31db0,2021-09-11_15h42.25.819,arrow_simon_vert,2021.1.2,MacIntel,59.97361161,,,,,,,,,,,,,,,,,,,,,up,1,1.5354,28,FALSE,FALSE,6,3,27,0,1,,,,,,,
,,,,,,1,2.263187628,#a3d0fb,"[""-0.25"",""0""]",left_blue.png,left,,,,,,,,left,left_blue.png,down_orange.png,down,left,down,61247491151682b679e31db0,2021-09-11_15h42.25.819,arrow_simon_vert,2021.1.2,MacIntel,59.97361161,,,,,,,,,,,,,,,,,,,,,down,0,1.5865,29,FALSE,FALSE,7,0,28,2,1,,,,,,,
,,,,,,0,1.900375501,#f3af84,"[""0"",""-0.25""]",up_orange.png,up,,,,,,,,right,right_blue.png,up_orange.png,up,left,down,61247491151682b679e31db0,2021-09-11_15h42.25.819,arrow_simon_vert,2021.1.2,MacIntel,59.97361161,,,,,,,,,,,,,,,,,,,,,up,1,1.5349,30,FALSE,FALSE,7,1,29,0,1,,,,,,,
,,,,,,0,1.658404681,#a3d0fb,"[""-0.25"",""0""]",left_blue.png,left,,,,,,,,left,left_blue.png,down_orange.png,down,left,down,61247491151682b679e31db0,2021-09-11_15h42.25.819,arrow_simon_vert,2021.1.2,MacIntel,59.97361161,,,,,,,,,,,,,,,,,,,,,left,1,1.4685,31,FALSE,FALSE,7,2,30,2,1,,,,,,,
,,,,,,0,2.114290898,#f3af84,"[""0"",""0.25""]",down_orange.png,down,,,,,,,,left,left_blue.png,down_orange.png,down,right,up,61247491151682b679e31db0,2021-09-11_15h42.25.819,arrow_simon_vert,2021.1.2,MacIntel,59.97361161,,,,,,,,,,,,,,,,,,,,,down,1,1.471,32,FALSE,FALSE,7,3,31,3,1,,,,,,,
,,,,,,0,2.024928031,#a3d0fb,"[""-0.25"",""0""]",right_blue.png,right,,,,,,,,right,right_blue.png,up_orange.png,up,left,down,61247491151682b679e31db0,2021-09-11_15h42.25.819,arrow_simon_vert,2021.1.2,MacIntel,59.97361161,,,,,,,,,,,,,,,,,,,,,right,1,1.4839,33,FALSE,FALSE,8,0,32,0,1,,,,,,,
,,,,,,0,1.707619162,#f3af84,"[""0"",""0.25""]",up_orange.png,up,,,,,,,,right,right_blue.png,up_orange.png,up,right,up,61247491151682b679e31db0,2021-09-11_15h42.25.819,arrow_simon_vert,2021.1.2,MacIntel,59.97361161,,,,,,,,,,,,,,,,,,,,,up,1,1.5691,34,FALSE,FALSE,8,1,33,1,1,,,,,,,
,,,,,,1,2.324857736,#a3d0fb,"[""0.25"",""0""]",right_blue.png,right,,,,,,,,right,right_blue.png,up_orange.png,up,right,up,61247491151682b679e31db0,2021-09-11_15h42.25.819,arrow_simon_vert,2021.1.2,MacIntel,59.97361161,,,,,,,,,,,,,,,,,,,,,down,0,1.4694,35,FALSE,FALSE,8,2,34,1,1,,,,,,,
,,,,,,0,2.490124433,#f3af84,"[""0"",""0.25""]",down_orange.png,down,,,,,,,,left,left_blue.png,down_orange.png,down,right,up,61247491151682b679e31db0,2021-09-11_15h42.25.819,arrow_simon_vert,2021.1.2,MacIntel,59.97361161,,,,,,,,,,,,,,,,,,,,,down,1,1.4846,36,FALSE,FALSE,8,3,35,3,1,,,,,,,
,,,,,,0,2.27477194,#a3d0fb,"[""0.25"",""0""]",right_blue.png,right,,,,,,,,right,right_blue.png,up_orange.png,up,right,up,61247491151682b679e31db0,2021-09-11_15h42.25.819,arrow_simon_vert,2021.1.2,MacIntel,59.97361161,,,,,,,,,,,,,,,,,,,,,right,1,1.5181,37,FALSE,FALSE,9,0,36,1,1,,,,,,,
,,,,,,0,1.637724493,#f3af84,"[""0"",""0.25""]",down_orange.png,down,,,,,,,,left,left_blue.png,down_orange.png,down,right,up,61247491151682b679e31db0,2021-09-11_15h42.25.819,arrow_simon_vert,2021.1.2,MacIntel,59.97361161,,,,,,,,,,,,,,,,,,,,,down,1,1.3991,38,FALSE,TRUE,9,1,37,3,1,,,,,,,
,,,,,,1,2.255439321,#a3d0fb,"[""-0.25"",""0""]",right_blue.png,right,,,,,,,,right,right_blue.png,up_orange.png,up,left,down,61247491151682b679e31db0,2021-09-11_15h42.25.819,arrow_simon_vert,2021.1.2,MacIntel,59.97361161,,,,,,,,,,,,,,,,,,,,,left,0,1.4893,39,FALSE,FALSE,9,2,38,0,1,,,,,,,
,,,,,,0,2.318312389,#f3af84,"[""0"",""0.25""]",down_orange.png,down,,,,,,,,left,left_blue.png,down_orange.png,down,right,up,61247491151682b679e31db0,2021-09-11_15h42.25.819,arrow_simon_vert,2021.1.2,MacIntel,59.97361161,,,,,,,,,,,,,,,,,,,,,down,1,1.5373,40,FALSE,FALSE,9,3,39,3,1,,,,,,,
,,,,,,0,1.802916803,#a3d0fb,"[""-0.25"",""0""]",left_blue.png,left,,,,,,,,left,left_blue.png,down_orange.png,down,left,down,61247491151682b679e31db0,2021-09-11_15h42.25.819,arrow_simon_vert,2021.1.2,MacIntel,59.97361161,,,,,,,,,,,,,,,,,,,,,left,1,1.4191,41,FALSE,FALSE,10,0,40,2,1,,,,,,,
,,,,,,0,1.586817291,#f3af84,"[""0"",""0.25""]",down_orange.png,down,,,,,,,,left,left_blue.png,down_orange.png,down,right,up,61247491151682b679e31db0,2021-09-11_15h42.25.819,arrow_simon_vert,2021.1.2,MacIntel,59.97361161,,,,,,,,,,,,,,,,,,,,,down,1,1.3513,42,FALSE,TRUE,10,1,41,3,1,,,,,,,
,,,,,,0,1.949492646,#a3d0fb,"[""-0.25"",""0""]",right_blue.png,right,,,,,,,,right,right_blue.png,up_orange.png,up,left,down,61247491151682b679e31db0,2021-09-11_15h42.25.819,arrow_simon_vert,2021.1.2,MacIntel,59.97361161,,,,,,,,,,,,,,,,,,,,,right,1,1.4888,43,FALSE,FALSE,10,2,42,0,1,,,,,,,
,,,,,,0,2.100825583,#f3af84,"[""0"",""-0.25""]",up_orange.png,up,,,,,,,,right,right_blue.png,up_orange.png,up,left,down,61247491151682b679e31db0,2021-09-11_15h42.25.819,arrow_simon_vert,2021.1.2,MacIntel,59.97361161,,,,,,,,,,,,,,,,,,,,,up,1,1.5514,44,FALSE,FALSE,10,3,43,0,1,,,,,,,
,,,,,,0,1.575411009,#a3d0fb,"[""0.25"",""0""]",left_blue.png,left,,,,,,,,left,left_blue.png,down_orange.png,down,right,up,61247491151682b679e31db0,2021-09-11_15h42.25.819,arrow_simon_vert,2021.1.2,MacIntel,59.97361161,,,,,,,,,,,,,,,,,,,,,left,1,1.4669,45,FALSE,FALSE,11,0,44,3,1,,,,,,,
,,,,,,0,1.589938123,#f3af84,"[""0"",""-0.25""]",down_orange.png,down,,,,,,,,left,left_blue.png,down_orange.png,down,left,down,61247491151682b679e31db0,2021-09-11_15h42.25.819,arrow_simon_vert,2021.1.2,MacIntel,59.97361161,,,,,,,,,,,,,,,,,,,,,down,1,1.4349,46,FALSE,FALSE,11,1,45,2,1,,,,,,,
,,,,,,0,1.697436212,#a3d0fb,"[""0.25"",""0""]",right_blue.png,right,,,,,,,,right,right_blue.png,up_orange.png,up,right,up,61247491151682b679e31db0,2021-09-11_15h42.25.819,arrow_simon_vert,2021.1.2,MacIntel,59.97361161,,,,,,,,,,,,,,,,,,,,,right,1,1.3793,47,FALSE,TRUE,11,2,46,1,1,,,,,,,
,,,,,,1,2.481210362,#f3af84,"[""0"",""-0.25""]",up_orange.png,up,,,,,,,,right,right_blue.png,up_orange.png,up,left,down,61247491151682b679e31db0,2021-09-11_15h42.25.819,arrow_simon_vert,2021.1.2,MacIntel,59.97361161,,,,,,,,,,,,,,,,,,,,,down,0,1.5514,48,FALSE,FALSE,11,3,47,0,1,,,,,,,
,,,,,,0,1.877041907,#a3d0fb,"[""-0.25"",""0""]",left_blue.png,left,,,,,,,,left,left_blue.png,down_orange.png,down,left,down,61247491151682b679e31db0,2021-09-11_15h42.25.819,arrow_simon_vert,2021.1.2,MacIntel,59.97361161,,,,,,,,,,,,,,,,,,,,,left,1,1.4196,49,FALSE,FALSE,12,0,48,2,1,,,,,,,
,,,,,,0,1.678560031,#f3af84,"[""0"",""-0.25""]",up_orange.png,up,,,,,,,,right,right_blue.png,up_orange.png,up,left,down,61247491151682b679e31db0,2021-09-11_15h42.25.819,arrow_simon_vert,2021.1.2,MacIntel,59.97361161,,,,,,,,,,,,,,,,,,,,,up,1,1.4682,50,FALSE,FALSE,12,1,49,0,1,,,,,,,
,,,,,,0,2.008552409,#a3d0fb,"[""0.25"",""0""]",right_blue.png,right,,,,,,,,right,right_blue.png,up_orange.png,up,right,up,61247491151682b679e31db0,2021-09-11_15h42.25.819,arrow_simon_vert,2021.1.2,MacIntel,59.97361161,,,,,,,,,,,,,,,,,,,,,right,1,1.3872,51,FALSE,TRUE,12,2,50,1,1,,,,,,,
,,,,,,0,1.848513092,#f3af84,"[""0"",""0.25""]",up_orange.png,up,,,,,,,,right,right_blue.png,up_orange.png,up,right,up,61247491151682b679e31db0,2021-09-11_15h42.25.819,arrow_simon_vert,2021.1.2,MacIntel,59.97361161,,,,,,,,,,,,,,,,,,,,,up,1,1.6534,52,TRUE,FALSE,12,3,51,1,1,,,,,,,
,,,,,,0,2.047694525,#a3d0fb,"[""0.25"",""0""]",left_blue.png,left,,,,,,,,left,left_blue.png,down_orange.png,down,right,up,61247491151682b679e31db0,2021-09-11_15h42.25.819,arrow_simon_vert,2021.1.2,MacIntel,59.97361161,,,,,,,,,,,,,,,,,,,,,left,1,1.4355,53,FALSE,FALSE,13,0,52,3,1,,,,,,,
,,,,,,1,2.231433015,#f3af84,"[""0"",""0.25""]",up_orange.png,up,,,,,,,,right,right_blue.png,up_orange.png,up,right,up,61247491151682b679e31db0,2021-09-11_15h42.25.819,arrow_simon_vert,2021.1.2,MacIntel,59.97361161,,,,,,,,,,,,,,,,,,,,,down,0,1.5345,54,FALSE,FALSE,13,1,53,1,1,,,,,,,
,,,,,,1,2.281547228,#a3d0fb,"[""0.25"",""0""]",left_blue.png,left,,,,,,,,left,left_blue.png,down_orange.png,down,right,up,61247491151682b679e31db0,2021-09-11_15h42.25.819,arrow_simon_vert,2021.1.2,MacIntel,59.97361161,,,,,,,,,,,,,,,,,,,,,down,0,1.5349,55,FALSE,FALSE,13,2,54,3,1,,,,,,,
,,,,,,1,2.402486997,#f3af84,"[""0"",""0.25""]",up_orange.png,up,,,,,,,,right,right_blue.png,up_orange.png,up,right,up,61247491151682b679e31db0,2021-09-11_15h42.25.819,arrow_simon_vert,2021.1.2,MacIntel,59.97361161,,,,,,,,,,,,,,,,,,,,,down,0,1.6378,56,TRUE,FALSE,13,3,55,1,1,,,,,,,
,,,,,,1,1.823785089,#a3d0fb,"[""0.25"",""0""]",right_blue.png,right,,,,,,,,right,right_blue.png,up_orange.png,up,right,up,61247491151682b679e31db0,2021-09-11_15h42.25.819,arrow_simon_vert,2021.1.2,MacIntel,59.97361161,,,,,,,,,,,,,,,,,,,,,right,1,1.3714,57,FALSE,TRUE,14,0,56,1,1,,,,,,,
,,,,,,1,2.179238057,#f3af84,"[""0"",""0.25""]",down_orange.png,down,,,,,,,,left,left_blue.png,down_orange.png,down,right,up,61247491151682b679e31db0,2021-09-11_15h42.25.819,arrow_simon_vert,2021.1.2,MacIntel,59.97361161,,,,,,,,,,,,,,,,,,,,,up,0,1.4675,58,FALSE,FALSE,14,1,57,3,1,,,,,,,
,,,,,,1,2.146547422,#a3d0fb,"[""-0.25"",""0""]",right_blue.png,right,,,,,,,,right,right_blue.png,up_orange.png,up,left,down,61247491151682b679e31db0,2021-09-11_15h42.25.819,arrow_simon_vert,2021.1.2,MacIntel,59.97361161,,,,,,,,,,,,,,,,,,,,,right,1,1.9688,59,TRUE,FALSE,14,2,58,0,1,,,,,,,
,,,,,,0,1.806130429,#f3af84,"[""0"",""0.25""]",up_orange.png,up,,,,,,,,right,right_blue.png,up_orange.png,up,right,up,61247491151682b679e31db0,2021-09-11_15h42.25.819,arrow_simon_vert,2021.1.2,MacIntel,59.97361161,,,,,,,,,,,,,,,,,,,,,up,1,1.4601,60,FALSE,FALSE,14,3,59,1,1,,,,,,,
,,,,,,,,,,,,,,,,,,,,,,,,,61247491151682b679e31db0,2021-09-11_15h42.25.819,arrow_simon_vert,2021.1.2,MacIntel,59.97361161,,,,,,,,,,,,,,,,,,,,,,,,,,,,,,,,space,22.3559,0,0,0,0,1
,,,,,,0,2.229097916,#a3d0fb,"[""0.25"",""0""]",right_blue.png,right,,,,,,,,right,right_blue.png,up_orange.png,up,right,up,61247491151682b679e31db0,2021-09-11_15h42.25.819,arrow_simon_vert,2021.1.2,MacIntel,59.97361161,,,,,,,,,,,,,,,,,,,,,right,1,1.504,1,FALSE,FALSE,0,0,0,1,1,,,,,,,
,,,,,,0,2.012569563,#f3af84,"[""0"",""0.25""]",down_orange.png,down,,,,,,,,left,left_blue.png,down_orange.png,down,right,up,61247491151682b679e31db0,2021-09-11_15h42.25.819,arrow_simon_vert,2021.1.2,MacIntel,59.97361161,,,,,,,,,,,,,,,,,,,,,down,1,1.4235,2,FALSE,FALSE,0,1,1,3,1,,,,,,,
,,,,,,0,1.898946691,#a3d0fb,"[""-0.25"",""0""]",right_blue.png,right,,,,,,,,right,right_blue.png,up_orange.png,up,left,down,61247491151682b679e31db0,2021-09-11_15h42.25.819,arrow_simon_vert,2021.1.2,MacIntel,59.97361161,,,,,,,,,,,,,,,,,,,,,right,1,1.3011,3,FALSE,TRUE,0,2,2,0,1,,,,,,,
,,,,,,0,2.116111814,#f3af84,"[""0"",""-0.25""]",down_orange.png,down,,,,,,,,left,left_blue.png,down_orange.png,down,left,down,61247491151682b679e31db0,2021-09-11_15h42.25.819,arrow_simon_vert,2021.1.2,MacIntel,59.97361161,,,,,,,,,,,,,,,,,,,,,down,1,1.4843,4,FALSE,FALSE,0,3,3,2,1,,,,,,,
,,,,,,0,1.67195378,#a3d0fb,"[""0.25"",""0""]",right_blue.png,right,,,,,,,,right,right_blue.png,up_orange.png,up,right,up,61247491151682b679e31db0,2021-09-11_15h42.25.819,arrow_simon_vert,2021.1.2,MacIntel,59.97361161,,,,,,,,,,,,,,,,,,,,,right,1,1.4076,5,FALSE,FALSE,1,0,4,1,1,,,,,,,
,,,,,,0,1.730306813,#f3af84,"[""0"",""0.25""]",down_orange.png,down,,,,,,,,left,left_blue.png,down_orange.png,down,right,up,61247491151682b679e31db0,2021-09-11_15h42.25.819,arrow_simon_vert,2021.1.2,MacIntel,59.97361161,,,,,,,,,,,,,,,,,,,,,down,1,1.3363,6,FALSE,TRUE,1,1,5,3,1,,,,,,,
,,,,,,1,2.268698431,#a3d0fb,"[""-0.25"",""0""]",left_blue.png,left,,,,,,,,left,left_blue.png,down_orange.png,down,left,down,61247491151682b679e31db0,2021-09-11_15h42.25.819,arrow_simon_vert,2021.1.2,MacIntel,59.97361161,,,,,,,,,,,,,,,,,,,,,down,0,1.5183,7,FALSE,FALSE,1,2,6,2,1,,,,,,,
,,,,,,1,2.286312257,#f3af84,"[""0"",""0.25""]",down_orange.png,down,,,,,,,,left,left_blue.png,down_orange.png,down,right,up,61247491151682b679e31db0,2021-09-11_15h42.25.819,arrow_simon_vert,2021.1.2,MacIntel,59.97361161,,,,,,,,,,,,,,,,,,,,,down,1,1.6194,8,TRUE,FALSE,1,3,7,3,1,,,,,,,
,,,,,,1,1.544180848,#a3d0fb,"[""-0.25"",""0""]",right_blue.png,right,,,,,,,,right,right_blue.png,up_orange.png,up,left,down,61247491151682b679e31db0,2021-09-11_15h42.25.819,arrow_simon_vert,2021.1.2,MacIntel,59.97361161,,,,,,,,,,,,,,,,,,,,,right,1,1.3369,9,FALSE,TRUE,2,0,8,0,1,,,,,,,
,,,,,,0,1.89501892,#f3af84,"[""0"",""0.25""]",up_orange.png,up,,,,,,,,right,right_blue.png,up_orange.png,up,right,up,61247491151682b679e31db0,2021-09-11_15h42.25.819,arrow_simon_vert,2021.1.2,MacIntel,59.97361161,,,,,,,,,,,,,,,,,,,,,up,1,1.4046,10,FALSE,FALSE,2,1,9,1,1,,,,,,,
,,,,,,0,2.20961366,#a3d0fb,"[""-0.25"",""0""]",right_blue.png,right,,,,,,,,right,right_blue.png,up_orange.png,up,left,down,61247491151682b679e31db0,2021-09-11_15h42.25.819,arrow_simon_vert,2021.1.2,MacIntel,59.97361161,,,,,,,,,,,,,,,,,,,,,right,1,1.5208,11,FALSE,FALSE,2,2,10,0,1,,,,,,,
,,,,,,0,2.371558165,#f3af84,"[""0"",""-0.25""]",down_orange.png,down,,,,,,,,left,left_blue.png,down_orange.png,down,left,down,61247491151682b679e31db0,2021-09-11_15h42.25.819,arrow_simon_vert,2021.1.2,MacIntel,59.97361161,,,,,,,,,,,,,,,,,,,,,down,1,1.5017,12,FALSE,FALSE,2,3,11,2,1,,,,,,,
,,,,,,0,1.742784039,#a3d0fb,"[""0.25"",""0""]",right_blue.png,right,,,,,,,,right,right_blue.png,up_orange.png,up,right,up,61247491151682b679e31db0,2021-09-11_15h42.25.819,arrow_simon_vert,2021.1.2,MacIntel,59.97361161,,,,,,,,,,,,,,,,,,,,,right,1,1.385,13,FALSE,TRUE,3,0,12,1,1,,,,,,,
,,,,,,0,1.673322845,#f3af84,"[""0"",""-0.25""]",up_orange.png,up,,,,,,,,right,right_blue.png,up_orange.png,up,left,down,61247491151682b679e31db0,2021-09-11_15h42.25.819,arrow_simon_vert,2021.1.2,MacIntel,59.97361161,,,,,,,,,,,,,,,,,,,,,up,1,1.4851,14,FALSE,FALSE,3,1,13,0,1,,,,,,,
,,,,,,0,2.064353613,#a3d0fb,"[""-0.25"",""0""]",left_blue.png,left,,,,,,,,left,left_blue.png,down_orange.png,down,left,down,61247491151682b679e31db0,2021-09-11_15h42.25.819,arrow_simon_vert,2021.1.2,MacIntel,59.97361161,,,,,,,,,,,,,,,,,,,,,left,1,1.4526,15,FALSE,FALSE,3,2,14,2,1,,,,,,,
,,,,,,1,2.023090106,#f3af84,"[""0"",""-0.25""]",up_orange.png,up,,,,,,,,right,right_blue.png,up_orange.png,up,left,down,61247491151682b679e31db0,2021-09-11_15h42.25.819,arrow_simon_vert,2021.1.2,MacIntel,59.97361161,,,,,,,,,,,,,,,,,,,,,down,0,1.5257,16,FALSE,FALSE,3,3,15,0,1,,,,,,,
,,,,,,1,2.429901928,#a3d0fb,"[""0.25"",""0""]",left_blue.png,left,,,,,,,,left,left_blue.png,down_orange.png,down,right,up,61247491151682b679e31db0,2021-09-11_15h42.25.819,arrow_simon_vert,2021.1.2,MacIntel,59.97361161,,,,,,,,,,,,,,,,,,,,,right,0,1.6518,17,TRUE,FALSE,4,0,16,3,1,,,,,,,
,,,,,,1,1.624356902,#f3af84,"[""0"",""-0.25""]",up_orange.png,up,,,,,,,,right,right_blue.png,up_orange.png,up,left,down,61247491151682b679e31db0,2021-09-11_15h42.25.819,arrow_simon_vert,2021.1.2,MacIntel,59.97361161,,,,,,,,,,,,,,,,,,,,,up,1,1.6685,18,TRUE,FALSE,4,1,17,0,1,,,,,,,
,,,,,,0,1.861043356,#a3d0fb,"[""0.25"",""0""]",right_blue.png,right,,,,,,,,right,right_blue.png,up_orange.png,up,right,up,61247491151682b679e31db0,2021-09-11_15h42.25.819,arrow_simon_vert,2021.1.2,MacIntel,59.97361161,,,,,,,,,,,,,,,,,,,,,right,1,1.4197,19,FALSE,FALSE,4,2,18,1,1,,,,,,,
,,,,,,0,2.227602243,#f3af84,"[""0"",""-0.25""]",down_orange.png,down,,,,,,,,left,left_blue.png,down_orange.png,down,left,down,61247491151682b679e31db0,2021-09-11_15h42.25.819,arrow_simon_vert,2021.1.2,MacIntel,59.97361161,,,,,,,,,,,,,,,,,,,,,down,1,1.4852,20,FALSE,FALSE,4,3,19,2,1,,,,,,,
,,,,,,0,1.503813229,#a3d0fb,"[""0.25"",""0""]",right_blue.png,right,,,,,,,,right,right_blue.png,up_orange.png,up,right,up,61247491151682b679e31db0,2021-09-11_15h42.25.819,arrow_simon_vert,2021.1.2,MacIntel,59.97361161,,,,,,,,,,,,,,,,,,,,,right,1,1.4753,21,FALSE,FALSE,5,0,20,1,1,,,,,,,
,,,,,,0,2.017908022,#f3af84,"[""0"",""-0.25""]",up_orange.png,up,,,,,,,,right,right_blue.png,up_orange.png,up,left,down,61247491151682b679e31db0,2021-09-11_15h42.25.819,arrow_simon_vert,2021.1.2,MacIntel,59.97361161,,,,,,,,,,,,,,,,,,,,,up,1,1.3691,22,FALSE,TRUE,5,1,21,0,1,,,,,,,
,,,,,,0,1.680597245,#a3d0fb,"[""0.25"",""0""]",left_blue.png,left,,,,,,,,left,left_blue.png,down_orange.png,down,right,up,61247491151682b679e31db0,2021-09-11_15h42.25.819,arrow_simon_vert,2021.1.2,MacIntel,59.97361161,,,,,,,,,,,,,,,,,,,,,left,1,1.4694,23,FALSE,FALSE,5,2,22,3,1,,,,,,,
,,,,,,0,1.601675677,#f3af84,"[""0"",""-0.25""]",down_orange.png,down,,,,,,,,left,left_blue.png,down_orange.png,down,left,down,61247491151682b679e31db0,2021-09-11_15h42.25.819,arrow_simon_vert,2021.1.2,MacIntel,59.97361161,,,,,,,,,,,,,,,,,,,,,down,1,1.4886,24,FALSE,FALSE,5,3,23,2,1,,,,,,,
,,,,,,1,2.181358178,#a3d0fb,"[""-0.25"",""0""]",left_blue.png,left,,,,,,,,left,left_blue.png,down_orange.png,down,left,down,61247491151682b679e31db0,2021-09-11_15h42.25.819,arrow_simon_vert,2021.1.2,MacIntel,59.97361161,,,,,,,,,,,,,,,,,,,,,down,0,1.4855,25,FALSE,FALSE,6,0,24,2,1,,,,,,,
,,,,,,1,1.644925694,#f3af84,"[""0"",""0.25""]",up_orange.png,up,,,,,,,,right,right_blue.png,up_orange.png,up,right,up,61247491151682b679e31db0,2021-09-11_15h42.25.819,arrow_simon_vert,2021.1.2,MacIntel,59.97361161,,,,,,,,,,,,,,,,,,,,,up,1,1.7509,26,TRUE,FALSE,6,1,25,1,1,,,,,,,
,,,,,,1,2.43588383,#a3d0fb,"[""-0.25"",""0""]",right_blue.png,right,,,,,,,,right,right_blue.png,up_orange.png,up,left,down,61247491151682b679e31db0,2021-09-11_15h42.25.819,arrow_simon_vert,2021.1.2,MacIntel,59.97361161,,,,,,,,,,,,,,,,,,,,,left,0,1.7195,27,TRUE,FALSE,6,2,26,0,1,,,,,,,
,,,,,,0,1.927282844,#f3af84,"[""0"",""0.25""]",down_orange.png,down,,,,,,,,left,left_blue.png,down_orange.png,down,right,up,61247491151682b679e31db0,2021-09-11_15h42.25.819,arrow_simon_vert,2021.1.2,MacIntel,59.97361161,,,,,,,,,,,,,,,,,,,,,down,1,1.4886,28,FALSE,FALSE,6,3,27,3,1,,,,,,,
,,,,,,0,1.604720295,#a3d0fb,"[""0.25"",""0""]",right_blue.png,right,,,,,,,,right,right_blue.png,up_orange.png,up,right,up,61247491151682b679e31db0,2021-09-11_15h42.25.819,arrow_simon_vert,2021.1.2,MacIntel,59.97361161,,,,,,,,,,,,,,,,,,,,,right,1,1.5012,29,FALSE,FALSE,7,0,28,1,1,,,,,,,
,,,,,,0,2.224555431,#f3af84,"[""0"",""0.25""]",down_orange.png,down,,,,,,,,left,left_blue.png,down_orange.png,down,right,up,61247491151682b679e31db0,2021-09-11_15h42.25.819,arrow_simon_vert,2021.1.2,MacIntel,59.97361161,,,,,,,,,,,,,,,,,,,,,down,1,1.5694,30,FALSE,FALSE,7,1,29,3,1,,,,,,,
,,,,,,1,2.136567935,#a3d0fb,"[""0.25"",""0""]",left_blue.png,left,,,,,,,,left,left_blue.png,down_orange.png,down,right,up,61247491151682b679e31db0,2021-09-11_15h42.25.819,arrow_simon_vert,2021.1.2,MacIntel,59.97361161,,,,,,,,,,,,,,,,,,,,,down,0,1.5048,31,FALSE,FALSE,7,2,30,3,1,,,,,,,
,,,,,,0,2.269609568,#f3af84,"[""0"",""-0.25""]",down_orange.png,down,,,,,,,,left,left_blue.png,down_orange.png,down,left,down,61247491151682b679e31db0,2021-09-11_15h42.25.819,arrow_simon_vert,2021.1.2,MacIntel,59.97361161,,,,,,,,,,,,,,,,,,,,,down,1,1.5544,32,FALSE,FALSE,7,3,31,2,1,,,,,,,
,,,,,,1,2.066757146,#a3d0fb,"[""-0.25"",""0""]",right_blue.png,right,,,,,,,,right,right_blue.png,up_orange.png,up,left,down,61247491151682b679e31db0,2021-09-11_15h42.25.819,arrow_simon_vert,2021.1.2,MacIntel,59.97361161,,,,,,,,,,,,,,,,,,,,,left,0,1.4585,33,FALSE,FALSE,8,0,32,0,1,,,,,,,
,,,,,,1,1.51789332,#f3af84,"[""0"",""-0.25""]",up_orange.png,up,,,,,,,,right,right_blue.png,up_orange.png,up,left,down,61247491151682b679e31db0,2021-09-11_15h42.25.819,arrow_simon_vert,2021.1.2,MacIntel,59.97361161,,,,,,,,,,,,,,,,,,,,,up,1,1.7246,34,TRUE,FALSE,8,1,33,0,1,,,,,,,
,,,,,,0,1.872903288,#a3d0fb,"[""0.25"",""0""]",left_blue.png,left,,,,,,,,left,left_blue.png,down_orange.png,down,right,up,61247491151682b679e31db0,2021-09-11_15h42.25.819,arrow_simon_vert,2021.1.2,MacIntel,59.97361161,,,,,,,,,,,,,,,,,,,,,left,1,1.4518,35,FALSE,FALSE,8,2,34,3,1,,,,,,,
,,,,,,0,1.8272041,#f3af84,"[""0"",""0.25""]",up_orange.png,up,,,,,,,,right,right_blue.png,up_orange.png,up,right,up,61247491151682b679e31db0,2021-09-11_15h42.25.819,arrow_simon_vert,2021.1.2,MacIntel,59.97361161,,,,,,,,,,,,,,,,,,,,,up,1,1.2698,36,FALSE,TRUE,8,3,35,1,1,,,,,,,
,,,,,,0,2.450960096,#a3d0fb,"[""-0.25"",""0""]",right_blue.png,right,,,,,,,,right,right_blue.png,up_orange.png,up,left,down,61247491151682b679e31db0,2021-09-11_15h42.25.819,arrow_simon_vert,2021.1.2,MacIntel,59.97361161,,,,,,,,,,,,,,,,,,,,,right,1,1.5074,37,FALSE,FALSE,9,0,36,0,1,,,,,,,
,,,,,,0,2.343683378,#f3af84,"[""0"",""0.25""]",down_orange.png,down,,,,,,,,left,left_blue.png,down_orange.png,down,right,up,61247491151682b679e31db0,2021-09-11_15h42.25.819,arrow_simon_vert,2021.1.2,MacIntel,59.97361161,,,,,,,,,,,,,,,,,,,,,down,1,1.5696,38,FALSE,FALSE,9,1,37,3,1,,,,,,,
,,,,,,0,1.690456522,#a3d0fb,"[""-0.25"",""0""]",left_blue.png,left,,,,,,,,left,left_blue.png,down_orange.png,down,left,down,61247491151682b679e31db0,2021-09-11_15h42.25.819,arrow_simon_vert,2021.1.2,MacIntel,59.97361161,,,,,,,,,,,,,,,,,,,,,left,1,1.5178,39,FALSE,FALSE,9,2,38,2,1,,,,,,,
,,,,,,0,1.590546173,#f3af84,"[""0"",""0.25""]",up_orange.png,up,,,,,,,,right,right_blue.png,up_orange.png,up,right,up,61247491151682b679e31db0,2021-09-11_15h42.25.819,arrow_simon_vert,2021.1.2,MacIntel,59.97361161,,,,,,,,,,,,,,,,,,,,,up,1,1.4358,40,FALSE,FALSE,9,3,39,1,1,,,,,,,
,,,,,,0,1.967258687,#a3d0fb,"[""0.25"",""0""]",left_blue.png,left,,,,,,,,left,left_blue.png,down_orange.png,down,right,up,61247491151682b679e31db0,2021-09-11_15h42.25.819,arrow_simon_vert,2021.1.2,MacIntel,59.97361161,,,,,,,,,,,,,,,,,,,,,left,1,1.5352,41,FALSE,FALSE,10,0,40,3,1,,,,,,,
,,,,,,0,2.394220886,#f3af84,"[""0"",""-0.25""]",down_orange.png,down,,,,,,,,left,left_blue.png,down_orange.png,down,left,down,61247491151682b679e31db0,2021-09-11_15h42.25.819,arrow_simon_vert,2021.1.2,MacIntel,59.97361161,,,,,,,,,,,,,,,,,,,,,down,1,1.6684,42,TRUE,FALSE,10,1,41,2,1,,,,,,,
,,,,,,0,2.071621836,#a3d0fb,"[""-0.25"",""0""]",left_blue.png,left,,,,,,,,left,left_blue.png,down_orange.png,down,left,down,61247491151682b679e31db0,2021-09-11_15h42.25.819,arrow_simon_vert,2021.1.2,MacIntel,59.97361161,,,,,,,,,,,,,,,,,,,,,left,1,1.5347,43,FALSE,FALSE,10,2,42,2,1,,,,,,,
,,,,,,0,2.15713319,#f3af84,"[""0"",""0.25""]",up_orange.png,up,,,,,,,,right,right_blue.png,up_orange.png,up,right,up,61247491151682b679e31db0,2021-09-11_15h42.25.819,arrow_simon_vert,2021.1.2,MacIntel,59.97361161,,,,,,,,,,,,,,,,,,,,,up,1,1.5346,44,FALSE,FALSE,10,3,43,1,1,,,,,,,
,,,,,,0,1.972325525,#a3d0fb,"[""0.25"",""0""]",right_blue.png,right,,,,,,,,right,right_blue.png,up_orange.png,up,right,up,61247491151682b679e31db0,2021-09-11_15h42.25.819,arrow_simon_vert,2021.1.2,MacIntel,59.97361161,,,,,,,,,,,,,,,,,,,,,right,1,1.55,45,FALSE,FALSE,11,0,44,1,1,,,,,,,
,,,,,,0,2.372549416,#f3af84,"[""0"",""-0.25""]",down_orange.png,down,,,,,,,,left,left_blue.png,down_orange.png,down,left,down,61247491151682b679e31db0,2021-09-11_15h42.25.819,arrow_simon_vert,2021.1.2,MacIntel,59.97361161,,,,,,,,,,,,,,,,,,,,,down,1,1.6878,46,TRUE,FALSE,11,1,45,2,1,,,,,,,
,,,,,,0,1.627321762,#a3d0fb,"[""-0.25"",""0""]",left_blue.png,left,,,,,,,,left,left_blue.png,down_orange.png,down,left,down,61247491151682b679e31db0,2021-09-11_15h42.25.819,arrow_simon_vert,2021.1.2,MacIntel,59.97361161,,,,,,,,,,,,,,,,,,,,,left,1,1.5019,47,FALSE,FALSE,11,2,46,2,1,,,,,,,
,,,,,,0,2.052861273,#f3af84,"[""0"",""0.25""]",up_orange.png,up,,,,,,,,right,right_blue.png,up_orange.png,up,right,up,61247491151682b679e31db0,2021-09-11_15h42.25.819,arrow_simon_vert,2021.1.2,MacIntel,59.97361161,,,,,,,,,,,,,,,,,,,,,up,1,1.4367,48,FALSE,FALSE,11,3,47,1,1,,,,,,,
,,,,,,0,2.120389757,#a3d0fb,"[""-0.25"",""0""]",right_blue.png,right,,,,,,,,right,right_blue.png,up_orange.png,up,left,down,61247491151682b679e31db0,2021-09-11_15h42.25.819,arrow_simon_vert,2021.1.2,MacIntel,59.97361161,,,,,,,,,,,,,,,,,,,,,right,1,1.492,49,FALSE,FALSE,12,0,48,0,1,,,,,,,
,,,,,,0,2.455514569,#f3af84,"[""0"",""0.25""]",down_orange.png,down,,,,,,,,left,left_blue.png,down_orange.png,down,right,up,61247491151682b679e31db0,2021-09-11_15h42.25.819,arrow_simon_vert,2021.1.2,MacIntel,59.97361161,,,,,,,,,,,,,,,,,,,,,down,1,1.6508,50,TRUE,FALSE,12,1,49,3,1,,,,,,,
,,,,,,0,1.924919513,#a3d0fb,"[""-0.25"",""0""]",left_blue.png,left,,,,,,,,left,left_blue.png,down_orange.png,down,left,down,61247491151682b679e31db0,2021-09-11_15h42.25.819,arrow_simon_vert,2021.1.2,MacIntel,59.97361161,,,,,,,,,,,,,,,,,,,,,left,1,1.5188,51,FALSE,FALSE,12,2,50,2,1,,,,,,,
,,,,,,1,2.385070683,#f3af84,"[""0"",""0.25""]",up_orange.png,up,,,,,,,,right,right_blue.png,up_orange.png,up,right,up,61247491151682b679e31db0,2021-09-11_15h42.25.819,arrow_simon_vert,2021.1.2,MacIntel,59.97361161,,,,,,,,,,,,,,,,,,,,,down,0,1.59,52,FALSE,FALSE,12,3,51,1,1,,,,,,,
,,,,,,0,1.51241147,#a3d0fb,"[""-0.25"",""0""]",right_blue.png,right,,,,,,,,right,right_blue.png,up_orange.png,up,left,down,61247491151682b679e31db0,2021-09-11_15h42.25.819,arrow_simon_vert,2021.1.2,MacIntel,59.97361161,,,,,,,,,,,,,,,,,,,,,right,1,1.5035,53,FALSE,FALSE,13,0,52,0,1,,,,,,,
,,,,,,0,1.643702578,#f3af84,"[""0"",""-0.25""]",down_orange.png,down,,,,,,,,left,left_blue.png,down_orange.png,down,left,down,61247491151682b679e31db0,2021-09-11_15h42.25.819,arrow_simon_vert,2021.1.2,MacIntel,59.97361161,,,,,,,,,,,,,,,,,,,,,down,1,1.4866,54,FALSE,FALSE,13,1,53,2,1,,,,,,,
,,,,,,0,1.658426932,#a3d0fb,"[""0.25"",""0""]",left_blue.png,left,,,,,,,,left,left_blue.png,down_orange.png,down,right,up,61247491151682b679e31db0,2021-09-11_15h42.25.819,arrow_simon_vert,2021.1.2,MacIntel,59.97361161,,,,,,,,,,,,,,,,,,,,,left,1,1.4866,55,FALSE,FALSE,13,2,54,3,1,,,,,,,
,,,,,,1,2.291997111,#f3af84,"[""0"",""-0.25""]",up_orange.png,up,,,,,,,,right,right_blue.png,up_orange.png,up,left,down,61247491151682b679e31db0,2021-09-11_15h42.25.819,arrow_simon_vert,2021.1.2,MacIntel,59.97361161,,,,,,,,,,,,,,,,,,,,,down,0,1.5873,56,FALSE,FALSE,13,3,55,0,1,,,,,,,
,,,,,,1,1.860699027,#a3d0fb,"[""0.25"",""0""]",left_blue.png,left,,,,,,,,left,left_blue.png,down_orange.png,down,right,up,61247491151682b679e31db0,2021-09-11_15h42.25.819,arrow_simon_vert,2021.1.2,MacIntel,59.97361161,,,,,,,,,,,,,,,,,,,,,left,1,1.6185,57,TRUE,FALSE,14,0,56,3,1,,,,,,,
,,,,,,1,2.32157495,#f3af84,"[""0"",""0.25""]",down_orange.png,down,,,,,,,,left,left_blue.png,down_orange.png,down,right,up,61247491151682b679e31db0,2021-09-11_15h42.25.819,arrow_simon_vert,2021.1.2,MacIntel,59.97361161,,,,,,,,,,,,,,,,,,,,,up,0,1.5857,58,FALSE,FALSE,14,1,57,3,1,,,,,,,
,,,,,,0,2.061195181,#a3d0fb,"[""0.25"",""0""]",right_blue.png,right,,,,,,,,right,right_blue.png,up_orange.png,up,right,up,61247491151682b679e31db0,2021-09-11_15h42.25.819,arrow_simon_vert,2021.1.2,MacIntel,59.97361161,,,,,,,,,,,,,,,,,,,,,right,1,1.4538,59,FALSE,FALSE,14,2,58,1,1,,,,,,,
,,,,,,1,2.137444453,#f3af84,"[""0"",""-0.25""]",up_orange.png,up,,,,,,,,right,right_blue.png,up_orange.png,up,left,down,61247491151682b679e31db0,2021-09-11_15h42.25.819,arrow_simon_vert,2021.1.2,MacIntel,59.97361161,,,,,,,,,,,,,,,,,,,,,down,0,1.4585,60,FALSE,FALSE,14,3,59,0,1,,,,,,,
,,,,,,,,,,,,,,,,,,,,,,,,,61247491151682b679e31db0,2021-09-11_15h42.25.819,arrow_simon_vert,2021.1.2,MacIntel,59.97361161,,,,,,,,,,,,,,,,,,,,,,,,,,,,,,,,space,18.9395,1,0,1,0,1
,,,,,,1,2.278503505,#a3d0fb,"[""-0.25"",""0""]",right_blue.png,right,,,,,,,,right,right_blue.png,up_orange.png,up,left,down,61247491151682b679e31db0,2021-09-11_15h42.25.819,arrow_simon_vert,2021.1.2,MacIntel,59.97361161,,,,,,,,,,,,,,,,,,,,,left,0,1.5856,1,FALSE,FALSE,0,0,0,0,1,,,,,,,
,,,,,,1,2.393432216,#f3af84,"[""0"",""0.25""]",up_orange.png,up,,,,,,,,right,right_blue.png,up_orange.png,up,right,up,61247491151682b679e31db0,2021-09-11_15h42.25.819,arrow_simon_vert,2021.1.2,MacIntel,59.97361161,,,,,,,,,,,,,,,,,,,,,down,0,1.7198,2,TRUE,FALSE,0,1,1,1,1,,,,,,,
,,,,,,0,1.782969842,#a3d0fb,"[""-0.25"",""0""]",left_blue.png,left,,,,,,,,left,left_blue.png,down_orange.png,down,left,down,61247491151682b679e31db0,2021-09-11_15h42.25.819,arrow_simon_vert,2021.1.2,MacIntel,59.97361161,,,,,,,,,,,,,,,,,,,,,left,1,1.5646,3,FALSE,FALSE,0,2,2,2,1,,,,,,,
,,,,,,0,2.055112698,#f3af84,"[""0"",""0.25""]",up_orange.png,up,,,,,,,,right,right_blue.png,up_orange.png,up,right,up,61247491151682b679e31db0,2021-09-11_15h42.25.819,arrow_simon_vert,2021.1.2,MacIntel,59.97361161,,,,,,,,,,,,,,,,,,,,,up,1,1.6336,4,TRUE,FALSE,0,3,3,1,1,,,,,,,
,,,,,,0,2.459790513,#a3d0fb,"[""-0.25"",""0""]",left_blue.png,left,,,,,,,,left,left_blue.png,down_orange.png,down,left,down,61247491151682b679e31db0,2021-09-11_15h42.25.819,arrow_simon_vert,2021.1.2,MacIntel,59.97361161,,,,,,,,,,,,,,,,,,,,,right,0,1.639,5,TRUE,FALSE,1,0,4,2,1,,,,,,,
,,,,,,1,2.187128417,#f3af84,"[""0"",""-0.25""]",up_orange.png,up,,,,,,,,right,right_blue.png,up_orange.png,up,left,down,61247491151682b679e31db0,2021-09-11_15h42.25.819,arrow_simon_vert,2021.1.2,MacIntel,59.97361161,,,,,,,,,,,,,,,,,,,,,down,0,1.521,6,FALSE,FALSE,1,1,5,0,1,,,,,,,
,,,,,,1,2.480993816,#a3d0fb,"[""0.25"",""0""]",right_blue.png,right,,,,,,,,right,right_blue.png,up_orange.png,up,right,up,61247491151682b679e31db0,2021-09-11_15h42.25.819,arrow_simon_vert,2021.1.2,MacIntel,59.97361161,,,,,,,,,,,,,,,,,,,,,right,1,1.6014,7,TRUE,FALSE,1,2,6,1,1,,,,,,,
,,,,,,1,2.396377388,#f3af84,"[""0"",""0.25""]",down_orange.png,down,,,,,,,,left,left_blue.png,down_orange.png,down,right,up,61247491151682b679e31db0,2021-09-11_15h42.25.819,arrow_simon_vert,2021.1.2,MacIntel,59.97361161,,,,,,,,,,,,,,,,,,,,,down,1,2.0018,8,TRUE,FALSE,1,3,7,3,1,,,,,,,
,,,,,,1,2.358856853,#a3d0fb,"[""-0.25"",""0""]",right_blue.png,right,,,,,,,,right,right_blue.png,up_orange.png,up,left,down,61247491151682b679e31db0,2021-09-11_15h42.25.819,arrow_simon_vert,2021.1.2,MacIntel,59.97361161,,,,,,,,,,,,,,,,,,,,,right,1,1.6354,9,TRUE,FALSE,2,0,8,0,1,,,,,,,
,,,,,,0,2.297179259,#f3af84,"[""0"",""0.25""]",down_orange.png,down,,,,,,,,left,left_blue.png,down_orange.png,down,right,up,61247491151682b679e31db0,2021-09-11_15h42.25.819,arrow_simon_vert,2021.1.2,MacIntel,59.97361161,,,,,,,,,,,,,,,,,,,,,down,1,1.5198,10,FALSE,FALSE,2,1,9,3,1,,,,,,,
,,,,,,0,1.654177939,#a3d0fb,"[""0.25"",""0""]",left_blue.png,left,,,,,,,,left,left_blue.png,down_orange.png,down,right,up,61247491151682b679e31db0,2021-09-11_15h42.25.819,arrow_simon_vert,2021.1.2,MacIntel,59.97361161,,,,,,,,,,,,,,,,,,,,,left,1,1.3177,11,FALSE,TRUE,2,2,10,3,1,,,,,,,
,,,,,,1,2.373185811,#f3af84,"[""0"",""0.25""]",down_orange.png,down,,,,,,,,left,left_blue.png,down_orange.png,down,right,up,61247491151682b679e31db0,2021-09-11_15h42.25.819,arrow_simon_vert,2021.1.2,MacIntel,59.97361161,,,,,,,,,,,,,,,,,,,,,up,0,1.5575,12,FALSE,FALSE,2,3,11,3,1,,,,,,,
,,,,,,0,1.740571053,#a3d0fb,"[""-0.25"",""0""]",right_blue.png,right,,,,,,,,right,right_blue.png,up_orange.png,up,left,down,61247491151682b679e31db0,2021-09-11_15h42.25.819,arrow_simon_vert,2021.1.2,MacIntel,59.97361161,,,,,,,,,,,,,,,,,,,,,right,1,1.4042,13,FALSE,FALSE,3,0,12,0,1,,,,,,,
,,,,,,0,1.812633115,#f3af84,"[""0"",""0.25""]",down_orange.png,down,,,,,,,,left,left_blue.png,down_orange.png,down,right,up,61247491151682b679e31db0,2021-09-11_15h42.25.819,arrow_simon_vert,2021.1.2,MacIntel,59.97361161,,,,,,,,,,,,,,,,,,,,,down,1,1.5062,14,FALSE,FALSE,3,1,13,3,1,,,,,,,
,,,,,,0,2.080883649,#a3d0fb,"[""-0.25"",""0""]",left_blue.png,left,,,,,,,,left,left_blue.png,down_orange.png,down,left,down,61247491151682b679e31db0,2021-09-11_15h42.25.819,arrow_simon_vert,2021.1.2,MacIntel,59.97361161,,,,,,,,,,,,,,,,,,,,,left,1,1.5699,15,FALSE,FALSE,3,2,14,2,1,,,,,,,
,,,,,,1,2.291984316,#f3af84,"[""0"",""-0.25""]",up_orange.png,up,,,,,,,,right,right_blue.png,up_orange.png,up,left,down,61247491151682b679e31db0,2021-09-11_15h42.25.819,arrow_simon_vert,2021.1.2,MacIntel,59.97361161,,,,,,,,,,,,,,,,,,,,,down,0,1.5372,16,FALSE,FALSE,3,3,15,0,1,,,,,,,
,,,,,,0,2.226708886,#a3d0fb,"[""-0.25"",""0""]",right_blue.png,right,,,,,,,,right,right_blue.png,up_orange.png,up,left,down,61247491151682b679e31db0,2021-09-11_15h42.25.819,arrow_simon_vert,2021.1.2,MacIntel,59.97361161,,,,,,,,,,,,,,,,,,,,,right,1,1.5875,17,FALSE,FALSE,4,0,16,0,1,,,,,,,
,,,,,,0,2.000597829,#f3af84,"[""0"",""0.25""]",down_orange.png,down,,,,,,,,left,left_blue.png,down_orange.png,down,right,up,61247491151682b679e31db0,2021-09-11_15h42.25.819,arrow_simon_vert,2021.1.2,MacIntel,59.97361161,,,,,,,,,,,,,,,,,,,,,down,1,1.5184,18,FALSE,FALSE,4,1,17,3,1,,,,,,,
,,,,,,0,1.812773827,#a3d0fb,"[""0.25"",""0""]",right_blue.png,right,,,,,,,,right,right_blue.png,up_orange.png,up,right,up,61247491151682b679e31db0,2021-09-11_15h42.25.819,arrow_simon_vert,2021.1.2,MacIntel,59.97361161,,,,,,,,,,,,,,,,,,,,,right,1,1.4732,19,FALSE,FALSE,4,2,18,1,1,,,,,,,
,,,,,,0,2.069912562,#f3af84,"[""0"",""-0.25""]",down_orange.png,down,,,,,,,,left,left_blue.png,down_orange.png,down,left,down,61247491151682b679e31db0,2021-09-11_15h42.25.819,arrow_simon_vert,2021.1.2,MacIntel,59.97361161,,,,,,,,,,,,,,,,,,,,,down,1,1.5178,20,FALSE,FALSE,4,3,19,2,1,,,,,,,
,,,,,,0,1.509690898,#a3d0fb,"[""0.25"",""0""]",right_blue.png,right,,,,,,,,right,right_blue.png,up_orange.png,up,right,up,61247491151682b679e31db0,2021-09-11_15h42.25.819,arrow_simon_vert,2021.1.2,MacIntel,59.97361161,,,,,,,,,,,,,,,,,,,,,right,1,1.4697,21,FALSE,FALSE,5,0,20,1,1,,,,,,,
,,,,,,0,2.117755668,#f3af84,"[""0"",""0.25""]",down_orange.png,down,,,,,,,,left,left_blue.png,down_orange.png,down,right,up,61247491151682b679e31db0,2021-09-11_15h42.25.819,arrow_simon_vert,2021.1.2,MacIntel,59.97361161,,,,,,,,,,,,,,,,,,,,,down,1,1.5009,22,FALSE,FALSE,5,1,21,3,1,,,,,,,
,,,,,,0,1.879511728,#a3d0fb,"[""0.25"",""0""]",left_blue.png,left,,,,,,,,left,left_blue.png,down_orange.png,down,right,up,61247491151682b679e31db0,2021-09-11_15h42.25.819,arrow_simon_vert,2021.1.2,MacIntel,59.97361161,,,,,,,,,,,,,,,,,,,,,left,1,1.5374,23,FALSE,FALSE,5,2,22,3,1,,,,,,,
,,,,,,0,2.108265102,#f3af84,"[""0"",""-0.25""]",up_orange.png,up,,,,,,,,right,right_blue.png,up_orange.png,up,left,down,61247491151682b679e31db0,2021-09-11_15h42.25.819,arrow_simon_vert,2021.1.2,MacIntel,59.97361161,,,,,,,,,,,,,,,,,,,,,up,1,1.6844,24,TRUE,FALSE,5,3,23,0,1,,,,,,,
,,,,,,0,2.031095276,#a3d0fb,"[""0.25"",""0""]",right_blue.png,right,,,,,,,,right,right_blue.png,up_orange.png,up,right,up,61247491151682b679e31db0,2021-09-11_15h42.25.819,arrow_simon_vert,2021.1.2,MacIntel,59.97361161,,,,,,,,,,,,,,,,,,,,,right,1,1.3859,25,FALSE,TRUE,6,0,24,1,1,,,,,,,
,,,,,,0,1.693368149,#f3af84,"[""0"",""0.25""]",down_orange.png,down,,,,,,,,left,left_blue.png,down_orange.png,down,right,up,61247491151682b679e31db0,2021-09-11_15h42.25.819,arrow_simon_vert,2021.1.2,MacIntel,59.97361161,,,,,,,,,,,,,,,,,,,,,down,1,1.0851,26,FALSE,TRUE,6,1,25,3,1,,,,,,,
,,,,,,0,2.369516443,#a3d0fb,"[""-0.25"",""0""]",left_blue.png,left,,,,,,,,left,left_blue.png,down_orange.png,down,left,down,61247491151682b679e31db0,2021-09-11_15h42.25.819,arrow_simon_vert,2021.1.2,MacIntel,59.97361161,,,,,,,,,,,,,,,,,,,,,left,1,1.6247,27,TRUE,FALSE,6,2,26,2,1,,,,,,,
,,,,,,0,2.258085604,#f3af84,"[""0"",""-0.25""]",down_orange.png,down,,,,,,,,left,left_blue.png,down_orange.png,down,left,down,61247491151682b679e31db0,2021-09-11_15h42.25.819,arrow_simon_vert,2021.1.2,MacIntel,59.97361161,,,,,,,,,,,,,,,,,,,,,down,1,1.537,28,FALSE,FALSE,6,3,27,2,1,,,,,,,
,,,,,,0,2.057751588,#a3d0fb,"[""-0.25"",""0""]",right_blue.png,right,,,,,,,,right,right_blue.png,up_orange.png,up,left,down,61247491151682b679e31db0,2021-09-11_15h42.25.819,arrow_simon_vert,2021.1.2,MacIntel,59.97361161,,,,,,,,,,,,,,,,,,,,,right,1,1.6517,29,TRUE,FALSE,7,0,28,0,1,,,,,,,
,,,,,,0,2.267450842,#f3af84,"[""0"",""-0.25""]",down_orange.png,down,,,,,,,,left,left_blue.png,down_orange.png,down,left,down,61247491151682b679e31db0,2021-09-11_15h42.25.819,arrow_simon_vert,2021.1.2,MacIntel,59.97361161,,,,,,,,,,,,,,,,,,,,,down,1,1.5601,30,FALSE,FALSE,7,1,29,2,1,,,,,,,
,,,,,,1,2.085454595,#a3d0fb,"[""-0.25"",""0""]",right_blue.png,right,,,,,,,,right,right_blue.png,up_orange.png,up,left,down,61247491151682b679e31db0,2021-09-11_15h42.25.819,arrow_simon_vert,2021.1.2,MacIntel,59.97361161,,,,,,,,,,,,,,,,,,,,,left,0,1.519,31,FALSE,FALSE,7,2,30,0,1,,,,,,,
,,,,,,0,2.378146024,#f3af84,"[""0"",""0.25""]",down_orange.png,down,,,,,,,,left,left_blue.png,down_orange.png,down,right,up,61247491151682b679e31db0,2021-09-11_15h42.25.819,arrow_simon_vert,2021.1.2,MacIntel,59.97361161,,,,,,,,,,,,,,,,,,,,,down,1,1.5702,32,FALSE,FALSE,7,3,31,3,1,,,,,,,
,,,,,,0,1.76777828,#a3d0fb,"[""0.25"",""0""]",left_blue.png,left,,,,,,,,left,left_blue.png,down_orange.png,down,right,up,61247491151682b679e31db0,2021-09-11_15h42.25.819,arrow_simon_vert,2021.1.2,MacIntel,59.97361161,,,,,,,,,,,,,,,,,,,,,left,1,1.4703,33,FALSE,FALSE,8,0,32,3,1,,,,,,,
,,,,,,0,1.754959802,#f3af84,"[""0"",""-0.25""]",up_orange.png,up,,,,,,,,right,right_blue.png,up_orange.png,up,left,down,61247491151682b679e31db0,2021-09-11_15h42.25.819,arrow_simon_vert,2021.1.2,MacIntel,59.97361161,,,,,,,,,,,,,,,,,,,,,up,1,1.3904,34,FALSE,TRUE,8,1,33,0,1,,,,,,,
,,,,,,0,1.798549474,#a3d0fb,"[""-0.25"",""0""]",left_blue.png,left,,,,,,,,left,left_blue.png,down_orange.png,down,left,down,61247491151682b679e31db0,2021-09-11_15h42.25.819,arrow_simon_vert,2021.1.2,MacIntel,59.97361161,,,,,,,,,,,,,,,,,,,,,left,1,1.5027,35,FALSE,FALSE,8,2,34,2,1,,,,,,,
,,,,,,0,1.506235132,#f3af84,"[""0"",""-0.25""]",up_orange.png,up,,,,,,,,right,right_blue.png,up_orange.png,up,left,down,61247491151682b679e31db0,2021-09-11_15h42.25.819,arrow_simon_vert,2021.1.2,MacIntel,59.97361161,,,,,,,,,,,,,,,,,,,,,up,1,1.5045,36,FALSE,FALSE,8,3,35,0,1,,,,,,,
,,,,,,0,2.217367855,#a3d0fb,"[""-0.25"",""0""]",left_blue.png,left,,,,,,,,left,left_blue.png,down_orange.png,down,left,down,61247491151682b679e31db0,2021-09-11_15h42.25.819,arrow_simon_vert,2021.1.2,MacIntel,59.97361161,,,,,,,,,,,,,,,,,,,,,left,1,1.5845,37,FALSE,FALSE,9,0,36,2,1,,,,,,,
,,,,,,0,1.7513609,#f3af84,"[""0"",""-0.25""]",up_orange.png,up,,,,,,,,right,right_blue.png,up_orange.png,up,left,down,61247491151682b679e31db0,2021-09-11_15h42.25.819,arrow_simon_vert,2021.1.2,MacIntel,59.97361161,,,,,,,,,,,,,,,,,,,,,up,1,1.4033,38,FALSE,FALSE,9,1,37,0,1,,,,,,,
,,,,,,0,2.410513498,#a3d0fb,"[""-0.25"",""0""]",left_blue.png,left,,,,,,,,left,left_blue.png,down_orange.png,down,left,down,61247491151682b679e31db0,2021-09-11_15h42.25.819,arrow_simon_vert,2021.1.2,MacIntel,59.97361161,,,,,,,,,,,,,,,,,,,,,left,1,1.9523,39,TRUE,FALSE,9,2,38,2,1,,,,,,,
,,,,,,0,1.825596134,#f3af84,"[""0"",""-0.25""]",up_orange.png,up,,,,,,,,right,right_blue.png,up_orange.png,up,left,down,61247491151682b679e31db0,2021-09-11_15h42.25.819,arrow_simon_vert,2021.1.2,MacIntel,59.97361161,,,,,,,,,,,,,,,,,,,,,up,1,1.5201,40,FALSE,FALSE,9,3,39,0,1,,,,,,,
,,,,,,0,2.319872049,#a3d0fb,"[""0.25"",""0""]",left_blue.png,left,,,,,,,,left,left_blue.png,down_orange.png,down,right,up,61247491151682b679e31db0,2021-09-11_15h42.25.819,arrow_simon_vert,2021.1.2,MacIntel,59.97361161,,,,,,,,,,,,,,,,,,,,,left,1,1.5677,41,FALSE,FALSE,10,0,40,3,1,,,,,,,
,,,,,,1,2.432655902,#f3af84,"[""0"",""0.25""]",up_orange.png,up,,,,,,,,right,right_blue.png,up_orange.png,up,right,up,61247491151682b679e31db0,2021-09-11_15h42.25.819,arrow_simon_vert,2021.1.2,MacIntel,59.97361161,,,,,,,,,,,,,,,,,,,,,down,0,1.5857,42,FALSE,FALSE,10,1,41,1,1,,,,,,,
,,,,,,1,2.27516936,#a3d0fb,"[""0.25"",""0""]",left_blue.png,left,,,,,,,,left,left_blue.png,down_orange.png,down,right,up,61247491151682b679e31db0,2021-09-11_15h42.25.819,arrow_simon_vert,2021.1.2,MacIntel,59.97361161,,,,,,,,,,,,,,,,,,,,,left,1,1.6366,43,TRUE,FALSE,10,2,42,3,1,,,,,,,
,,,,,,1,2.218897902,#f3af84,"[""0"",""0.25""]",up_orange.png,up,,,,,,,,right,right_blue.png,up_orange.png,up,right,up,61247491151682b679e31db0,2021-09-11_15h42.25.819,arrow_simon_vert,2021.1.2,MacIntel,59.97361161,,,,,,,,,,,,,,,,,,,,,up,1,1.7032,44,TRUE,FALSE,10,3,43,1,1,,,,,,,
,,,,,,1,2.158340123,#a3d0fb,"[""-0.25"",""0""]",right_blue.png,right,,,,,,,,right,right_blue.png,up_orange.png,up,left,down,61247491151682b679e31db0,2021-09-11_15h42.25.819,arrow_simon_vert,2021.1.2,MacIntel,59.97361161,,,,,,,,,,,,,,,,,,,,,left,0,1.4866,45,FALSE,FALSE,11,0,44,0,1,,,,,,,
,,,,,,0,2.393342254,#f3af84,"[""0"",""-0.25""]",down_orange.png,down,,,,,,,,left,left_blue.png,down_orange.png,down,left,down,61247491151682b679e31db0,2021-09-11_15h42.25.819,arrow_simon_vert,2021.1.2,MacIntel,59.97361161,,,,,,,,,,,,,,,,,,,,,down,1,1.5703,46,FALSE,FALSE,11,1,45,2,1,,,,,,,
,,,,,,0,1.906011203,#a3d0fb,"[""-0.25"",""0""]",left_blue.png,left,,,,,,,,left,left_blue.png,down_orange.png,down,left,down,61247491151682b679e31db0,2021-09-11_15h42.25.819,arrow_simon_vert,2021.1.2,MacIntel,59.97361161,,,,,,,,,,,,,,,,,,,,,left,1,1.3684,47,FALSE,TRUE,11,2,46,2,1,,,,,,,
,,,,,,0,1.991784918,#f3af84,"[""0"",""0.25""]",up_orange.png,up,,,,,,,,right,right_blue.png,up_orange.png,up,right,up,61247491151682b679e31db0,2021-09-11_15h42.25.819,arrow_simon_vert,2021.1.2,MacIntel,59.97361161,,,,,,,,,,,,,,,,,,,,,up,1,1.4014,48,FALSE,FALSE,11,3,47,1,1,,,,,,,
,,,,,,0,2.39372219,#a3d0fb,"[""0.25"",""0""]",right_blue.png,right,,,,,,,,right,right_blue.png,up_orange.png,up,right,up,61247491151682b679e31db0,2021-09-11_15h42.25.819,arrow_simon_vert,2021.1.2,MacIntel,59.97361161,,,,,,,,,,,,,,,,,,,,,right,1,1.6687,49,TRUE,FALSE,12,0,48,1,1,,,,,,,
,,,,,,0,1.964479874,#f3af84,"[""0"",""-0.25""]",up_orange.png,up,,,,,,,,right,right_blue.png,up_orange.png,up,left,down,61247491151682b679e31db0,2021-09-11_15h42.25.819,arrow_simon_vert,2021.1.2,MacIntel,59.97361161,,,,,,,,,,,,,,,,,,,,,up,1,1.5533,50,FALSE,FALSE,12,1,49,0,1,,,,,,,
,,,,,,0,2.005638229,#a3d0fb,"[""0.25"",""0""]",right_blue.png,right,,,,,,,,right,right_blue.png,up_orange.png,up,right,up,61247491151682b679e31db0,2021-09-11_15h42.25.819,arrow_simon_vert,2021.1.2,MacIntel,59.97361161,,,,,,,,,,,,,,,,,,,,,right,1,1.5513,51,FALSE,FALSE,12,2,50,1,1,,,,,,,
,,,,,,0,1.541405794,#f3af84,"[""0"",""0.25""]",up_orange.png,up,,,,,,,,right,right_blue.png,up_orange.png,up,right,up,61247491151682b679e31db0,2021-09-11_15h42.25.819,arrow_simon_vert,2021.1.2,MacIntel,59.97361161,,,,,,,,,,,,,,,,,,,,,up,1,1.5352,52,FALSE,FALSE,12,3,51,1,1,,,,,,,
,,,,,,0,2.193136156,#a3d0fb,"[""0.25"",""0""]",right_blue.png,right,,,,,,,,right,right_blue.png,up_orange.png,up,right,up,61247491151682b679e31db0,2021-09-11_15h42.25.819,arrow_simon_vert,2021.1.2,MacIntel,59.97361161,,,,,,,,,,,,,,,,,,,,,right,1,1.5019,53,FALSE,FALSE,13,0,52,1,1,,,,,,,
,,,,,,0,1.679269162,#f3af84,"[""0"",""0.25""]",down_orange.png,down,,,,,,,,left,left_blue.png,down_orange.png,down,right,up,61247491151682b679e31db0,2021-09-11_15h42.25.819,arrow_simon_vert,2021.1.2,MacIntel,59.97361161,,,,,,,,,,,,,,,,,,,,,down,1,1.5734,54,FALSE,FALSE,13,1,53,3,1,,,,,,,
,,,,,,0,2.366094119,#a3d0fb,"[""-0.25"",""0""]",left_blue.png,left,,,,,,,,left,left_blue.png,down_orange.png,down,left,down,61247491151682b679e31db0,2021-09-11_15h42.25.819,arrow_simon_vert,2021.1.2,MacIntel,59.97361161,,,,,,,,,,,,,,,,,,,,,left,1,1.6543,55,TRUE,FALSE,13,2,54,2,1,,,,,,,
,,,,,,0,2.281386713,#f3af84,"[""0"",""-0.25""]",down_orange.png,down,,,,,,,,left,left_blue.png,down_orange.png,down,left,down,61247491151682b679e31db0,2021-09-11_15h42.25.819,arrow_simon_vert,2021.1.2,MacIntel,59.97361161,,,,,,,,,,,,,,,,,,,,,down,1,2.2899,56,TRUE,FALSE,13,3,55,2,1,,,,,,,
,,,,,,0,1.618978491,#a3d0fb,"[""0.25"",""0""]",left_blue.png,left,,,,,,,,left,left_blue.png,down_orange.png,down,right,up,61247491151682b679e31db0,2021-09-11_15h42.25.819,arrow_simon_vert,2021.1.2,MacIntel,59.97361161,,,,,,,,,,,,,,,,,,,,,left,1,1.0683,57,FALSE,TRUE,14,0,56,3,1,,,,,,,
,,,,,,1,2.254500422,#f3af84,"[""0"",""0.25""]",up_orange.png,up,,,,,,,,right,right_blue.png,up_orange.png,up,right,up,61247491151682b679e31db0,2021-09-11_15h42.25.819,arrow_simon_vert,2021.1.2,MacIntel,59.97361161,,,,,,,,,,,,,,,,,,,,,down,0,1.5196,58,FALSE,FALSE,14,1,57,1,1,,,,,,,
,,,,,,1,2.253994662,#a3d0fb,"[""0.25"",""0""]",right_blue.png,right,,,,,,,,right,right_blue.png,up_orange.png,up,right,up,61247491151682b679e31db0,2021-09-11_15h42.25.819,arrow_simon_vert,2021.1.2,MacIntel,59.97361161,,,,,,,,,,,,,,,,,,,,,left,0,1.5514,59,FALSE,FALSE,14,2,58,1,1,,,,,,,
,,,,,,0,2.41596144,#f3af84,"[""0"",""-0.25""]",down_orange.png,down,,,,,,,,left,left_blue.png,down_orange.png,down,left,down,61247491151682b679e31db0,2021-09-11_15h42.25.819,arrow_simon_vert,2021.1.2,MacIntel,59.97361161,,,,,,,,,,,,,,,,,,,,,down,1,1.5851,60,FALSE,FALSE,14,3,59,2,1,,,,,,,
,,,,,,,,,,,,,,,,,,,,,,,,,61247491151682b679e31db0,2021-09-11_15h42.25.819,arrow_simon_vert,2021.1.2,MacIntel,59.97361161,,,,,,,,,,,,,,,,,,,,,,,,,,,,,,,,space,38.883,2,0,2,0,1
,,,,,,0,2.421295278,#a3d0fb,"[""-0.25"",""0""]",right_blue.png,right,,,,,,,,right,right_blue.png,up_orange.png,up,left,down,61247491151682b679e31db0,2021-09-11_15h42.25.819,arrow_simon_vert,2021.1.2,MacIntel,59.97361161,,,,,,,,,,,,,,,,,,,,,right,1,1.7909,1,TRUE,FALSE,0,0,0,0,1,,,,,,,
,,,,,,1,2.248624272,#f3af84,"[""0"",""0.25""]",up_orange.png,up,,,,,,,,right,right_blue.png,up_orange.png,up,right,up,61247491151682b679e31db0,2021-09-11_15h42.25.819,arrow_simon_vert,2021.1.2,MacIntel,59.97361161,,,,,,,,,,,,,,,,,,,,,down,0,1.518,2,FALSE,FALSE,0,1,1,1,1,,,,,,,
,,,,,,0,1.553648205,#a3d0fb,"[""-0.25"",""0""]",right_blue.png,right,,,,,,,,right,right_blue.png,up_orange.png,up,left,down,61247491151682b679e31db0,2021-09-11_15h42.25.819,arrow_simon_vert,2021.1.2,MacIntel,59.97361161,,,,,,,,,,,,,,,,,,,,,right,1,1.4859,3,FALSE,FALSE,0,2,2,0,1,,,,,,,
,,,,,,0,2.114533251,#f3af84,"[""0"",""0.25""]",down_orange.png,down,,,,,,,,left,left_blue.png,down_orange.png,down,right,up,61247491151682b679e31db0,2021-09-11_15h42.25.819,arrow_simon_vert,2021.1.2,MacIntel,59.97361161,,,,,,,,,,,,,,,,,,,,,down,1,1.437,4,FALSE,FALSE,0,3,3,3,1,,,,,,,
,,,,,,0,1.946573991,#a3d0fb,"[""-0.25"",""0""]",right_blue.png,right,,,,,,,,right,right_blue.png,up_orange.png,up,left,down,61247491151682b679e31db0,2021-09-11_15h42.25.819,arrow_simon_vert,2021.1.2,MacIntel,59.97361161,,,,,,,,,,,,,,,,,,,,,right,1,1.5237,5,FALSE,FALSE,1,0,4,0,1,,,,,,,
,,,,,,0,2.4576391,#f3af84,"[""0"",""-0.25""]",down_orange.png,down,,,,,,,,left,left_blue.png,down_orange.png,down,left,down,61247491151682b679e31db0,2021-09-11_15h42.25.819,arrow_simon_vert,2021.1.2,MacIntel,59.97361161,,,,,,,,,,,,,,,,,,,,,down,1,1.702,6,TRUE,FALSE,1,1,5,2,1,,,,,,,
,,,,,,0,2.015014494,#a3d0fb,"[""0.25"",""0""]",left_blue.png,left,,,,,,,,left,left_blue.png,down_orange.png,down,right,up,61247491151682b679e31db0,2021-09-11_15h42.25.819,arrow_simon_vert,2021.1.2,MacIntel,59.97361161,,,,,,,,,,,,,,,,,,,,,left,1,1.6359,7,TRUE,FALSE,1,2,6,3,1,,,,,,,
,,,,,,0,1.655926702,#f3af84,"[""0"",""0.25""]",down_orange.png,down,,,,,,,,left,left_blue.png,down_orange.png,down,right,up,61247491151682b679e31db0,2021-09-11_15h42.25.819,arrow_simon_vert,2021.1.2,MacIntel,59.97361161,,,,,,,,,,,,,,,,,,,,,down,1,1.4849,8,FALSE,FALSE,1,3,7,3,1,,,,,,,
,,,,,,0,1.737547811,#a3d0fb,"[""-0.25"",""0""]",right_blue.png,right,,,,,,,,right,right_blue.png,up_orange.png,up,left,down,61247491151682b679e31db0,2021-09-11_15h42.25.819,arrow_simon_vert,2021.1.2,MacIntel,59.97361161,,,,,,,,,,,,,,,,,,,,,right,1,1.4341,9,FALSE,FALSE,2,0,8,0,1,,,,,,,
,,,,,,0,1.610359768,#f3af84,"[""0"",""0.25""]",up_orange.png,up,,,,,,,,right,right_blue.png,up_orange.png,up,right,up,61247491151682b679e31db0,2021-09-11_15h42.25.819,arrow_simon_vert,2021.1.2,MacIntel,59.97361161,,,,,,,,,,,,,,,,,,,,,up,1,1.5013,10,FALSE,FALSE,2,1,9,1,1,,,,,,,
,,,,,,0,2.481458443,#a3d0fb,"[""-0.25"",""0""]",right_blue.png,right,,,,,,,,right,right_blue.png,up_orange.png,up,left,down,61247491151682b679e31db0,2021-09-11_15h42.25.819,arrow_simon_vert,2021.1.2,MacIntel,59.97361161,,,,,,,,,,,,,,,,,,,,,right,1,2.0175,11,TRUE,FALSE,2,2,10,0,1,,,,,,,
