instruct_resp_simon.keys,instruct_resp_simon.corr,instruct_resp_simon.rt,trial_resp_simon.keys,trial_resp_simon.corr,trial_resp_simon.rt,kerr,target_onset,target_color,target_pos,target_file,target_resp,trials_train_simon.thisRepN,trials_train_simon.thisTrialN,trials_train_simon.thisN,trials_train_simon.thisIndex,trials_train_simon.ran,odd_target_pos,even_target_pos,odd_target_resp,odd_target_file,even_target_file,even_target_resp,odd_target_side,even_target_side,participant,date,expName,psychopyVersion,OS,frameRate,train_block_note_resp.keys,train_block_note_resp.rt,blocks_train.thisRepN,blocks_train.thisTrialN,blocks_train.thisN,blocks_train.thisIndex,blocks_train.ran,instruct_resp_timing.keys,instruct_resp_timing.corr,instruct_resp_timing.rt,trial_resp_timing.keys,trial_resp_timing.rt,trials_train_timing.thisRepN,trials_train_timing.thisTrialN,trials_train_timing.thisN,trials_train_timing.thisIndex,trials_train_timing.ran,instruct_resp.keys,instruct_resp.corr,instruct_resp.rt,trial_resp.keys,trial_resp.corr,trial_resp.rt,trial_num,too_slow,too_soon,trials.thisRepN,trials.thisTrialN,trials.thisN,trials.thisIndex,trials.ran,block_note_resp.keys,block_note_resp.rt,blocks.thisRepN,blocks.thisTrialN,blocks.thisN,blocks.thisIndex,blocks.ran
space,0,67.5237,left,1,1.6711,0,0.838015202,#a3d0fb,"[""0.25"",""0""]",left_blue.png,left,0,0,0,3,1,,,left,left_blue.png,down_orange.png,down,right,up,612dc934d7875a72579bac3c,2021-09-11_16h52.50.453,arrow_simon_vert,2021.1.2,MacIntel,60.0024001,,,,,,,,,,,,,,,,,,,,,,,,,,,,,,,,,,,,,,
,,,down,1,1.4,0,0.650200406,#f3af84,"[""0"",""0.25""]",down_orange.png,down,0,1,1,3,1,,,left,left_blue.png,down_orange.png,down,right,up,612dc934d7875a72579bac3c,2021-09-11_16h52.50.453,arrow_simon_vert,2021.1.2,MacIntel,60.0024001,,,,,,,,,,,,,,,,,,,,,,,,,,,,,,,,,,,,,,
,,,right,1,0.7999,0,0.3070856,#a3d0fb,"[""0.25"",""0""]",right_blue.png,right,0,2,2,1,1,,,right,right_blue.png,up_orange.png,up,right,up,612dc934d7875a72579bac3c,2021-09-11_16h52.50.453,arrow_simon_vert,2021.1.2,MacIntel,60.0024001,,,,,,,,,,,,,,,,,,,,,,,,,,,,,,,,,,,,,,
,,,down,1,1.3497,0,0.768991136,#f3af84,"[""0"",""-0.25""]",down_orange.png,down,0,3,3,2,1,,,left,left_blue.png,down_orange.png,down,left,down,612dc934d7875a72579bac3c,2021-09-11_16h52.50.453,arrow_simon_vert,2021.1.2,MacIntel,60.0024001,,,,,,,,,,,,,,,,,,,,,,,,,,,,,,,,,,,,,,
,,,left,1,1.2617,0,0.849512774,#a3d0fb,"[""-0.25"",""0""]",left_blue.png,left,1,0,4,2,1,,,left,left_blue.png,down_orange.png,down,left,down,612dc934d7875a72579bac3c,2021-09-11_16h52.50.453,arrow_simon_vert,2021.1.2,MacIntel,60.0024001,,,,,,,,,,,,,,,,,,,,,,,,,,,,,,,,,,,,,,
,,,up,1,1.5339,0,0.98561138,#f3af84,"[""0"",""-0.25""]",up_orange.png,up,1,1,5,0,1,,,right,right_blue.png,up_orange.png,up,left,down,612dc934d7875a72579bac3c,2021-09-11_16h52.50.453,arrow_simon_vert,2021.1.2,MacIntel,60.0024001,,,,,,,,,,,,,,,,,,,,,,,,,,,,,,,,,,,,,,
,,,left,1,1.2666,0,0.748137884,#a3d0fb,"[""0.25"",""0""]",left_blue.png,left,1,2,6,3,1,,,left,left_blue.png,down_orange.png,down,right,up,612dc934d7875a72579bac3c,2021-09-11_16h52.50.453,arrow_simon_vert,2021.1.2,MacIntel,60.0024001,,,,,,,,,,,,,,,,,,,,,,,,,,,,,,,,,,,,,,
,,,down,1,0.8859,0,0.237792566,#f3af84,"[""0"",""-0.25""]",down_orange.png,down,1,3,7,2,1,,,left,left_blue.png,down_orange.png,down,left,down,612dc934d7875a72579bac3c,2021-09-11_16h52.50.453,arrow_simon_vert,2021.1.2,MacIntel,60.0024001,,,,,,,,,,,,,,,,,,,,,,,,,,,,,,,,,,,,,,
,,,right,1,0.5513,0,0.037999401,#a3d0fb,"[""0.25"",""0""]",right_blue.png,right,2,0,8,1,1,,,right,right_blue.png,up_orange.png,up,right,up,612dc934d7875a72579bac3c,2021-09-11_16h52.50.453,arrow_simon_vert,2021.1.2,MacIntel,60.0024001,,,,,,,,,,,,,,,,,,,,,,,,,,,,,,,,,,,,,,
,,,down,1,1.0388,0,0.429337813,#f3af84,"[""0"",""-0.25""]",down_orange.png,down,2,1,9,2,1,,,left,left_blue.png,down_orange.png,down,left,down,612dc934d7875a72579bac3c,2021-09-11_16h52.50.453,arrow_simon_vert,2021.1.2,MacIntel,60.0024001,,,,,,,,,,,,,,,,,,,,,,,,,,,,,,,,,,,,,,
,,,right,1,1.3166,0,0.855400508,#a3d0fb,"[""-0.25"",""0""]",right_blue.png,right,2,2,10,0,1,,,right,right_blue.png,up_orange.png,up,left,down,612dc934d7875a72579bac3c,2021-09-11_16h52.50.453,arrow_simon_vert,2021.1.2,MacIntel,60.0024001,,,,,,,,,,,,,,,,,,,,,,,,,,,,,,,,,,,,,,
,,,down,1,0.7814,0,0.203146749,#f3af84,"[""0"",""0.25""]",down_orange.png,down,2,3,11,3,1,,,left,left_blue.png,down_orange.png,down,right,up,612dc934d7875a72579bac3c,2021-09-11_16h52.50.453,arrow_simon_vert,2021.1.2,MacIntel,60.0024001,,,,,,,,,,,,,,,,,,,,,,,,,,,,,,,,,,,,,,
,,,right,1,1.367,0,0.87052655,#a3d0fb,"[""0.25"",""0""]",right_blue.png,right,3,0,12,1,1,,,right,right_blue.png,up_orange.png,up,right,up,612dc934d7875a72579bac3c,2021-09-11_16h52.50.453,arrow_simon_vert,2021.1.2,MacIntel,60.0024001,,,,,,,,,,,,,,,,,,,,,,,,,,,,,,,,,,,,,,
,,,up,1,1.2514,0,0.831067283,#f3af84,"[""0"",""0.25""]",up_orange.png,up,3,1,13,1,1,,,right,right_blue.png,up_orange.png,up,right,up,612dc934d7875a72579bac3c,2021-09-11_16h52.50.453,arrow_simon_vert,2021.1.2,MacIntel,60.0024001,,,,,,,,,,,,,,,,,,,,,,,,,,,,,,,,,,,,,,
,,,left,1,1.1982,0,0.815491676,#a3d0fb,"[""0.25"",""0""]",left_blue.png,left,3,2,14,3,1,,,left,left_blue.png,down_orange.png,down,right,up,612dc934d7875a72579bac3c,2021-09-11_16h52.50.453,arrow_simon_vert,2021.1.2,MacIntel,60.0024001,,,,,,,,,,,,,,,,,,,,,,,,,,,,,,,,,,,,,,
,,,up,1,1.1329,0,0.69846936,#f3af84,"[""0"",""-0.25""]",up_orange.png,up,3,3,15,0,1,,,right,right_blue.png,up_orange.png,up,left,down,612dc934d7875a72579bac3c,2021-09-11_16h52.50.453,arrow_simon_vert,2021.1.2,MacIntel,60.0024001,,,,,,,,,,,,,,,,,,,,,,,,,,,,,,,,,,,,,,
,,,right,1,0.8984,0,0.37463295,#a3d0fb,"[""-0.25"",""0""]",right_blue.png,right,4,0,16,0,1,,,right,right_blue.png,up_orange.png,up,left,down,612dc934d7875a72579bac3c,2021-09-11_16h52.50.453,arrow_simon_vert,2021.1.2,MacIntel,60.0024001,,,,,,,,,,,,,,,,,,,,,,,,,,,,,,,,,,,,,,
,,,down,1,0.7807,0,0.210363133,#f3af84,"[""0"",""0.25""]",down_orange.png,down,4,1,17,3,1,,,left,left_blue.png,down_orange.png,down,right,up,612dc934d7875a72579bac3c,2021-09-11_16h52.50.453,arrow_simon_vert,2021.1.2,MacIntel,60.0024001,,,,,,,,,,,,,,,,,,,,,,,,,,,,,,,,,,,,,,
,,,left,1,0.9731,0,0.46694005,#a3d0fb,"[""-0.25"",""0""]",left_blue.png,left,4,2,18,2,1,,,left,left_blue.png,down_orange.png,down,left,down,612dc934d7875a72579bac3c,2021-09-11_16h52.50.453,arrow_simon_vert,2021.1.2,MacIntel,60.0024001,,,,,,,,,,,,,,,,,,,,,,,,,,,,,,,,,,,,,,
,,,up,1,1.3204,0,0.934243638,#f3af84,"[""0"",""0.25""]",up_orange.png,up,4,3,19,1,1,,,right,right_blue.png,up_orange.png,up,right,up,612dc934d7875a72579bac3c,2021-09-11_16h52.50.453,arrow_simon_vert,2021.1.2,MacIntel,60.0024001,,,,,,,,,,,,,,,,,,,,,,,,,,,,,,,,,,,,,,
,,,right,1,1.1997,0,0.788238163,#a3d0fb,"[""0.25"",""0""]",right_blue.png,right,5,0,20,1,1,,,right,right_blue.png,up_orange.png,up,right,up,612dc934d7875a72579bac3c,2021-09-11_16h52.50.453,arrow_simon_vert,2021.1.2,MacIntel,60.0024001,,,,,,,,,,,,,,,,,,,,,,,,,,,,,,,,,,,,,,
,,,down,1,0.6329,0,0.129113021,#f3af84,"[""0"",""0.25""]",down_orange.png,down,5,1,21,3,1,,,left,left_blue.png,down_orange.png,down,right,up,612dc934d7875a72579bac3c,2021-09-11_16h52.50.453,arrow_simon_vert,2021.1.2,MacIntel,60.0024001,,,,,,,,,,,,,,,,,,,,,,,,,,,,,,,,,,,,,,
,,,right,1,1.2177,0,0.768035898,#a3d0fb,"[""-0.25"",""0""]",right_blue.png,right,5,2,22,0,1,,,right,right_blue.png,up_orange.png,up,left,down,612dc934d7875a72579bac3c,2021-09-11_16h52.50.453,arrow_simon_vert,2021.1.2,MacIntel,60.0024001,,,,,,,,,,,,,,,,,,,,,,,,,,,,,,,,,,,,,,
,,,up,1,0.751,0,0.265673647,#f3af84,"[""0"",""-0.25""]",up_orange.png,up,5,3,23,0,1,,,right,right_blue.png,up_orange.png,up,left,down,612dc934d7875a72579bac3c,2021-09-11_16h52.50.453,arrow_simon_vert,2021.1.2,MacIntel,60.0024001,,,,,,,,,,,,,,,,,,,,,,,,,,,,,,,,,,,,,,
,,,right,1,1.0175,0,0.616851763,#a3d0fb,"[""0.25"",""0""]",right_blue.png,right,6,0,24,1,1,,,right,right_blue.png,up_orange.png,up,right,up,612dc934d7875a72579bac3c,2021-09-11_16h52.50.453,arrow_simon_vert,2021.1.2,MacIntel,60.0024001,,,,,,,,,,,,,,,,,,,,,,,,,,,,,,,,,,,,,,
,,,right,0,0.8169,1,0.414791073,#f3af84,"[""0"",""-0.25""]",down_orange.png,down,6,1,25,2,1,,,left,left_blue.png,down_orange.png,down,left,down,612dc934d7875a72579bac3c,2021-09-11_16h52.50.453,arrow_simon_vert,2021.1.2,MacIntel,60.0024001,,,,,,,,,,,,,,,,,,,,,,,,,,,,,,,,,,,,,,
,,,left,1,0.7354,0,0.090841208,#a3d0fb,"[""-0.25"",""0""]",left_blue.png,left,6,2,26,2,1,,,left,left_blue.png,down_orange.png,down,left,down,612dc934d7875a72579bac3c,2021-09-11_16h52.50.453,arrow_simon_vert,2021.1.2,MacIntel,60.0024001,,,,,,,,,,,,,,,,,,,,,,,,,,,,,,,,,,,,,,
,,,up,1,1.5002,0,0.978798011,#f3af84,"[""0"",""-0.25""]",up_orange.png,up,6,3,27,0,1,,,right,right_blue.png,up_orange.png,up,left,down,612dc934d7875a72579bac3c,2021-09-11_16h52.50.453,arrow_simon_vert,2021.1.2,MacIntel,60.0024001,,,,,,,,,,,,,,,,,,,,,,,,,,,,,,,,,,,,,,
,,,right,1,1.1659,0,0.712132676,#a3d0fb,"[""-0.25"",""0""]",right_blue.png,right,7,0,28,0,1,,,right,right_blue.png,up_orange.png,up,left,down,612dc934d7875a72579bac3c,2021-09-11_16h52.50.453,arrow_simon_vert,2021.1.2,MacIntel,60.0024001,,,,,,,,,,,,,,,,,,,,,,,,,,,,,,,,,,,,,,
,,,down,1,0.939,0,0.526402261,#f3af84,"[""0"",""0.25""]",down_orange.png,down,7,1,29,3,1,,,left,left_blue.png,down_orange.png,down,right,up,612dc934d7875a72579bac3c,2021-09-11_16h52.50.453,arrow_simon_vert,2021.1.2,MacIntel,60.0024001,,,,,,,,,,,,,,,,,,,,,,,,,,,,,,,,,,,,,,
,,,left,1,1.0503,0,0.577950897,#a3d0fb,"[""-0.25"",""0""]",left_blue.png,left,7,2,30,2,1,,,left,left_blue.png,down_orange.png,down,left,down,612dc934d7875a72579bac3c,2021-09-11_16h52.50.453,arrow_simon_vert,2021.1.2,MacIntel,60.0024001,,,,,,,,,,,,,,,,,,,,,,,,,,,,,,,,,,,,,,
,,,up,1,0.6366,0,0.162061769,#f3af84,"[""0"",""-0.25""]",up_orange.png,up,7,3,31,0,1,,,right,right_blue.png,up_orange.png,up,left,down,612dc934d7875a72579bac3c,2021-09-11_16h52.50.453,arrow_simon_vert,2021.1.2,MacIntel,60.0024001,,,,,,,,,,,,,,,,,,,,,,,,,,,,,,,,,,,,,,
,,,left,1,1.3688,0,0.990264662,#a3d0fb,"[""0.25"",""0""]",left_blue.png,left,8,0,32,3,1,,,left,left_blue.png,down_orange.png,down,right,up,612dc934d7875a72579bac3c,2021-09-11_16h52.50.453,arrow_simon_vert,2021.1.2,MacIntel,60.0024001,,,,,,,,,,,,,,,,,,,,,,,,,,,,,,,,,,,,,,
,,,down,1,1.1864,0,0.741672831,#f3af84,"[""0"",""-0.25""]",down_orange.png,down,8,1,33,2,1,,,left,left_blue.png,down_orange.png,down,left,down,612dc934d7875a72579bac3c,2021-09-11_16h52.50.453,arrow_simon_vert,2021.1.2,MacIntel,60.0024001,,,,,,,,,,,,,,,,,,,,,,,,,,,,,,,,,,,,,,
,,,right,1,0.8351,0,0.415467607,#a3d0fb,"[""0.25"",""0""]",right_blue.png,right,8,2,34,1,1,,,right,right_blue.png,up_orange.png,up,right,up,612dc934d7875a72579bac3c,2021-09-11_16h52.50.453,arrow_simon_vert,2021.1.2,MacIntel,60.0024001,,,,,,,,,,,,,,,,,,,,,,,,,,,,,,,,,,,,,,
,,,up,1,0.6319,0,0.187752735,#f3af84,"[""0"",""0.25""]",up_orange.png,up,8,3,35,1,1,,,right,right_blue.png,up_orange.png,up,right,up,612dc934d7875a72579bac3c,2021-09-11_16h52.50.453,arrow_simon_vert,2021.1.2,MacIntel,60.0024001,,,,,,,,,,,,,,,,,,,,,,,,,,,,,,,,,,,,,,
,,,right,1,0.9504,0,0.532390507,#a3d0fb,"[""0.25"",""0""]",right_blue.png,right,9,0,36,1,1,,,right,right_blue.png,up_orange.png,up,right,up,612dc934d7875a72579bac3c,2021-09-11_16h52.50.453,arrow_simon_vert,2021.1.2,MacIntel,60.0024001,,,,,,,,,,,,,,,,,,,,,,,,,,,,,,,,,,,,,,
,,,up,1,1.2964,0,0.893007198,#f3af84,"[""0"",""0.25""]",up_orange.png,up,9,1,37,1,1,,,right,right_blue.png,up_orange.png,up,right,up,612dc934d7875a72579bac3c,2021-09-11_16h52.50.453,arrow_simon_vert,2021.1.2,MacIntel,60.0024001,,,,,,,,,,,,,,,,,,,,,,,,,,,,,,,,,,,,,,
,,,right,1,0.6506,0,0.18422628,#a3d0fb,"[""-0.25"",""0""]",right_blue.png,right,9,2,38,0,1,,,right,right_blue.png,up_orange.png,up,left,down,612dc934d7875a72579bac3c,2021-09-11_16h52.50.453,arrow_simon_vert,2021.1.2,MacIntel,60.0024001,,,,,,,,,,,,,,,,,,,,,,,,,,,,,,,,,,,,,,
,,,up,0,1.0501,1,0.616070742,#f3af84,"[""0"",""0.25""]",down_orange.png,down,9,3,39,3,1,,,left,left_blue.png,down_orange.png,down,right,up,612dc934d7875a72579bac3c,2021-09-11_16h52.50.453,arrow_simon_vert,2021.1.2,MacIntel,60.0024001,,,,,,,,,,,,,,,,,,,,,,,,,,,,,,,,,,,,,,
,,,right,1,0.9692,0,0.49460264,#a3d0fb,"[""-0.25"",""0""]",right_blue.png,right,10,0,40,0,1,,,right,right_blue.png,up_orange.png,up,left,down,612dc934d7875a72579bac3c,2021-09-11_16h52.50.453,arrow_simon_vert,2021.1.2,MacIntel,60.0024001,,,,,,,,,,,,,,,,,,,,,,,,,,,,,,,,,,,,,,
,,,up,1,1.268,0,0.779662882,#f3af84,"[""0"",""-0.25""]",up_orange.png,up,10,1,41,0,1,,,right,right_blue.png,up_orange.png,up,left,down,612dc934d7875a72579bac3c,2021-09-11_16h52.50.453,arrow_simon_vert,2021.1.2,MacIntel,60.0024001,,,,,,,,,,,,,,,,,,,,,,,,,,,,,,,,,,,,,,
,,,left,1,0.6344,0,0.127187101,#a3d0fb,"[""0.25"",""0""]",left_blue.png,left,10,2,42,3,1,,,left,left_blue.png,down_orange.png,down,right,up,612dc934d7875a72579bac3c,2021-09-11_16h52.50.453,arrow_simon_vert,2021.1.2,MacIntel,60.0024001,,,,,,,,,,,,,,,,,,,,,,,,,,,,,,,,,,,,,,
,,,up,1,1.0655,0,0.634742728,#f3af84,"[""0"",""0.25""]",up_orange.png,up,10,3,43,1,1,,,right,right_blue.png,up_orange.png,up,right,up,612dc934d7875a72579bac3c,2021-09-11_16h52.50.453,arrow_simon_vert,2021.1.2,MacIntel,60.0024001,,,,,,,,,,,,,,,,,,,,,,,,,,,,,,,,,,,,,,
,,,right,1,1.0206,0,0.603816018,#a3d0fb,"[""0.25"",""0""]",right_blue.png,right,11,0,44,1,1,,,right,right_blue.png,up_orange.png,up,right,up,612dc934d7875a72579bac3c,2021-09-11_16h52.50.453,arrow_simon_vert,2021.1.2,MacIntel,60.0024001,,,,,,,,,,,,,,,,,,,,,,,,,,,,,,,,,,,,,,
,,,down,1,0.9043,0,0.469324218,#f3af84,"[""0"",""-0.25""]",down_orange.png,down,11,1,45,2,1,,,left,left_blue.png,down_orange.png,down,left,down,612dc934d7875a72579bac3c,2021-09-11_16h52.50.453,arrow_simon_vert,2021.1.2,MacIntel,60.0024001,,,,,,,,,,,,,,,,,,,,,,,,,,,,,,,,,,,,,,
,,,left,1,0.9505,0,0.542576228,#a3d0fb,"[""-0.25"",""0""]",left_blue.png,left,11,2,46,2,1,,,left,left_blue.png,down_orange.png,down,left,down,612dc934d7875a72579bac3c,2021-09-11_16h52.50.453,arrow_simon_vert,2021.1.2,MacIntel,60.0024001,,,,,,,,,,,,,,,,,,,,,,,,,,,,,,,,,,,,,,
,,,down,1,1.0335,0,0.588931723,#f3af84,"[""0"",""-0.25""]",down_orange.png,down,11,3,47,2,1,,,left,left_blue.png,down_orange.png,down,left,down,612dc934d7875a72579bac3c,2021-09-11_16h52.50.453,arrow_simon_vert,2021.1.2,MacIntel,60.0024001,,,,,,,,,,,,,,,,,,,,,,,,,,,,,,,,,,,,,,
,,,right,1,1.3347,0,0.912101867,#a3d0fb,"[""-0.25"",""0""]",right_blue.png,right,12,0,48,0,1,,,right,right_blue.png,up_orange.png,up,left,down,612dc934d7875a72579bac3c,2021-09-11_16h52.50.453,arrow_simon_vert,2021.1.2,MacIntel,60.0024001,,,,,,,,,,,,,,,,,,,,,,,,,,,,,,,,,,,,,,
,,,up,1,1.1669,0,0.826359369,#f3af84,"[""0"",""0.25""]",up_orange.png,up,12,1,49,1,1,,,right,right_blue.png,up_orange.png,up,right,up,612dc934d7875a72579bac3c,2021-09-11_16h52.50.453,arrow_simon_vert,2021.1.2,MacIntel,60.0024001,,,,,,,,,,,,,,,,,,,,,,,,,,,,,,,,,,,,,,
,,,left,1,0.8554,0,0.393961308,#a3d0fb,"[""0.25"",""0""]",left_blue.png,left,12,2,50,3,1,,,left,left_blue.png,down_orange.png,down,right,up,612dc934d7875a72579bac3c,2021-09-11_16h52.50.453,arrow_simon_vert,2021.1.2,MacIntel,60.0024001,,,,,,,,,,,,,,,,,,,,,,,,,,,,,,,,,,,,,,
,,,up,1,1.0569,0,0.540200345,#f3af84,"[""0"",""-0.25""]",up_orange.png,up,12,3,51,0,1,,,right,right_blue.png,up_orange.png,up,left,down,612dc934d7875a72579bac3c,2021-09-11_16h52.50.453,arrow_simon_vert,2021.1.2,MacIntel,60.0024001,,,,,,,,,,,,,,,,,,,,,,,,,,,,,,,,,,,,,,
,,,left,1,0.4841,0,0.010503281,#a3d0fb,"[""0.25"",""0""]",left_blue.png,left,13,0,52,3,1,,,left,left_blue.png,down_orange.png,down,right,up,612dc934d7875a72579bac3c,2021-09-11_16h52.50.453,arrow_simon_vert,2021.1.2,MacIntel,60.0024001,,,,,,,,,,,,,,,,,,,,,,,,,,,,,,,,,,,,,,
,,,down,1,0.7669,0,0.285319195,#f3af84,"[""0"",""-0.25""]",down_orange.png,down,13,1,53,2,1,,,left,left_blue.png,down_orange.png,down,left,down,612dc934d7875a72579bac3c,2021-09-11_16h52.50.453,arrow_simon_vert,2021.1.2,MacIntel,60.0024001,,,,,,,,,,,,,,,,,,,,,,,,,,,,,,,,,,,,,,
,,,left,1,0.8652,0,0.47991374,#a3d0fb,"[""-0.25"",""0""]",left_blue.png,left,13,2,54,2,1,,,left,left_blue.png,down_orange.png,down,left,down,612dc934d7875a72579bac3c,2021-09-11_16h52.50.453,arrow_simon_vert,2021.1.2,MacIntel,60.0024001,,,,,,,,,,,,,,,,,,,,,,,,,,,,,,,,,,,,,,
,,,down,1,1.0506,0,0.556043996,#f3af84,"[""0"",""0.25""]",down_orange.png,down,13,3,55,3,1,,,left,left_blue.png,down_orange.png,down,right,up,612dc934d7875a72579bac3c,2021-09-11_16h52.50.453,arrow_simon_vert,2021.1.2,MacIntel,60.0024001,,,,,,,,,,,,,,,,,,,,,,,,,,,,,,,,,,,,,,
,,,right,1,1.0174,0,0.561930879,#a3d0fb,"[""-0.25"",""0""]",right_blue.png,right,14,0,56,0,1,,,right,right_blue.png,up_orange.png,up,left,down,612dc934d7875a72579bac3c,2021-09-11_16h52.50.453,arrow_simon_vert,2021.1.2,MacIntel,60.0024001,,,,,,,,,,,,,,,,,,,,,,,,,,,,,,,,,,,,,,
,,,up,1,1.1153,0,0.790789688,#f3af84,"[""0"",""0.25""]",up_orange.png,up,14,1,57,1,1,,,right,right_blue.png,up_orange.png,up,right,up,612dc934d7875a72579bac3c,2021-09-11_16h52.50.453,arrow_simon_vert,2021.1.2,MacIntel,60.0024001,,,,,,,,,,,,,,,,,,,,,,,,,,,,,,,,,,,,,,
,,,left,1,1.0679,0,0.613876682,#a3d0fb,"[""0.25"",""0""]",left_blue.png,left,14,2,58,3,1,,,left,left_blue.png,down_orange.png,down,right,up,612dc934d7875a72579bac3c,2021-09-11_16h52.50.453,arrow_simon_vert,2021.1.2,MacIntel,60.0024001,,,,,,,,,,,,,,,,,,,,,,,,,,,,,,,,,,,,,,
,,,down,1,0.7168,0,0.314989727,#f3af84,"[""0"",""-0.25""]",down_orange.png,down,14,3,59,2,1,,,left,left_blue.png,down_orange.png,down,left,down,612dc934d7875a72579bac3c,2021-09-11_16h52.50.453,arrow_simon_vert,2021.1.2,MacIntel,60.0024001,,,,,,,,,,,,,,,,,,,,,,,,,,,,,,,,,,,,,,
,,,,,,,,,,,,,,,,,,,,,,,,,612dc934d7875a72579bac3c,2021-09-11_16h52.50.453,arrow_simon_vert,2021.1.2,MacIntel,60.0024001,space,9.0075,0,0,0,0,1,,,,,,,,,,,,,,,,,,,,,,,,,,,,,,,
,,,left,1,0.9132,0,0.456110053,#a3d0fb,"[""-0.25"",""0""]",left_blue.png,left,0,0,0,2,1,,,left,left_blue.png,down_orange.png,down,left,down,612dc934d7875a72579bac3c,2021-09-11_16h52.50.453,arrow_simon_vert,2021.1.2,MacIntel,60.0024001,,,,,,,,,,,,,,,,,,,,,,,,,,,,,,,,,,,,,,
,,,down,0,0.5324,1,0.038196729,#f3af84,"[""0"",""-0.25""]",up_orange.png,up,0,1,1,0,1,,,right,right_blue.png,up_orange.png,up,left,down,612dc934d7875a72579bac3c,2021-09-11_16h52.50.453,arrow_simon_vert,2021.1.2,MacIntel,60.0024001,,,,,,,,,,,,,,,,,,,,,,,,,,,,,,,,,,,,,,
,,,right,1,0.5814,0,0.076189926,#a3d0fb,"[""-0.25"",""0""]",right_blue.png,right,0,2,2,0,1,,,right,right_blue.png,up_orange.png,up,left,down,612dc934d7875a72579bac3c,2021-09-11_16h52.50.453,arrow_simon_vert,2021.1.2,MacIntel,60.0024001,,,,,,,,,,,,,,,,,,,,,,,,,,,,,,,,,,,,,,
,,,down,1,1.415,0,0.873562729,#f3af84,"[""0"",""-0.25""]",down_orange.png,down,0,3,3,2,1,,,left,left_blue.png,down_orange.png,down,left,down,612dc934d7875a72579bac3c,2021-09-11_16h52.50.453,arrow_simon_vert,2021.1.2,MacIntel,60.0024001,,,,,,,,,,,,,,,,,,,,,,,,,,,,,,,,,,,,,,
,,,left,1,0.5982,0,0.10066922,#a3d0fb,"[""0.25"",""0""]",left_blue.png,left,1,0,4,3,1,,,left,left_blue.png,down_orange.png,down,right,up,612dc934d7875a72579bac3c,2021-09-11_16h52.50.453,arrow_simon_vert,2021.1.2,MacIntel,60.0024001,,,,,,,,,,,,,,,,,,,,,,,,,,,,,,,,,,,,,,
,,,down,1,0.7991,0,0.244363786,#f3af84,"[""0"",""-0.25""]",down_orange.png,down,1,1,5,2,1,,,left,left_blue.png,down_orange.png,down,left,down,612dc934d7875a72579bac3c,2021-09-11_16h52.50.453,arrow_simon_vert,2021.1.2,MacIntel,60.0024001,,,,,,,,,,,,,,,,,,,,,,,,,,,,,,,,,,,,,,
,,,right,1,1.3139,0,0.895625511,#a3d0fb,"[""0.25"",""0""]",right_blue.png,right,1,2,6,1,1,,,right,right_blue.png,up_orange.png,up,right,up,612dc934d7875a72579bac3c,2021-09-11_16h52.50.453,arrow_simon_vert,2021.1.2,MacIntel,60.0024001,,,,,,,,,,,,,,,,,,,,,,,,,,,,,,,,,,,,,,
,,,down,1,1.3333,0,0.821706239,#f3af84,"[""0"",""-0.25""]",down_orange.png,down,1,3,7,2,1,,,left,left_blue.png,down_orange.png,down,left,down,612dc934d7875a72579bac3c,2021-09-11_16h52.50.453,arrow_simon_vert,2021.1.2,MacIntel,60.0024001,,,,,,,,,,,,,,,,,,,,,,,,,,,,,,,,,,,,,,
,,,left,1,1.1141,0,0.661418045,#a3d0fb,"[""0.25"",""0""]",left_blue.png,left,2,0,8,3,1,,,left,left_blue.png,down_orange.png,down,right,up,612dc934d7875a72579bac3c,2021-09-11_16h52.50.453,arrow_simon_vert,2021.1.2,MacIntel,60.0024001,,,,,,,,,,,,,,,,,,,,,,,,,,,,,,,,,,,,,,
,,,down,1,1.2675,0,0.859944477,#f3af84,"[""0"",""-0.25""]",down_orange.png,down,2,1,9,2,1,,,left,left_blue.png,down_orange.png,down,left,down,612dc934d7875a72579bac3c,2021-09-11_16h52.50.453,arrow_simon_vert,2021.1.2,MacIntel,60.0024001,,,,,,,,,,,,,,,,,,,,,,,,,,,,,,,,,,,,,,
,,,right,1,1.1353,0,0.742151119,#a3d0fb,"[""0.25"",""0""]",right_blue.png,right,2,2,10,1,1,,,right,right_blue.png,up_orange.png,up,right,up,612dc934d7875a72579bac3c,2021-09-11_16h52.50.453,arrow_simon_vert,2021.1.2,MacIntel,60.0024001,,,,,,,,,,,,,,,,,,,,,,,,,,,,,,,,,,,,,,
,,,down,1,1.33,0,0.938055645,#f3af84,"[""0"",""-0.25""]",down_orange.png,down,2,3,11,2,1,,,left,left_blue.png,down_orange.png,down,left,down,612dc934d7875a72579bac3c,2021-09-11_16h52.50.453,arrow_simon_vert,2021.1.2,MacIntel,60.0024001,,,,,,,,,,,,,,,,,,,,,,,,,,,,,,,,,,,,,,
,,,right,1,0.918,0,0.539918029,#a3d0fb,"[""0.25"",""0""]",right_blue.png,right,3,0,12,1,1,,,right,right_blue.png,up_orange.png,up,right,up,612dc934d7875a72579bac3c,2021-09-11_16h52.50.453,arrow_simon_vert,2021.1.2,MacIntel,60.0024001,,,,,,,,,,,,,,,,,,,,,,,,,,,,,,,,,,,,,,
,,,down,1,1.4494,0,0.894435637,#f3af84,"[""0"",""0.25""]",down_orange.png,down,3,1,13,3,1,,,left,left_blue.png,down_orange.png,down,right,up,612dc934d7875a72579bac3c,2021-09-11_16h52.50.453,arrow_simon_vert,2021.1.2,MacIntel,60.0024001,,,,,,,,,,,,,,,,,,,,,,,,,,,,,,,,,,,,,,
,,,right,1,0.7535,0,0.31112563,#a3d0fb,"[""-0.25"",""0""]",right_blue.png,right,3,2,14,0,1,,,right,right_blue.png,up_orange.png,up,left,down,612dc934d7875a72579bac3c,2021-09-11_16h52.50.453,arrow_simon_vert,2021.1.2,MacIntel,60.0024001,,,,,,,,,,,,,,,,,,,,,,,,,,,,,,,,,,,,,,
,,,up,1,0.9836,0,0.56609481,#f3af84,"[""0"",""0.25""]",up_orange.png,up,3,3,15,1,1,,,right,right_blue.png,up_orange.png,up,right,up,612dc934d7875a72579bac3c,2021-09-11_16h52.50.453,arrow_simon_vert,2021.1.2,MacIntel,60.0024001,,,,,,,,,,,,,,,,,,,,,,,,,,,,,,,,,,,,,,
,,,left,1,1.2678,0,0.787996895,#a3d0fb,"[""-0.25"",""0""]",left_blue.png,left,4,0,16,2,1,,,left,left_blue.png,down_orange.png,down,left,down,612dc934d7875a72579bac3c,2021-09-11_16h52.50.453,arrow_simon_vert,2021.1.2,MacIntel,60.0024001,,,,,,,,,,,,,,,,,,,,,,,,,,,,,,,,,,,,,,
,,,up,1,0.8637,0,0.449740567,#f3af84,"[""0"",""0.25""]",up_orange.png,up,4,1,17,1,1,,,right,right_blue.png,up_orange.png,up,right,up,612dc934d7875a72579bac3c,2021-09-11_16h52.50.453,arrow_simon_vert,2021.1.2,MacIntel,60.0024001,,,,,,,,,,,,,,,,,,,,,,,,,,,,,,,,,,,,,,
,,,left,1,0.7649,0,0.279329031,#a3d0fb,"[""0.25"",""0""]",left_blue.png,left,4,2,18,3,1,,,left,left_blue.png,down_orange.png,down,right,up,612dc934d7875a72579bac3c,2021-09-11_16h52.50.453,arrow_simon_vert,2021.1.2,MacIntel,60.0024001,,,,,,,,,,,,,,,,,,,,,,,,,,,,,,,,,,,,,,
,,,down,1,0.5522,0,0.056438723,#f3af84,"[""0"",""-0.25""]",down_orange.png,down,4,3,19,2,1,,,left,left_blue.png,down_orange.png,down,left,down,612dc934d7875a72579bac3c,2021-09-11_16h52.50.453,arrow_simon_vert,2021.1.2,MacIntel,60.0024001,,,,,,,,,,,,,,,,,,,,,,,,,,,,,,,,,,,,,,
,,,left,1,0.6155,0,0.175923563,#a3d0fb,"[""0.25"",""0""]",left_blue.png,left,5,0,20,3,1,,,left,left_blue.png,down_orange.png,down,right,up,612dc934d7875a72579bac3c,2021-09-11_16h52.50.453,arrow_simon_vert,2021.1.2,MacIntel,60.0024001,,,,,,,,,,,,,,,,,,,,,,,,,,,,,,,,,,,,,,
,,,up,1,0.5326,0,0.138195095,#f3af84,"[""0"",""0.25""]",up_orange.png,up,5,1,21,1,1,,,right,right_blue.png,up_orange.png,up,right,up,612dc934d7875a72579bac3c,2021-09-11_16h52.50.453,arrow_simon_vert,2021.1.2,MacIntel,60.0024001,,,,,,,,,,,,,,,,,,,,,,,,,,,,,,,,,,,,,,
,,,right,1,0.5669,0,0.121164306,#a3d0fb,"[""-0.25"",""0""]",right_blue.png,right,5,2,22,0,1,,,right,right_blue.png,up_orange.png,up,left,down,612dc934d7875a72579bac3c,2021-09-11_16h52.50.453,arrow_simon_vert,2021.1.2,MacIntel,60.0024001,,,,,,,,,,,,,,,,,,,,,,,,,,,,,,,,,,,,,,
,,,up,1,1.2499,0,0.741964705,#f3af84,"[""0"",""-0.25""]",up_orange.png,up,5,3,23,0,1,,,right,right_blue.png,up_orange.png,up,left,down,612dc934d7875a72579bac3c,2021-09-11_16h52.50.453,arrow_simon_vert,2021.1.2,MacIntel,60.0024001,,,,,,,,,,,,,,,,,,,,,,,,,,,,,,,,,,,,,,
,,,right,1,1.228,0,0.730222758,#a3d0fb,"[""-0.25"",""0""]",right_blue.png,right,6,0,24,0,1,,,right,right_blue.png,up_orange.png,up,left,down,612dc934d7875a72579bac3c,2021-09-11_16h52.50.453,arrow_simon_vert,2021.1.2,MacIntel,60.0024001,,,,,,,,,,,,,,,,,,,,,,,,,,,,,,,,,,,,,,
,,,down,1,1.2317,0,0.710252876,#f3af84,"[""0"",""0.25""]",down_orange.png,down,6,1,25,3,1,,,left,left_blue.png,down_orange.png,down,right,up,612dc934d7875a72579bac3c,2021-09-11_16h52.50.453,arrow_simon_vert,2021.1.2,MacIntel,60.0024001,,,,,,,,,,,,,,,,,,,,,,,,,,,,,,,,,,,,,,
,,,left,1,1.1168,0,0.596950095,#a3d0fb,"[""-0.25"",""0""]",left_blue.png,left,6,2,26,2,1,,,left,left_blue.png,down_orange.png,down,left,down,612dc934d7875a72579bac3c,2021-09-11_16h52.50.453,arrow_simon_vert,2021.1.2,MacIntel,60.0024001,,,,,,,,,,,,,,,,,,,,,,,,,,,,,,,,,,,,,,
,,,down,1,1.1374,0,0.712306417,#f3af84,"[""0"",""-0.25""]",down_orange.png,down,6,3,27,2,1,,,left,left_blue.png,down_orange.png,down,left,down,612dc934d7875a72579bac3c,2021-09-11_16h52.50.453,arrow_simon_vert,2021.1.2,MacIntel,60.0024001,,,,,,,,,,,,,,,,,,,,,,,,,,,,,,,,,,,,,,
,,,right,1,1.0184,0,0.570304433,#a3d0fb,"[""-0.25"",""0""]",right_blue.png,right,7,0,28,0,1,,,right,right_blue.png,up_orange.png,up,left,down,612dc934d7875a72579bac3c,2021-09-11_16h52.50.453,arrow_simon_vert,2021.1.2,MacIntel,60.0024001,,,,,,,,,,,,,,,,,,,,,,,,,,,,,,,,,,,,,,
,,,up,1,1.4148,0,0.936734957,#f3af84,"[""0"",""-0.25""]",up_orange.png,up,7,1,29,0,1,,,right,right_blue.png,up_orange.png,up,left,down,612dc934d7875a72579bac3c,2021-09-11_16h52.50.453,arrow_simon_vert,2021.1.2,MacIntel,60.0024001,,,,,,,,,,,,,,,,,,,,,,,,,,,,,,,,,,,,,,
,,,right,1,1.2482,0,0.817769815,#a3d0fb,"[""-0.25"",""0""]",right_blue.png,right,7,2,30,0,1,,,right,right_blue.png,up_orange.png,up,left,down,612dc934d7875a72579bac3c,2021-09-11_16h52.50.453,arrow_simon_vert,2021.1.2,MacIntel,60.0024001,,,,,,,,,,,,,,,,,,,,,,,,,,,,,,,,,,,,,,
,,,up,1,1.1505,0,0.781951028,#f3af84,"[""0"",""0.25""]",up_orange.png,up,7,3,31,1,1,,,right,right_blue.png,up_orange.png,up,right,up,612dc934d7875a72579bac3c,2021-09-11_16h52.50.453,arrow_simon_vert,2021.1.2,MacIntel,60.0024001,,,,,,,,,,,,,,,,,,,,,,,,,,,,,,,,,,,,,,
,,,left,1,0.8677,0,0.451636908,#a3d0fb,"[""0.25"",""0""]",left_blue.png,left,8,0,32,3,1,,,left,left_blue.png,down_orange.png,down,right,up,612dc934d7875a72579bac3c,2021-09-11_16h52.50.453,arrow_simon_vert,2021.1.2,MacIntel,60.0024001,,,,,,,,,,,,,,,,,,,,,,,,,,,,,,,,,,,,,,
,,,up,1,0.8672,0,0.476402627,#f3af84,"[""0"",""-0.25""]",up_orange.png,up,8,1,33,0,1,,,right,right_blue.png,up_orange.png,up,left,down,612dc934d7875a72579bac3c,2021-09-11_16h52.50.453,arrow_simon_vert,2021.1.2,MacIntel,60.0024001,,,,,,,,,,,,,,,,,,,,,,,,,,,,,,,,,,,,,,
,,,left,1,1.2171,0,0.646246507,#a3d0fb,"[""-0.25"",""0""]",left_blue.png,left,8,2,34,2,1,,,left,left_blue.png,down_orange.png,down,left,down,612dc934d7875a72579bac3c,2021-09-11_16h52.50.453,arrow_simon_vert,2021.1.2,MacIntel,60.0024001,,,,,,,,,,,,,,,,,,,,,,,,,,,,,,,,,,,,,,
,,,down,1,1.3313,0,0.805418982,#f3af84,"[""0"",""0.25""]",down_orange.png,down,8,3,35,3,1,,,left,left_blue.png,down_orange.png,down,right,up,612dc934d7875a72579bac3c,2021-09-11_16h52.50.453,arrow_simon_vert,2021.1.2,MacIntel,60.0024001,,,,,,,,,,,,,,,,,,,,,,,,,,,,,,,,,,,,,,
,,,right,1,0.7874,0,0.350785583,#a3d0fb,"[""0.25"",""0""]",right_blue.png,right,9,0,36,1,1,,,right,right_blue.png,up_orange.png,up,right,up,612dc934d7875a72579bac3c,2021-09-11_16h52.50.453,arrow_simon_vert,2021.1.2,MacIntel,60.0024001,,,,,,,,,,,,,,,,,,,,,,,,,,,,,,,,,,,,,,
,,,up,1,0.6002,0,0.142905929,#f3af84,"[""0"",""-0.25""]",up_orange.png,up,9,1,37,0,1,,,right,right_blue.png,up_orange.png,up,left,down,612dc934d7875a72579bac3c,2021-09-11_16h52.50.453,arrow_simon_vert,2021.1.2,MacIntel,60.0024001,,,,,,,,,,,,,,,,,,,,,,,,,,,,,,,,,,,,,,
,,,right,1,0.5557,0,0.121111938,#a3d0fb,"[""-0.25"",""0""]",right_blue.png,right,9,2,38,0,1,,,right,right_blue.png,up_orange.png,up,left,down,612dc934d7875a72579bac3c,2021-09-11_16h52.50.453,arrow_simon_vert,2021.1.2,MacIntel,60.0024001,,,,,,,,,,,,,,,,,,,,,,,,,,,,,,,,,,,,,,
,,,up,1,0.9337,0,0.363425043,#f3af84,"[""0"",""-0.25""]",up_orange.png,up,9,3,39,0,1,,,right,right_blue.png,up_orange.png,up,left,down,612dc934d7875a72579bac3c,2021-09-11_16h52.50.453,arrow_simon_vert,2021.1.2,MacIntel,60.0024001,,,,,,,,,,,,,,,,,,,,,,,,,,,,,,,,,,,,,,
,,,left,1,1.0865,0,0.655302274,#a3d0fb,"[""0.25"",""0""]",left_blue.png,left,10,0,40,3,1,,,left,left_blue.png,down_orange.png,down,right,up,612dc934d7875a72579bac3c,2021-09-11_16h52.50.453,arrow_simon_vert,2021.1.2,MacIntel,60.0024001,,,,,,,,,,,,,,,,,,,,,,,,,,,,,,,,,,,,,,
,,,up,1,0.8681,0,0.522774473,#f3af84,"[""0"",""0.25""]",up_orange.png,up,10,1,41,1,1,,,right,right_blue.png,up_orange.png,up,right,up,612dc934d7875a72579bac3c,2021-09-11_16h52.50.453,arrow_simon_vert,2021.1.2,MacIntel,60.0024001,,,,,,,,,,,,,,,,,,,,,,,,,,,,,,,,,,,,,,
,,,right,1,0.6167,0,0.139246425,#a3d0fb,"[""0.25"",""0""]",right_blue.png,right,10,2,42,1,1,,,right,right_blue.png,up_orange.png,up,right,up,612dc934d7875a72579bac3c,2021-09-11_16h52.50.453,arrow_simon_vert,2021.1.2,MacIntel,60.0024001,,,,,,,,,,,,,,,,,,,,,,,,,,,,,,,,,,,,,,
,,,up,1,0.8339,0,0.510927156,#f3af84,"[""0"",""0.25""]",up_orange.png,up,10,3,43,1,1,,,right,right_blue.png,up_orange.png,up,right,up,612dc934d7875a72579bac3c,2021-09-11_16h52.50.453,arrow_simon_vert,2021.1.2,MacIntel,60.0024001,,,,,,,,,,,,,,,,,,,,,,,,,,,,,,,,,,,,,,
,,,right,1,0.4837,0,0.104227442,#a3d0fb,"[""0.25"",""0""]",right_blue.png,right,11,0,44,1,1,,,right,right_blue.png,up_orange.png,up,right,up,612dc934d7875a72579bac3c,2021-09-11_16h52.50.453,arrow_simon_vert,2021.1.2,MacIntel,60.0024001,,,,,,,,,,,,,,,,,,,,,,,,,,,,,,,,,,,,,,
,,,down,1,0.5491,0,0.044415764,#f3af84,"[""0"",""-0.25""]",down_orange.png,down,11,1,45,2,1,,,left,left_blue.png,down_orange.png,down,left,down,612dc934d7875a72579bac3c,2021-09-11_16h52.50.453,arrow_simon_vert,2021.1.2,MacIntel,60.0024001,,,,,,,,,,,,,,,,,,,,,,,,,,,,,,,,,,,,,,
,,,left,1,1.4337,0,0.96007931,#a3d0fb,"[""0.25"",""0""]",left_blue.png,left,11,2,46,3,1,,,left,left_blue.png,down_orange.png,down,right,up,612dc934d7875a72579bac3c,2021-09-11_16h52.50.453,arrow_simon_vert,2021.1.2,MacIntel,60.0024001,,,,,,,,,,,,,,,,,,,,,,,,,,,,,,,,,,,,,,
,,,up,1,1.1992,0,0.779557829,#f3af84,"[""0"",""-0.25""]",up_orange.png,up,11,3,47,0,1,,,right,right_blue.png,up_orange.png,up,left,down,612dc934d7875a72579bac3c,2021-09-11_16h52.50.453,arrow_simon_vert,2021.1.2,MacIntel,60.0024001,,,,,,,,,,,,,,,,,,,,,,,,,,,,,,,,,,,,,,
,,,left,1,0.7504,0,0.349150455,#a3d0fb,"[""0.25"",""0""]",left_blue.png,left,12,0,48,3,1,,,left,left_blue.png,down_orange.png,down,right,up,612dc934d7875a72579bac3c,2021-09-11_16h52.50.453,arrow_simon_vert,2021.1.2,MacIntel,60.0024001,,,,,,,,,,,,,,,,,,,,,,,,,,,,,,,,,,,,,,
,,,up,1,1.1836,0,0.839146703,#f3af84,"[""0"",""0.25""]",up_orange.png,up,12,1,49,1,1,,,right,right_blue.png,up_orange.png,up,right,up,612dc934d7875a72579bac3c,2021-09-11_16h52.50.453,arrow_simon_vert,2021.1.2,MacIntel,60.0024001,,,,,,,,,,,,,,,,,,,,,,,,,,,,,,,,,,,,,,
,,,left,1,1.3662,0,0.99357042,#a3d0fb,"[""-0.25"",""0""]",left_blue.png,left,12,2,50,2,1,,,left,left_blue.png,down_orange.png,down,left,down,612dc934d7875a72579bac3c,2021-09-11_16h52.50.453,arrow_simon_vert,2021.1.2,MacIntel,60.0024001,,,,,,,,,,,,,,,,,,,,,,,,,,,,,,,,,,,,,,
,,,down,1,1.2155,0,0.796763725,#f3af84,"[""0"",""-0.25""]",down_orange.png,down,12,3,51,2,1,,,left,left_blue.png,down_orange.png,down,left,down,612dc934d7875a72579bac3c,2021-09-11_16h52.50.453,arrow_simon_vert,2021.1.2,MacIntel,60.0024001,,,,,,,,,,,,,,,,,,,,,,,,,,,,,,,,,,,,,,
,,,right,1,1.1002,0,0.700582065,#a3d0fb,"[""0.25"",""0""]",right_blue.png,right,13,0,52,1,1,,,right,right_blue.png,up_orange.png,up,right,up,612dc934d7875a72579bac3c,2021-09-11_16h52.50.453,arrow_simon_vert,2021.1.2,MacIntel,60.0024001,,,,,,,,,,,,,,,,,,,,,,,,,,,,,,,,,,,,,,
,,,down,1,0.951,0,0.427847845,#f3af84,"[""0"",""0.25""]",down_orange.png,down,13,1,53,3,1,,,left,left_blue.png,down_orange.png,down,right,up,612dc934d7875a72579bac3c,2021-09-11_16h52.50.453,arrow_simon_vert,2021.1.2,MacIntel,60.0024001,,,,,,,,,,,,,,,,,,,,,,,,,,,,,,,,,,,,,,
,,,right,1,1.5311,0,0.999989798,#a3d0fb,"[""-0.25"",""0""]",right_blue.png,right,13,2,54,0,1,,,right,right_blue.png,up_orange.png,up,left,down,612dc934d7875a72579bac3c,2021-09-11_16h52.50.453,arrow_simon_vert,2021.1.2,MacIntel,60.0024001,,,,,,,,,,,,,,,,,,,,,,,,,,,,,,,,,,,,,,
,,,down,1,1.4652,0,0.965520831,#f3af84,"[""0"",""0.25""]",down_orange.png,down,13,3,55,3,1,,,left,left_blue.png,down_orange.png,down,right,up,612dc934d7875a72579bac3c,2021-09-11_16h52.50.453,arrow_simon_vert,2021.1.2,MacIntel,60.0024001,,,,,,,,,,,,,,,,,,,,,,,,,,,,,,,,,,,,,,
,,,left,1,1.3009,0,0.835071341,#a3d0fb,"[""-0.25"",""0""]",left_blue.png,left,14,0,56,2,1,,,left,left_blue.png,down_orange.png,down,left,down,612dc934d7875a72579bac3c,2021-09-11_16h52.50.453,arrow_simon_vert,2021.1.2,MacIntel,60.0024001,,,,,,,,,,,,,,,,,,,,,,,,,,,,,,,,,,,,,,
,,,down,1,1.2504,0,0.79970665,#f3af84,"[""0"",""0.25""]",down_orange.png,down,14,1,57,3,1,,,left,left_blue.png,down_orange.png,down,right,up,612dc934d7875a72579bac3c,2021-09-11_16h52.50.453,arrow_simon_vert,2021.1.2,MacIntel,60.0024001,,,,,,,,,,,,,,,,,,,,,,,,,,,,,,,,,,,,,,
,,,right,1,0.9508,0,0.541762853,#a3d0fb,"[""0.25"",""0""]",right_blue.png,right,14,2,58,1,1,,,right,right_blue.png,up_orange.png,up,right,up,612dc934d7875a72579bac3c,2021-09-11_16h52.50.453,arrow_simon_vert,2021.1.2,MacIntel,60.0024001,,,,,,,,,,,,,,,,,,,,,,,,,,,,,,,,,,,,,,
,,,down,1,0.8162,0,0.332371071,#f3af84,"[""0"",""0.25""]",down_orange.png,down,14,3,59,3,1,,,left,left_blue.png,down_orange.png,down,right,up,612dc934d7875a72579bac3c,2021-09-11_16h52.50.453,arrow_simon_vert,2021.1.2,MacIntel,60.0024001,,,,,,,,,,,,,,,,,,,,,,,,,,,,,,,,,,,,,,
,,,,,,,,,,,,,,,,,,,,,,,,,612dc934d7875a72579bac3c,2021-09-11_16h52.50.453,arrow_simon_vert,2021.1.2,MacIntel,60.0024001,space,89.5381,1,0,1,0,1,,,,,,,,,,,,,,,,,,,,,,,,,,,,,,,
,,,,,,,,,,,,,,,,,,,,,,,,,612dc934d7875a72579bac3c,2021-09-11_16h52.50.453,arrow_simon_vert,2021.1.2,MacIntel,60.0024001,,,,,,,,space,0,59.5685,up,2.5331,0,0,0,0,1,,,,,,,,,,,,,,,,,,,,,
,,,,,,,,,,,,,,,,,,,,,,,,,612dc934d7875a72579bac3c,2021-09-11_16h52.50.453,arrow_simon_vert,2021.1.2,MacIntel,60.0024001,,,,,,,,,,,up,2.3847,1,0,1,0,1,,,,,,,,,,,,,,,,,,,,,
,,,,,,,,,,,,,,,,,,,,,,,,,612dc934d7875a72579bac3c,2021-09-11_16h52.50.453,arrow_simon_vert,2021.1.2,MacIntel,60.0024001,,,,,,,,,,,right,2.2685,2,0,2,0,1,,,,,,,,,,,,,,,,,,,,,
,,,,,,,,,,,,,,,,,,,,,,,,,612dc934d7875a72579bac3c,2021-09-11_16h52.50.453,arrow_simon_vert,2021.1.2,MacIntel,60.0024001,,,,,,,,,,,up,2.5676,3,0,3,0,1,,,,,,,,,,,,,,,,,,,,,
,,,,,,,,,,,,,,,,,,,,,,,,,612dc934d7875a72579bac3c,2021-09-11_16h52.50.453,arrow_simon_vert,2021.1.2,MacIntel,60.0024001,,,,,,,,,,,right,2.3663,4,0,4,0,1,,,,,,,,,,,,,,,,,,,,,
,,,,,,,,,,,,,,,,,,,,,,,,,612dc934d7875a72579bac3c,2021-09-11_16h52.50.453,arrow_simon_vert,2021.1.2,MacIntel,60.0024001,,,,,,,,,,,up,2.6303,5,0,5,0,1,,,,,,,,,,,,,,,,,,,,,
,,,,,,,,,,,,,,,,,,,,,,,,,612dc934d7875a72579bac3c,2021-09-11_16h52.50.453,arrow_simon_vert,2021.1.2,MacIntel,60.0024001,,,,,,,,,,,right,2.4723,6,0,6,0,1,,,,,,,,,,,,,,,,,,,,,
,,,,,,,,,,,,,,,,,,,,,,,,,612dc934d7875a72579bac3c,2021-09-11_16h52.50.453,arrow_simon_vert,2021.1.2,MacIntel,60.0024001,,,,,,,,,,,up,2.5593,7,0,7,0,1,,,,,,,,,,,,,,,,,,,,,
,,,,,,,,,,,,,,,,,,,,,,,,,612dc934d7875a72579bac3c,2021-09-11_16h52.50.453,arrow_simon_vert,2021.1.2,MacIntel,60.0024001,,,,,,,,,,,right,2.432,8,0,8,0,1,,,,,,,,,,,,,,,,,,,,,
,,,,,,,,,,,,,,,,,,,,,,,,,612dc934d7875a72579bac3c,2021-09-11_16h52.50.453,arrow_simon_vert,2021.1.2,MacIntel,60.0024001,,,,,,,,,,,up,2.4889,9,0,9,0,1,,,,,,,,,,,,,,,,,,,,,
,,,,,,,,,,,,,,,,,,,,,,,,,612dc934d7875a72579bac3c,2021-09-11_16h52.50.453,arrow_simon_vert,2021.1.2,MacIntel,60.0024001,,,,,,,,,,,right,2.4313,10,0,10,0,1,,,,,,,,,,,,,,,,,,,,,
,,,,,,,,,,,,,,,,,,,,,,,,,612dc934d7875a72579bac3c,2021-09-11_16h52.50.453,arrow_simon_vert,2021.1.2,MacIntel,60.0024001,,,,,,,,,,,up,2.5675,11,0,11,0,1,,,,,,,,,,,,,,,,,,,,,
,,,,,,,,,,,,,,,,,,,,,,,,,612dc934d7875a72579bac3c,2021-09-11_16h52.50.453,arrow_simon_vert,2021.1.2,MacIntel,60.0024001,,,,,,,,,,,right,2.6143,12,0,12,0,1,,,,,,,,,,,,,,,,,,,,,
,,,,,,,,,,,,,,,,,,,,,,,,,612dc934d7875a72579bac3c,2021-09-11_16h52.50.453,arrow_simon_vert,2021.1.2,MacIntel,60.0024001,,,,,,,,,,,up,2.5178,13,0,13,0,1,,,,,,,,,,,,,,,,,,,,,
,,,,,,,,,,,,,,,,,,,,,,,,,612dc934d7875a72579bac3c,2021-09-11_16h52.50.453,arrow_simon_vert,2021.1.2,MacIntel,60.0024001,,,,,,,,,,,right,2.4366,14,0,14,0,1,,,,,,,,,,,,,,,,,,,,,
,,,,,,,,,,,,,,,,,,,,,,,,,612dc934d7875a72579bac3c,2021-09-11_16h52.50.453,arrow_simon_vert,2021.1.2,MacIntel,60.0024001,,,,,,,,,,,up,2.5802,15,0,15,0,1,,,,,,,,,,,,,,,,,,,,,
,,,,,,,,,,,,,,,,,,,,,,,,,612dc934d7875a72579bac3c,2021-09-11_16h52.50.453,arrow_simon_vert,2021.1.2,MacIntel,60.0024001,,,,,,,,,,,right,2.4817,16,0,16,0,1,,,,,,,,,,,,,,,,,,,,,
,,,,,,,,,,,,,,,,,,,,,,,,,612dc934d7875a72579bac3c,2021-09-11_16h52.50.453,arrow_simon_vert,2021.1.2,MacIntel,60.0024001,,,,,,,,,,,up,2.3821,17,0,17,0,1,,,,,,,,,,,,,,,,,,,,,
,,,,,,,,,,,,,,,,,,,,,,,,,612dc934d7875a72579bac3c,2021-09-11_16h52.50.453,arrow_simon_vert,2021.1.2,MacIntel,60.0024001,,,,,,,,,,,right,2.516,18,0,18,0,1,,,,,,,,,,,,,,,,,,,,,
,,,,,,,,,,,,,,,,,,,,,,,,,612dc934d7875a72579bac3c,2021-09-11_16h52.50.453,arrow_simon_vert,2021.1.2,MacIntel,60.0024001,,,,,,,,,,,up,2.4816,19,0,19,0,1,,,,,,,,,,,,,,,,,,,,,
,,,,,,,,,,,,,,,,,,,,,,,,,612dc934d7875a72579bac3c,2021-09-11_16h52.50.453,arrow_simon_vert,2021.1.2,MacIntel,60.0024001,,,,,,,,,,,right,2.4686,20,0,20,0,1,,,,,,,,,,,,,,,,,,,,,
,,,,,,,,,,,,,,,,,,,,,,,,,612dc934d7875a72579bac3c,2021-09-11_16h52.50.453,arrow_simon_vert,2021.1.2,MacIntel,60.0024001,,,,,,,,,,,up,2.4981,21,0,21,0,1,,,,,,,,,,,,,,,,,,,,,
,,,,,,,,,,,,,,,,,,,,,,,,,612dc934d7875a72579bac3c,2021-09-11_16h52.50.453,arrow_simon_vert,2021.1.2,MacIntel,60.0024001,,,,,,,,,,,right,2.5993,22,0,22,0,1,,,,,,,,,,,,,,,,,,,,,
,,,,,,,,,,,,,,,,,,,,,,,,,612dc934d7875a72579bac3c,2021-09-11_16h52.50.453,arrow_simon_vert,2021.1.2,MacIntel,60.0024001,,,,,,,,,,,up,2.4174,23,0,23,0,1,,,,,,,,,,,,,,,,,,,,,
,,,,,,,,,,,,,,,,,,,,,,,,,612dc934d7875a72579bac3c,2021-09-11_16h52.50.453,arrow_simon_vert,2021.1.2,MacIntel,60.0024001,,,,,,,,,,,right,2.4192,24,0,24,0,1,,,,,,,,,,,,,,,,,,,,,
,,,,,,,,,,,,,,,,,,,,,,,,,612dc934d7875a72579bac3c,2021-09-11_16h52.50.453,arrow_simon_vert,2021.1.2,MacIntel,60.0024001,,,,,,,,,,,up,2.4001,25,0,25,0,1,,,,,,,,,,,,,,,,,,,,,
,,,,,,,,,,,,,,,,,,,,,,,,,612dc934d7875a72579bac3c,2021-09-11_16h52.50.453,arrow_simon_vert,2021.1.2,MacIntel,60.0024001,,,,,,,,,,,right,2.3048,26,0,26,0,1,,,,,,,,,,,,,,,,,,,,,
,,,,,,,,,,,,,,,,,,,,,,,,,612dc934d7875a72579bac3c,2021-09-11_16h52.50.453,arrow_simon_vert,2021.1.2,MacIntel,60.0024001,,,,,,,,,,,up,2.2316,27,0,27,0,1,,,,,,,,,,,,,,,,,,,,,
,,,,,,,,,,,,,,,,,,,,,,,,,612dc934d7875a72579bac3c,2021-09-11_16h52.50.453,arrow_simon_vert,2021.1.2,MacIntel,60.0024001,,,,,,,,,,,right,2.4833,28,0,28,0,1,,,,,,,,,,,,,,,,,,,,,
,,,,,,,,,,,,,,,,,,,,,,,,,612dc934d7875a72579bac3c,2021-09-11_16h52.50.453,arrow_simon_vert,2021.1.2,MacIntel,60.0024001,,,,,,,,,,,up,2.5055,29,0,29,0,1,,,,,,,,,,,,,,,,,,,,,
,,,,,,,,,,,,,,,,,,,,,,,,,612dc934d7875a72579bac3c,2021-09-11_16h52.50.453,arrow_simon_vert,2021.1.2,MacIntel,60.0024001,,,,,,,,,,,right,2.564,30,0,30,0,1,,,,,,,,,,,,,,,,,,,,,
,,,,,,,,,,,,,,,,,,,,,,,,,612dc934d7875a72579bac3c,2021-09-11_16h52.50.453,arrow_simon_vert,2021.1.2,MacIntel,60.0024001,,,,,,,,,,,up,2.5184,31,0,31,0,1,,,,,,,,,,,,,,,,,,,,,
,,,,,,,,,,,,,,,,,,,,,,,,,612dc934d7875a72579bac3c,2021-09-11_16h52.50.453,arrow_simon_vert,2021.1.2,MacIntel,60.0024001,,,,,,,,,,,right,2.4509,32,0,32,0,1,,,,,,,,,,,,,,,,,,,,,
,,,,,,,,,,,,,,,,,,,,,,,,,612dc934d7875a72579bac3c,2021-09-11_16h52.50.453,arrow_simon_vert,2021.1.2,MacIntel,60.0024001,,,,,,,,,,,up,2.585,33,0,33,0,1,,,,,,,,,,,,,,,,,,,,,
,,,,,,,,,,,,,,,,,,,,,,,,,612dc934d7875a72579bac3c,2021-09-11_16h52.50.453,arrow_simon_vert,2021.1.2,MacIntel,60.0024001,,,,,,,,,,,right,2.5488,34,0,34,0,1,,,,,,,,,,,,,,,,,,,,,
,,,,,,,,,,,,,,,,,,,,,,,,,612dc934d7875a72579bac3c,2021-09-11_16h52.50.453,arrow_simon_vert,2021.1.2,MacIntel,60.0024001,,,,,,,,,,,up,2.565,35,0,35,0,1,,,,,,,,,,,,,,,,,,,,,
,,,,,,,,,,,,,,,,,,,,,,,,,612dc934d7875a72579bac3c,2021-09-11_16h52.50.453,arrow_simon_vert,2021.1.2,MacIntel,60.0024001,,,,,,,,,,,right,2.4019,36,0,36,0,1,,,,,,,,,,,,,,,,,,,,,
,,,,,,,,,,,,,,,,,,,,,,,,,612dc934d7875a72579bac3c,2021-09-11_16h52.50.453,arrow_simon_vert,2021.1.2,MacIntel,60.0024001,,,,,,,,,,,up,2.504,37,0,37,0,1,,,,,,,,,,,,,,,,,,,,,
,,,,,,,,,,,,,,,,,,,,,,,,,612dc934d7875a72579bac3c,2021-09-11_16h52.50.453,arrow_simon_vert,2021.1.2,MacIntel,60.0024001,,,,,,,,,,,right,2.4671,38,0,38,0,1,,,,,,,,,,,,,,,,,,,,,
,,,,,,,,,,,,,,,,,,,,,,,,,612dc934d7875a72579bac3c,2021-09-11_16h52.50.453,arrow_simon_vert,2021.1.2,MacIntel,60.0024001,,,,,,,,,,,up,2.4483,39,0,39,0,1,,,,,,,,,,,,,,,,,,,,,
,,,,,,,,,,,,,,,,,,,,,,,,,612dc934d7875a72579bac3c,2021-09-11_16h52.50.453,arrow_simon_vert,2021.1.2,MacIntel,60.0024001,,,,,,,,,,,right,2.4153,40,0,40,0,1,,,,,,,,,,,,,,,,,,,,,
,,,,,,,,,,,,,,,,,,,,,,,,,612dc934d7875a72579bac3c,2021-09-11_16h52.50.453,arrow_simon_vert,2021.1.2,MacIntel,60.0024001,,,,,,,,,,,up,2.3664,41,0,41,0,1,,,,,,,,,,,,,,,,,,,,,
,,,,,,,,,,,,,,,,,,,,,,,,,612dc934d7875a72579bac3c,2021-09-11_16h52.50.453,arrow_simon_vert,2021.1.2,MacIntel,60.0024001,,,,,,,,,,,right,2.6066,42,0,42,0,1,,,,,,,,,,,,,,,,,,,,,
,,,,,,,,,,,,,,,,,,,,,,,,,612dc934d7875a72579bac3c,2021-09-11_16h52.50.453,arrow_simon_vert,2021.1.2,MacIntel,60.0024001,,,,,,,,,,,up,2.4863,43,0,43,0,1,,,,,,,,,,,,,,,,,,,,,
,,,,,,,,,,,,,,,,,,,,,,,,,612dc934d7875a72579bac3c,2021-09-11_16h52.50.453,arrow_simon_vert,2021.1.2,MacIntel,60.0024001,,,,,,,,,,,right,1.6166,44,0,44,0,1,,,,,,,,,,,,,,,,,,,,,
,,,,,,,,,,,,,,,,,,,,,,,,,612dc934d7875a72579bac3c,2021-09-11_16h52.50.453,arrow_simon_vert,2021.1.2,MacIntel,60.0024001,,,,,,,,,,,up,2.5137,45,0,45,0,1,,,,,,,,,,,,,,,,,,,,,
,,,,,,,,,,,,,,,,,,,,,,,,,612dc934d7875a72579bac3c,2021-09-11_16h52.50.453,arrow_simon_vert,2021.1.2,MacIntel,60.0024001,,,,,,,,,,,right,2.4349,46,0,46,0,1,,,,,,,,,,,,,,,,,,,,,
,,,,,,,,,,,,,,,,,,,,,,,,,612dc934d7875a72579bac3c,2021-09-11_16h52.50.453,arrow_simon_vert,2021.1.2,MacIntel,60.0024001,,,,,,,,,,,up,2.422,47,0,47,0,1,,,,,,,,,,,,,,,,,,,,,
,,,,,,,,,,,,,,,,,,,,,,,,,612dc934d7875a72579bac3c,2021-09-11_16h52.50.453,arrow_simon_vert,2021.1.2,MacIntel,60.0024001,,,,,,,,,,,right,2.5814,48,0,48,0,1,,,,,,,,,,,,,,,,,,,,,
,,,,,,,,,,,,,,,,,,,,,,,,,612dc934d7875a72579bac3c,2021-09-11_16h52.50.453,arrow_simon_vert,2021.1.2,MacIntel,60.0024001,,,,,,,,,,,up,2.5493,49,0,49,0,1,,,,,,,,,,,,,,,,,,,,,
,,,,,,,,,,,,,,,,,,,,,,,,,612dc934d7875a72579bac3c,2021-09-11_16h52.50.453,arrow_simon_vert,2021.1.2,MacIntel,60.0024001,,,,,,,,,,,right,2.5838,50,0,50,0,1,,,,,,,,,,,,,,,,,,,,,
,,,,,,,,,,,,,,,,,,,,,,,,,612dc934d7875a72579bac3c,2021-09-11_16h52.50.453,arrow_simon_vert,2021.1.2,MacIntel,60.0024001,,,,,,,,,,,up,2.5153,51,0,51,0,1,,,,,,,,,,,,,,,,,,,,,
,,,,,,,,,,,,,,,,,,,,,,,,,612dc934d7875a72579bac3c,2021-09-11_16h52.50.453,arrow_simon_vert,2021.1.2,MacIntel,60.0024001,,,,,,,,,,,right,2.4641,52,0,52,0,1,,,,,,,,,,,,,,,,,,,,,
,,,,,,,,,,,,,,,,,,,,,,,,,612dc934d7875a72579bac3c,2021-09-11_16h52.50.453,arrow_simon_vert,2021.1.2,MacIntel,60.0024001,,,,,,,,,,,up,2.4485,53,0,53,0,1,,,,,,,,,,,,,,,,,,,,,
,,,,,,,,,,,,,,,,,,,,,,,,,612dc934d7875a72579bac3c,2021-09-11_16h52.50.453,arrow_simon_vert,2021.1.2,MacIntel,60.0024001,,,,,,,,,,,right,2.4711,54,0,54,0,1,,,,,,,,,,,,,,,,,,,,,
,,,,,,,,,,,,,,,,,,,,,,,,,612dc934d7875a72579bac3c,2021-09-11_16h52.50.453,arrow_simon_vert,2021.1.2,MacIntel,60.0024001,,,,,,,,,,,up,2.466,55,0,55,0,1,,,,,,,,,,,,,,,,,,,,,
,,,,,,,,,,,,,,,,,,,,,,,,,612dc934d7875a72579bac3c,2021-09-11_16h52.50.453,arrow_simon_vert,2021.1.2,MacIntel,60.0024001,,,,,,,,,,,right,2.4819,56,0,56,0,1,,,,,,,,,,,,,,,,,,,,,
,,,,,,,,,,,,,,,,,,,,,,,,,612dc934d7875a72579bac3c,2021-09-11_16h52.50.453,arrow_simon_vert,2021.1.2,MacIntel,60.0024001,,,,,,,,,,,up,2.4016,57,0,57,0,1,,,,,,,,,,,,,,,,,,,,,
,,,,,,,,,,,,,,,,,,,,,,,,,612dc934d7875a72579bac3c,2021-09-11_16h52.50.453,arrow_simon_vert,2021.1.2,MacIntel,60.0024001,,,,,,,,,,,right,2.4505,58,0,58,0,1,,,,,,,,,,,,,,,,,,,,,
,,,,,,,,,,,,,,,,,,,,,,,,,612dc934d7875a72579bac3c,2021-09-11_16h52.50.453,arrow_simon_vert,2021.1.2,MacIntel,60.0024001,,,,,,,,,,,up,2.4334,59,0,59,0,1,,,,,,,,,,,,,,,,,,,,,
,,,,,,0,2.064178948,#a3d0fb,"[""-0.25"",""0""]",left_blue.png,left,,,,,,,,left,left_blue.png,down_orange.png,down,left,down,612dc934d7875a72579bac3c,2021-09-11_16h52.50.453,arrow_simon_vert,2021.1.2,MacIntel,60.0024001,,,,,,,,,,,,,,,,,,space,0,31.5632,left,1,1.5426,1,FALSE,FALSE,0,0,0,2,1,,,,,,,
,,,,,,0,1.530902875,#f3af84,"[""0"",""0.25""]",down_orange.png,down,,,,,,,,left,left_blue.png,down_orange.png,down,right,up,612dc934d7875a72579bac3c,2021-09-11_16h52.50.453,arrow_simon_vert,2021.1.2,MacIntel,60.0024001,,,,,,,,,,,,,,,,,,,,,down,1,1.3336,2,FALSE,TRUE,0,1,1,3,1,,,,,,,
,,,,,,0,2.428375523,#a3d0fb,"[""-0.25"",""0""]",right_blue.png,right,,,,,,,,right,right_blue.png,up_orange.png,up,left,down,612dc934d7875a72579bac3c,2021-09-11_16h52.50.453,arrow_simon_vert,2021.1.2,MacIntel,60.0024001,,,,,,,,,,,,,,,,,,,,,right,1,1.8511,3,TRUE,FALSE,0,2,2,0,1,,,,,,,
,,,,,,0,1.552860269,#f3af84,"[""0"",""-0.25""]",up_orange.png,up,,,,,,,,right,right_blue.png,up_orange.png,up,left,down,612dc934d7875a72579bac3c,2021-09-11_16h52.50.453,arrow_simon_vert,2021.1.2,MacIntel,60.0024001,,,,,,,,,,,,,,,,,,,,,up,1,1.4012,4,FALSE,FALSE,0,3,3,0,1,,,,,,,
,,,,,,0,2.208404685,#a3d0fb,"[""-0.25"",""0""]",right_blue.png,right,,,,,,,,right,right_blue.png,up_orange.png,up,left,down,612dc934d7875a72579bac3c,2021-09-11_16h52.50.453,arrow_simon_vert,2021.1.2,MacIntel,60.0024001,,,,,,,,,,,,,,,,,,,,,right,1,1.5678,5,FALSE,FALSE,1,0,4,0,1,,,,,,,
,,,,,,1,2.269269855,#f3af84,"[""0"",""0.25""]",down_orange.png,down,,,,,,,,left,left_blue.png,down_orange.png,down,right,up,612dc934d7875a72579bac3c,2021-09-11_16h52.50.453,arrow_simon_vert,2021.1.2,MacIntel,60.0024001,,,,,,,,,,,,,,,,,,,,,up,0,1.5885,6,FALSE,FALSE,1,1,5,3,1,,,,,,,
,,,,,,1,2.376796117,#a3d0fb,"[""-0.25"",""0""]",left_blue.png,left,,,,,,,,left,left_blue.png,down_orange.png,down,left,down,612dc934d7875a72579bac3c,2021-09-11_16h52.50.453,arrow_simon_vert,2021.1.2,MacIntel,60.0024001,,,,,,,,,,,,,,,,,,,,,right,0,1.4159,7,FALSE,FALSE,1,2,6,2,1,,,,,,,
,,,,,,1,1.549827963,#f3af84,"[""0"",""0.25""]",up_orange.png,up,,,,,,,,right,right_blue.png,up_orange.png,up,right,up,612dc934d7875a72579bac3c,2021-09-11_16h52.50.453,arrow_simon_vert,2021.1.2,MacIntel,60.0024001,,,,,,,,,,,,,,,,,,,,,up,1,1.3982,8,FALSE,TRUE,1,3,7,1,1,,,,,,,
,,,,,,0,1.684205995,#a3d0fb,"[""-0.25"",""0""]",right_blue.png,right,,,,,,,,right,right_blue.png,up_orange.png,up,left,down,612dc934d7875a72579bac3c,2021-09-11_16h52.50.453,arrow_simon_vert,2021.1.2,MacIntel,60.0024001,,,,,,,,,,,,,,,,,,,,,right,1,1.5839,9,FALSE,FALSE,2,0,8,0,1,,,,,,,
,,,,,,0,1.554959209,#f3af84,"[""0"",""0.25""]",up_orange.png,up,,,,,,,,right,right_blue.png,up_orange.png,up,right,up,612dc934d7875a72579bac3c,2021-09-11_16h52.50.453,arrow_simon_vert,2021.1.2,MacIntel,60.0024001,,,,,,,,,,,,,,,,,,,,,up,1,1.5551,10,FALSE,FALSE,2,1,9,1,1,,,,,,,
,,,,,,0,1.75669991,#a3d0fb,"[""0.25"",""0""]",left_blue.png,left,,,,,,,,left,left_blue.png,down_orange.png,down,right,up,612dc934d7875a72579bac3c,2021-09-11_16h52.50.453,arrow_simon_vert,2021.1.2,MacIntel,60.0024001,,,,,,,,,,,,,,,,,,,,,left,1,1.5508,11,FALSE,FALSE,2,2,10,3,1,,,,,,,
,,,,,,0,2.427292637,#f3af84,"[""0"",""0.25""]",up_orange.png,up,,,,,,,,right,right_blue.png,up_orange.png,up,right,up,612dc934d7875a72579bac3c,2021-09-11_16h52.50.453,arrow_simon_vert,2021.1.2,MacIntel,60.0024001,,,,,,,,,,,,,,,,,,,,,up,1,1.7681,12,TRUE,FALSE,2,3,11,1,1,,,,,,,
,,,,,,0,1.856483283,#a3d0fb,"[""-0.25"",""0""]",left_blue.png,left,,,,,,,,left,left_blue.png,down_orange.png,down,left,down,612dc934d7875a72579bac3c,2021-09-11_16h52.50.453,arrow_simon_vert,2021.1.2,MacIntel,60.0024001,,,,,,,,,,,,,,,,,,,,,left,1,1.497,13,FALSE,FALSE,3,0,12,2,1,,,,,,,
,,,,,,0,1.528088676,#f3af84,"[""0"",""0.25""]",down_orange.png,down,,,,,,,,left,left_blue.png,down_orange.png,down,right,up,612dc934d7875a72579bac3c,2021-09-11_16h52.50.453,arrow_simon_vert,2021.1.2,MacIntel,60.0024001,,,,,,,,,,,,,,,,,,,,,down,1,1.5802,14,FALSE,FALSE,3,1,13,3,1,,,,,,,
,,,,,,0,1.969821178,#a3d0fb,"[""0.25"",""0""]",left_blue.png,left,,,,,,,,left,left_blue.png,down_orange.png,down,right,up,612dc934d7875a72579bac3c,2021-09-11_16h52.50.453,arrow_simon_vert,2021.1.2,MacIntel,60.0024001,,,,,,,,,,,,,,,,,,,,,left,1,1.5176,15,FALSE,FALSE,3,2,14,3,1,,,,,,,
,,,,,,0,2.369882471,#f3af84,"[""0"",""-0.25""]",down_orange.png,down,,,,,,,,left,left_blue.png,down_orange.png,down,left,down,612dc934d7875a72579bac3c,2021-09-11_16h52.50.453,arrow_simon_vert,2021.1.2,MacIntel,60.0024001,,,,,,,,,,,,,,,,,,,,,down,1,1.8364,16,TRUE,FALSE,3,3,15,2,1,,,,,,,
,,,,,,0,2.453811673,#a3d0fb,"[""-0.25"",""0""]",left_blue.png,left,,,,,,,,left,left_blue.png,down_orange.png,down,left,down,612dc934d7875a72579bac3c,2021-09-11_16h52.50.453,arrow_simon_vert,2021.1.2,MacIntel,60.0024001,,,,,,,,,,,,,,,,,,,,,up,0,1.7169,17,TRUE,FALSE,4,0,16,2,1,,,,,,,
,,,,,,0,2.157375294,#f3af84,"[""0"",""0.25""]",up_orange.png,up,,,,,,,,right,right_blue.png,up_orange.png,up,right,up,612dc934d7875a72579bac3c,2021-09-11_16h52.50.453,arrow_simon_vert,2021.1.2,MacIntel,60.0024001,,,,,,,,,,,,,,,,,,,,,up,1,1.536,18,FALSE,FALSE,4,1,17,1,1,,,,,,,
,,,,,,0,1.980568185,#a3d0fb,"[""-0.25"",""0""]",left_blue.png,left,,,,,,,,left,left_blue.png,down_orange.png,down,left,down,612dc934d7875a72579bac3c,2021-09-11_16h52.50.453,arrow_simon_vert,2021.1.2,MacIntel,60.0024001,,,,,,,,,,,,,,,,,,,,,left,1,1.5168,19,FALSE,FALSE,4,2,18,2,1,,,,,,,
,,,,,,0,1.639406207,#f3af84,"[""0"",""-0.25""]",up_orange.png,up,,,,,,,,right,right_blue.png,up_orange.png,up,left,down,612dc934d7875a72579bac3c,2021-09-11_16h52.50.453,arrow_simon_vert,2021.1.2,MacIntel,60.0024001,,,,,,,,,,,,,,,,,,,,,up,1,1.583,20,FALSE,FALSE,4,3,19,0,1,,,,,,,
,,,,,,0,1.831645512,#a3d0fb,"[""0.25"",""0""]",left_blue.png,left,,,,,,,,left,left_blue.png,down_orange.png,down,right,up,612dc934d7875a72579bac3c,2021-09-11_16h52.50.453,arrow_simon_vert,2021.1.2,MacIntel,60.0024001,,,,,,,,,,,,,,,,,,,,,left,1,1.5336,21,FALSE,FALSE,5,0,20,3,1,,,,,,,
,,,,,,0,1.664691672,#f3af84,"[""0"",""0.25""]",up_orange.png,up,,,,,,,,right,right_blue.png,up_orange.png,up,right,up,612dc934d7875a72579bac3c,2021-09-11_16h52.50.453,arrow_simon_vert,2021.1.2,MacIntel,60.0024001,,,,,,,,,,,,,,,,,,,,,up,1,1.5531,22,FALSE,FALSE,5,1,21,1,1,,,,,,,
,,,,,,0,2.007612851,#a3d0fb,"[""0.25"",""0""]",right_blue.png,right,,,,,,,,right,right_blue.png,up_orange.png,up,right,up,612dc934d7875a72579bac3c,2021-09-11_16h52.50.453,arrow_simon_vert,2021.1.2,MacIntel,60.0024001,,,,,,,,,,,,,,,,,,,,,right,1,1.5192,23,FALSE,FALSE,5,2,22,1,1,,,,,,,
,,,,,,0,1.645444179,#f3af84,"[""0"",""0.25""]",up_orange.png,up,,,,,,,,right,right_blue.png,up_orange.png,up,right,up,612dc934d7875a72579bac3c,2021-09-11_16h52.50.453,arrow_simon_vert,2021.1.2,MacIntel,60.0024001,,,,,,,,,,,,,,,,,,,,,up,1,1.6487,24,TRUE,FALSE,5,3,23,1,1,,,,,,,
,,,,,,0,1.709805412,#a3d0fb,"[""-0.25"",""0""]",right_blue.png,right,,,,,,,,right,right_blue.png,up_orange.png,up,left,down,612dc934d7875a72579bac3c,2021-09-11_16h52.50.453,arrow_simon_vert,2021.1.2,MacIntel,60.0024001,,,,,,,,,,,,,,,,,,,,,right,1,1.5028,25,FALSE,FALSE,6,0,24,0,1,,,,,,,
,,,,,,0,2.232647595,#f3af84,"[""0"",""-0.25""]",down_orange.png,down,,,,,,,,left,left_blue.png,down_orange.png,down,left,down,612dc934d7875a72579bac3c,2021-09-11_16h52.50.453,arrow_simon_vert,2021.1.2,MacIntel,60.0024001,,,,,,,,,,,,,,,,,,,,,down,1,1.6555,26,TRUE,FALSE,6,1,25,2,1,,,,,,,
,,,,,,0,1.820894782,#a3d0fb,"[""0.25"",""0""]",left_blue.png,left,,,,,,,,left,left_blue.png,down_orange.png,down,right,up,612dc934d7875a72579bac3c,2021-09-11_16h52.50.453,arrow_simon_vert,2021.1.2,MacIntel,60.0024001,,,,,,,,,,,,,,,,,,,,,left,1,1.4175,27,FALSE,FALSE,6,2,26,3,1,,,,,,,
,,,,,,0,1.694550644,#f3af84,"[""0"",""-0.25""]",down_orange.png,down,,,,,,,,left,left_blue.png,down_orange.png,down,left,down,612dc934d7875a72579bac3c,2021-09-11_16h52.50.453,arrow_simon_vert,2021.1.2,MacIntel,60.0024001,,,,,,,,,,,,,,,,,,,,,down,1,1.4877,28,FALSE,FALSE,6,3,27,2,1,,,,,,,
,,,,,,0,2.45810914,#a3d0fb,"[""-0.25"",""0""]",right_blue.png,right,,,,,,,,right,right_blue.png,up_orange.png,up,left,down,612dc934d7875a72579bac3c,2021-09-11_16h52.50.453,arrow_simon_vert,2021.1.2,MacIntel,60.0024001,,,,,,,,,,,,,,,,,,,,,down,0,1.8734,29,TRUE,FALSE,7,0,28,0,1,,,,,,,
,,,,,,0,2.417553772,#f3af84,"[""0"",""0.25""]",up_orange.png,up,,,,,,,,right,right_blue.png,up_orange.png,up,right,up,612dc934d7875a72579bac3c,2021-09-11_16h52.50.453,arrow_simon_vert,2021.1.2,MacIntel,60.0024001,,,,,,,,,,,,,,,,,,,,,up,1,1.7481,30,TRUE,FALSE,7,1,29,1,1,,,,,,,
,,,,,,0,2.390180251,#a3d0fb,"[""-0.25"",""0""]",left_blue.png,left,,,,,,,,left,left_blue.png,down_orange.png,down,left,down,612dc934d7875a72579bac3c,2021-09-11_16h52.50.453,arrow_simon_vert,2021.1.2,MacIntel,60.0024001,,,,,,,,,,,,,,,,,,,,,left,1,1.7661,31,TRUE,FALSE,7,2,30,2,1,,,,,,,
,,,,,,0,1.672307337,#f3af84,"[""0"",""0.25""]",up_orange.png,up,,,,,,,,right,right_blue.png,up_orange.png,up,right,up,612dc934d7875a72579bac3c,2021-09-11_16h52.50.453,arrow_simon_vert,2021.1.2,MacIntel,60.0024001,,,,,,,,,,,,,,,,,,,,,up,1,1.5326,32,FALSE,FALSE,7,3,31,1,1,,,,,,,
,,,,,,0,2.17096691,#a3d0fb,"[""-0.25"",""0""]",right_blue.png,right,,,,,,,,right,right_blue.png,up_orange.png,up,left,down,612dc934d7875a72579bac3c,2021-09-11_16h52.50.453,arrow_simon_vert,2021.1.2,MacIntel,60.0024001,,,,,,,,,,,,,,,,,,,,,right,1,1.5847,33,FALSE,FALSE,8,0,32,0,1,,,,,,,
,,,,,,0,1.798897604,#f3af84,"[""0"",""-0.25""]",up_orange.png,up,,,,,,,,right,right_blue.png,up_orange.png,up,left,down,612dc934d7875a72579bac3c,2021-09-11_16h52.50.453,arrow_simon_vert,2021.1.2,MacIntel,60.0024001,,,,,,,,,,,,,,,,,,,,,up,1,1.5322,34,FALSE,FALSE,8,1,33,0,1,,,,,,,
,,,,,,0,1.508457472,#a3d0fb,"[""-0.25"",""0""]",right_blue.png,right,,,,,,,,right,right_blue.png,up_orange.png,up,left,down,612dc934d7875a72579bac3c,2021-09-11_16h52.50.453,arrow_simon_vert,2021.1.2,MacIntel,60.0024001,,,,,,,,,,,,,,,,,,,,,right,1,1.5505,35,FALSE,FALSE,8,2,34,0,1,,,,,,,
,,,,,,0,1.938069102,#f3af84,"[""0"",""0.25""]",down_orange.png,down,,,,,,,,left,left_blue.png,down_orange.png,down,right,up,612dc934d7875a72579bac3c,2021-09-11_16h52.50.453,arrow_simon_vert,2021.1.2,MacIntel,60.0024001,,,,,,,,,,,,,,,,,,,,,down,1,1.6332,36,TRUE,FALSE,8,3,35,3,1,,,,,,,
,,,,,,0,1.704540044,#a3d0fb,"[""0.25"",""0""]",right_blue.png,right,,,,,,,,right,right_blue.png,up_orange.png,up,right,up,612dc934d7875a72579bac3c,2021-09-11_16h52.50.453,arrow_simon_vert,2021.1.2,MacIntel,60.0024001,,,,,,,,,,,,,,,,,,,,,right,1,1.5515,37,FALSE,FALSE,9,0,36,1,1,,,,,,,
,,,,,,0,1.622675204,#f3af84,"[""0"",""0.25""]",down_orange.png,down,,,,,,,,left,left_blue.png,down_orange.png,down,right,up,612dc934d7875a72579bac3c,2021-09-11_16h52.50.453,arrow_simon_vert,2021.1.2,MacIntel,60.0024001,,,,,,,,,,,,,,,,,,,,,down,1,1.535,38,FALSE,FALSE,9,1,37,3,1,,,,,,,
,,,,,,0,1.84273491,#a3d0fb,"[""0.25"",""0""]",left_blue.png,left,,,,,,,,left,left_blue.png,down_orange.png,down,right,up,612dc934d7875a72579bac3c,2021-09-11_16h52.50.453,arrow_simon_vert,2021.1.2,MacIntel,60.0024001,,,,,,,,,,,,,,,,,,,,,left,1,1.5218,39,FALSE,FALSE,9,2,38,3,1,,,,,,,
,,,,,,0,1.512179747,#f3af84,"[""0"",""0.25""]",up_orange.png,up,,,,,,,,right,right_blue.png,up_orange.png,up,right,up,612dc934d7875a72579bac3c,2021-09-11_16h52.50.453,arrow_simon_vert,2021.1.2,MacIntel,60.0024001,,,,,,,,,,,,,,,,,,,,,up,1,1.6191,40,TRUE,FALSE,9,3,39,1,1,,,,,,,
,,,,,,0,1.741155345,#a3d0fb,"[""0.25"",""0""]",right_blue.png,right,,,,,,,,right,right_blue.png,up_orange.png,up,right,up,612dc934d7875a72579bac3c,2021-09-11_16h52.50.453,arrow_simon_vert,2021.1.2,MacIntel,60.0024001,,,,,,,,,,,,,,,,,,,,,right,1,1.5003,41,FALSE,FALSE,10,0,40,1,1,,,,,,,
,,,,,,0,2.228440376,#f3af84,"[""0"",""-0.25""]",down_orange.png,down,,,,,,,,left,left_blue.png,down_orange.png,down,left,down,612dc934d7875a72579bac3c,2021-09-11_16h52.50.453,arrow_simon_vert,2021.1.2,MacIntel,60.0024001,,,,,,,,,,,,,,,,,,,,,down,1,1.6978,42,TRUE,FALSE,10,1,41,2,1,,,,,,,
,,,,,,0,2.218603636,#a3d0fb,"[""-0.25"",""0""]",left_blue.png,left,,,,,,,,left,left_blue.png,down_orange.png,down,left,down,612dc934d7875a72579bac3c,2021-09-11_16h52.50.453,arrow_simon_vert,2021.1.2,MacIntel,60.0024001,,,,,,,,,,,,,,,,,,,,,left,1,1.6887,43,TRUE,FALSE,10,2,42,2,1,,,,,,,
,,,,,,0,2.389971735,#f3af84,"[""0"",""0.25""]",down_orange.png,down,,,,,,,,left,left_blue.png,down_orange.png,down,right,up,612dc934d7875a72579bac3c,2021-09-11_16h52.50.453,arrow_simon_vert,2021.1.2,MacIntel,60.0024001,,,,,,,,,,,,,,,,,,,,,up,0,1.6834,44,TRUE,FALSE,10,3,43,3,1,,,,,,,
,,,,,,0,2.173971142,#a3d0fb,"[""0.25"",""0""]",left_blue.png,left,,,,,,,,left,left_blue.png,down_orange.png,down,right,up,612dc934d7875a72579bac3c,2021-09-11_16h52.50.453,arrow_simon_vert,2021.1.2,MacIntel,60.0024001,,,,,,,,,,,,,,,,,,,,,left,1,1.6024,45,TRUE,FALSE,11,0,44,3,1,,,,,,,
,,,,,,0,2.336208179,#f3af84,"[""0"",""-0.25""]",down_orange.png,down,,,,,,,,left,left_blue.png,down_orange.png,down,left,down,612dc934d7875a72579bac3c,2021-09-11_16h52.50.453,arrow_simon_vert,2021.1.2,MacIntel,60.0024001,,,,,,,,,,,,,,,,,,,,,down,1,1.7345,46,TRUE,FALSE,11,1,45,2,1,,,,,,,
,,,,,,0,1.968565236,#a3d0fb,"[""0.25"",""0""]",right_blue.png,right,,,,,,,,right,right_blue.png,up_orange.png,up,right,up,612dc934d7875a72579bac3c,2021-09-11_16h52.50.453,arrow_simon_vert,2021.1.2,MacIntel,60.0024001,,,,,,,,,,,,,,,,,,,,,right,1,1.3674,47,FALSE,TRUE,11,2,46,1,1,,,,,,,
,,,,,,0,2.238721302,#f3af84,"[""0"",""-0.25""]",down_orange.png,down,,,,,,,,left,left_blue.png,down_orange.png,down,left,down,612dc934d7875a72579bac3c,2021-09-11_16h52.50.453,arrow_simon_vert,2021.1.2,MacIntel,60.0024001,,,,,,,,,,,,,,,,,,,,,down,1,1.7305,48,TRUE,FALSE,11,3,47,2,1,,,,,,,
,,,,,,0,1.907640384,#a3d0fb,"[""0.25"",""0""]",right_blue.png,right,,,,,,,,right,right_blue.png,up_orange.png,up,right,up,612dc934d7875a72579bac3c,2021-09-11_16h52.50.453,arrow_simon_vert,2021.1.2,MacIntel,60.0024001,,,,,,,,,,,,,,,,,,,,,right,1,1.7019,49,TRUE,FALSE,12,0,48,1,1,,,,,,,
,,,,,,0,2.024928736,#f3af84,"[""0"",""0.25""]",down_orange.png,down,,,,,,,,left,left_blue.png,down_orange.png,down,right,up,612dc934d7875a72579bac3c,2021-09-11_16h52.50.453,arrow_simon_vert,2021.1.2,MacIntel,60.0024001,,,,,,,,,,,,,,,,,,,,,down,1,1.4837,50,FALSE,FALSE,12,1,49,3,1,,,,,,,
,,,,,,0,1.626460395,#a3d0fb,"[""0.25"",""0""]",right_blue.png,right,,,,,,,,right,right_blue.png,up_orange.png,up,right,up,612dc934d7875a72579bac3c,2021-09-11_16h52.50.453,arrow_simon_vert,2021.1.2,MacIntel,60.0024001,,,,,,,,,,,,,,,,,,,,,right,1,1.5691,51,FALSE,FALSE,12,2,50,1,1,,,,,,,
,,,,,,0,1.515992255,#f3af84,"[""0"",""-0.25""]",up_orange.png,up,,,,,,,,right,right_blue.png,up_orange.png,up,left,down,612dc934d7875a72579bac3c,2021-09-11_16h52.50.453,arrow_simon_vert,2021.1.2,MacIntel,60.0024001,,,,,,,,,,,,,,,,,,,,,up,1,1.5529,52,FALSE,FALSE,12,3,51,0,1,,,,,,,
,,,,,,0,2.159619996,#a3d0fb,"[""0.25"",""0""]",left_blue.png,left,,,,,,,,left,left_blue.png,down_orange.png,down,right,up,612dc934d7875a72579bac3c,2021-09-11_16h52.50.453,arrow_simon_vert,2021.1.2,MacIntel,60.0024001,,,,,,,,,,,,,,,,,,,,,left,1,1.5185,53,FALSE,FALSE,13,0,52,3,1,,,,,,,
,,,,,,1,2.137190175,#f3af84,"[""0"",""-0.25""]",up_orange.png,up,,,,,,,,right,right_blue.png,up_orange.png,up,left,down,612dc934d7875a72579bac3c,2021-09-11_16h52.50.453,arrow_simon_vert,2021.1.2,MacIntel,60.0024001,,,,,,,,,,,,,,,,,,,,,down,0,1.5353,54,FALSE,FALSE,13,1,53,0,1,,,,,,,
,,,,,,1,1.692754973,#a3d0fb,"[""-0.25"",""0""]",right_blue.png,right,,,,,,,,right,right_blue.png,up_orange.png,up,left,down,612dc934d7875a72579bac3c,2021-09-11_16h52.50.453,arrow_simon_vert,2021.1.2,MacIntel,60.0024001,,,,,,,,,,,,,,,,,,,,,right,1,1.0826,55,FALSE,TRUE,13,2,54,0,1,,,,,,,
,,,,,,0,1.9185418,#f3af84,"[""0"",""0.25""]",down_orange.png,down,,,,,,,,left,left_blue.png,down_orange.png,down,right,up,612dc934d7875a72579bac3c,2021-09-11_16h52.50.453,arrow_simon_vert,2021.1.2,MacIntel,60.0024001,,,,,,,,,,,,,,,,,,,,,down,1,1.5536,56,FALSE,FALSE,13,3,55,3,1,,,,,,,
,,,,,,0,2.358145596,#a3d0fb,"[""-0.25"",""0""]",right_blue.png,right,,,,,,,,right,right_blue.png,up_orange.png,up,left,down,612dc934d7875a72579bac3c,2021-09-11_16h52.50.453,arrow_simon_vert,2021.1.2,MacIntel,60.0024001,,,,,,,,,,,,,,,,,,,,,right,1,1.651,57,TRUE,FALSE,14,0,56,0,1,,,,,,,
,,,,,,0,2.125891193,#f3af84,"[""0"",""-0.25""]",up_orange.png,up,,,,,,,,right,right_blue.png,up_orange.png,up,left,down,612dc934d7875a72579bac3c,2021-09-11_16h52.50.453,arrow_simon_vert,2021.1.2,MacIntel,60.0024001,,,,,,,,,,,,,,,,,,,,,up,1,1.5347,58,FALSE,FALSE,14,1,57,0,1,,,,,,,
,,,,,,0,1.779042334,#a3d0fb,"[""-0.25"",""0""]",left_blue.png,left,,,,,,,,left,left_blue.png,down_orange.png,down,left,down,612dc934d7875a72579bac3c,2021-09-11_16h52.50.453,arrow_simon_vert,2021.1.2,MacIntel,60.0024001,,,,,,,,,,,,,,,,,,,,,left,1,1.5496,59,FALSE,FALSE,14,2,58,2,1,,,,,,,
,,,,,,0,2.352152997,#f3af84,"[""0"",""-0.25""]",down_orange.png,down,,,,,,,,left,left_blue.png,down_orange.png,down,left,down,612dc934d7875a72579bac3c,2021-09-11_16h52.50.453,arrow_simon_vert,2021.1.2,MacIntel,60.0024001,,,,,,,,,,,,,,,,,,,,,down,1,1.734,60,TRUE,FALSE,14,3,59,2,1,,,,,,,
,,,,,,,,,,,,,,,,,,,,,,,,,612dc934d7875a72579bac3c,2021-09-11_16h52.50.453,arrow_simon_vert,2021.1.2,MacIntel,60.0024001,,,,,,,,,,,,,,,,,,,,,,,,,,,,,,,,space,12.8691,0,0,0,0,1
,,,,,,0,1.795695982,#a3d0fb,"[""0.25"",""0""]",left_blue.png,left,,,,,,,,left,left_blue.png,down_orange.png,down,right,up,612dc934d7875a72579bac3c,2021-09-11_16h52.50.453,arrow_simon_vert,2021.1.2,MacIntel,60.0024001,,,,,,,,,,,,,,,,,,,,,left,1,1.6148,1,TRUE,FALSE,0,0,0,3,1,,,,,,,
,,,,,,0,2.251262719,#f3af84,"[""0"",""0.25""]",up_orange.png,up,,,,,,,,right,right_blue.png,up_orange.png,up,right,up,612dc934d7875a72579bac3c,2021-09-11_16h52.50.453,arrow_simon_vert,2021.1.2,MacIntel,60.0024001,,,,,,,,,,,,,,,,,,,,,up,1,1.9825,2,TRUE,FALSE,0,1,1,1,1,,,,,,,
,,,,,,0,1.745704727,#a3d0fb,"[""-0.25"",""0""]",right_blue.png,right,,,,,,,,right,right_blue.png,up_orange.png,up,left,down,612dc934d7875a72579bac3c,2021-09-11_16h52.50.453,arrow_simon_vert,2021.1.2,MacIntel,60.0024001,,,,,,,,,,,,,,,,,,,,,right,1,1.4212,3,FALSE,FALSE,0,2,2,0,1,,,,,,,
,,,,,,0,1.635346825,#f3af84,"[""0"",""-0.25""]",up_orange.png,up,,,,,,,,right,right_blue.png,up_orange.png,up,left,down,612dc934d7875a72579bac3c,2021-09-11_16h52.50.453,arrow_simon_vert,2021.1.2,MacIntel,60.0024001,,,,,,,,,,,,,,,,,,,,,up,1,1.2555,4,FALSE,TRUE,0,3,3,0,1,,,,,,,
,,,,,,0,1.69546829,#a3d0fb,"[""0.25"",""0""]",right_blue.png,right,,,,,,,,right,right_blue.png,up_orange.png,up,right,up,612dc934d7875a72579bac3c,2021-09-11_16h52.50.453,arrow_simon_vert,2021.1.2,MacIntel,60.0024001,,,,,,,,,,,,,,,,,,,,,right,1,1.5007,5,FALSE,FALSE,1,0,4,1,1,,,,,,,
,,,,,,0,1.954228707,#f3af84,"[""0"",""-0.25""]",down_orange.png,down,,,,,,,,left,left_blue.png,down_orange.png,down,left,down,612dc934d7875a72579bac3c,2021-09-11_16h52.50.453,arrow_simon_vert,2021.1.2,MacIntel,60.0024001,,,,,,,,,,,,,,,,,,,,,down,1,1.557,6,FALSE,FALSE,1,1,5,2,1,,,,,,,
,,,,,,0,1.940232864,#a3d0fb,"[""-0.25"",""0""]",left_blue.png,left,,,,,,,,left,left_blue.png,down_orange.png,down,left,down,612dc934d7875a72579bac3c,2021-09-11_16h52.50.453,arrow_simon_vert,2021.1.2,MacIntel,60.0024001,,,,,,,,,,,,,,,,,,,,,left,1,1.553,7,FALSE,FALSE,1,2,6,2,1,,,,,,,
,,,,,,0,1.507630373,#f3af84,"[""0"",""0.25""]",down_orange.png,down,,,,,,,,left,left_blue.png,down_orange.png,down,right,up,612dc934d7875a72579bac3c,2021-09-11_16h52.50.453,arrow_simon_vert,2021.1.2,MacIntel,60.0024001,,,,,,,,,,,,,,,,,,,,,down,1,1.5343,8,FALSE,FALSE,1,3,7,3,1,,,,,,,
,,,,,,0,1.861632885,#a3d0fb,"[""0.25"",""0""]",right_blue.png,right,,,,,,,,right,right_blue.png,up_orange.png,up,right,up,612dc934d7875a72579bac3c,2021-09-11_16h52.50.453,arrow_simon_vert,2021.1.2,MacIntel,60.0024001,,,,,,,,,,,,,,,,,,,,,right,1,1.4656,9,FALSE,FALSE,2,0,8,1,1,,,,,,,
,,,,,,0,1.744997328,#f3af84,"[""0"",""-0.25""]",up_orange.png,up,,,,,,,,right,right_blue.png,up_orange.png,up,left,down,612dc934d7875a72579bac3c,2021-09-11_16h52.50.453,arrow_simon_vert,2021.1.2,MacIntel,60.0024001,,,,,,,,,,,,,,,,,,,,,up,1,1.5339,10,FALSE,FALSE,2,1,9,0,1,,,,,,,
,,,,,,0,1.589434534,#a3d0fb,"[""-0.25"",""0""]",right_blue.png,right,,,,,,,,right,right_blue.png,up_orange.png,up,left,down,612dc934d7875a72579bac3c,2021-09-11_16h52.50.453,arrow_simon_vert,2021.1.2,MacIntel,60.0024001,,,,,,,,,,,,,,,,,,,,,right,1,1.4996,11,FALSE,FALSE,2,2,10,0,1,,,,,,,
,,,,,,0,1.805859415,#f3af84,"[""0"",""-0.25""]",down_orange.png,down,,,,,,,,left,left_blue.png,down_orange.png,down,left,down,612dc934d7875a72579bac3c,2021-09-11_16h52.50.453,arrow_simon_vert,2021.1.2,MacIntel,60.0024001,,,,,,,,,,,,,,,,,,,,,down,1,1.6021,12,TRUE,FALSE,2,3,11,2,1,,,,,,,
,,,,,,0,1.515515883,#a3d0fb,"[""-0.25"",""0""]",right_blue.png,right,,,,,,,,right,right_blue.png,up_orange.png,up,left,down,612dc934d7875a72579bac3c,2021-09-11_16h52.50.453,arrow_simon_vert,2021.1.2,MacIntel,60.0024001,,,,,,,,,,,,,,,,,,,,,right,1,1.3861,13,FALSE,TRUE,3,0,12,0,1,,,,,,,
,,,,,,0,1.988678734,#f3af84,"[""0"",""-0.25""]",down_orange.png,down,,,,,,,,left,left_blue.png,down_orange.png,down,left,down,612dc934d7875a72579bac3c,2021-09-11_16h52.50.453,arrow_simon_vert,2021.1.2,MacIntel,60.0024001,,,,,,,,,,,,,,,,,,,,,down,1,1.552,14,FALSE,FALSE,3,1,13,2,1,,,,,,,
,,,,,,0,2.279450279,#a3d0fb,"[""0.25"",""0""]",left_blue.png,left,,,,,,,,left,left_blue.png,down_orange.png,down,right,up,612dc934d7875a72579bac3c,2021-09-11_16h52.50.453,arrow_simon_vert,2021.1.2,MacIntel,60.0024001,,,,,,,,,,,,,,,,,,,,,left,1,1.6151,15,TRUE,FALSE,3,2,14,3,1,,,,,,,
,,,,,,0,1.576858057,#f3af84,"[""0"",""-0.25""]",down_orange.png,down,,,,,,,,left,left_blue.png,down_orange.png,down,left,down,612dc934d7875a72579bac3c,2021-09-11_16h52.50.453,arrow_simon_vert,2021.1.2,MacIntel,60.0024001,,,,,,,,,,,,,,,,,,,,,down,1,1.3724,16,FALSE,TRUE,3,3,15,2,1,,,,,,,
,,,,,,0,2.49083143,#a3d0fb,"[""-0.25"",""0""]",right_blue.png,right,,,,,,,,right,right_blue.png,up_orange.png,up,left,down,612dc934d7875a72579bac3c,2021-09-11_16h52.50.453,arrow_simon_vert,2021.1.2,MacIntel,60.0024001,,,,,,,,,,,,,,,,,,,,,right,1,1.9531,17,TRUE,FALSE,4,0,16,0,1,,,,,,,
,,,,,,0,2.435907686,#f3af84,"[""0"",""-0.25""]",up_orange.png,up,,,,,,,,right,right_blue.png,up_orange.png,up,left,down,612dc934d7875a72579bac3c,2021-09-11_16h52.50.453,arrow_simon_vert,2021.1.2,MacIntel,60.0024001,,,,,,,,,,,,,,,,,,,,,down,0,1.8503,18,TRUE,FALSE,4,1,17,0,1,,,,,,,
,,,,,,0,2.498264998,#a3d0fb,"[""0.25"",""0""]",left_blue.png,left,,,,,,,,left,left_blue.png,down_orange.png,down,right,up,612dc934d7875a72579bac3c,2021-09-11_16h52.50.453,arrow_simon_vert,2021.1.2,MacIntel,60.0024001,,,,,,,,,,,,,,,,,,,,,left,1,1.9663,19,TRUE,FALSE,4,2,18,3,1,,,,,,,
,,,,,,0,2.043848801,#f3af84,"[""0"",""0.25""]",up_orange.png,up,,,,,,,,right,right_blue.png,up_orange.png,up,right,up,612dc934d7875a72579bac3c,2021-09-11_16h52.50.453,arrow_simon_vert,2021.1.2,MacIntel,60.0024001,,,,,,,,,,,,,,,,,,,,,up,1,1.4696,20,FALSE,FALSE,4,3,19,1,1,,,,,,,
,,,,,,0,1.848083917,#a3d0fb,"[""-0.25"",""0""]",right_blue.png,right,,,,,,,,right,right_blue.png,up_orange.png,up,left,down,612dc934d7875a72579bac3c,2021-09-11_16h52.50.453,arrow_simon_vert,2021.1.2,MacIntel,60.0024001,,,,,,,,,,,,,,,,,,,,,right,1,1.3161,21,FALSE,TRUE,5,0,20,0,1,,,,,,,
,,,,,,0,2.472844906,#f3af84,"[""0"",""0.25""]",down_orange.png,down,,,,,,,,left,left_blue.png,down_orange.png,down,right,up,612dc934d7875a72579bac3c,2021-09-11_16h52.50.453,arrow_simon_vert,2021.1.2,MacIntel,60.0024001,,,,,,,,,,,,,,,,,,,,,down,1,1.9211,22,TRUE,FALSE,5,1,21,3,1,,,,,,,
,,,,,,0,2.316763381,#a3d0fb,"[""0.25"",""0""]",right_blue.png,right,,,,,,,,right,right_blue.png,up_orange.png,up,right,up,612dc934d7875a72579bac3c,2021-09-11_16h52.50.453,arrow_simon_vert,2021.1.2,MacIntel,60.0024001,,,,,,,,,,,,,,,,,,,,,right,1,1.6571,23,TRUE,FALSE,5,2,22,1,1,,,,,,,
,,,,,,0,2.09800849,#f3af84,"[""0"",""0.25""]",up_orange.png,up,,,,,,,,right,right_blue.png,up_orange.png,up,right,up,612dc934d7875a72579bac3c,2021-09-11_16h52.50.453,arrow_simon_vert,2021.1.2,MacIntel,60.0024001,,,,,,,,,,,,,,,,,,,,,up,1,1.5193,24,FALSE,FALSE,5,3,23,1,1,,,,,,,
,,,,,,0,1.771445973,#a3d0fb,"[""0.25"",""0""]",right_blue.png,right,,,,,,,,right,right_blue.png,up_orange.png,up,right,up,612dc934d7875a72579bac3c,2021-09-11_16h52.50.453,arrow_simon_vert,2021.1.2,MacIntel,60.0024001,,,,,,,,,,,,,,,,,,,,,right,1,1.5152,25,FALSE,FALSE,6,0,24,1,1,,,,,,,
,,,,,,0,2.372698156,#f3af84,"[""0"",""-0.25""]",down_orange.png,down,,,,,,,,left,left_blue.png,down_orange.png,down,left,down,612dc934d7875a72579bac3c,2021-09-11_16h52.50.453,arrow_simon_vert,2021.1.2,MacIntel,60.0024001,,,,,,,,,,,,,,,,,,,,,down,1,1.7715,26,TRUE,FALSE,6,1,25,2,1,,,,,,,
,,,,,,0,2.350548496,#a3d0fb,"[""-0.25"",""0""]",left_blue.png,left,,,,,,,,left,left_blue.png,down_orange.png,down,left,down,612dc934d7875a72579bac3c,2021-09-11_16h52.50.453,arrow_simon_vert,2021.1.2,MacIntel,60.0024001,,,,,,,,,,,,,,,,,,,,,left,1,1.5171,27,FALSE,FALSE,6,2,26,2,1,,,,,,,
,,,,,,0,2.371826313,#f3af84,"[""0"",""-0.25""]",down_orange.png,down,,,,,,,,left,left_blue.png,down_orange.png,down,left,down,612dc934d7875a72579bac3c,2021-09-11_16h52.50.453,arrow_simon_vert,2021.1.2,MacIntel,60.0024001,,,,,,,,,,,,,,,,,,,,,right,0,1.6369,28,TRUE,FALSE,6,3,27,2,1,,,,,,,
,,,,,,0,2.220095673,#a3d0fb,"[""-0.25"",""0""]",left_blue.png,left,,,,,,,,left,left_blue.png,down_orange.png,down,left,down,612dc934d7875a72579bac3c,2021-09-11_16h52.50.453,arrow_simon_vert,2021.1.2,MacIntel,60.0024001,,,,,,,,,,,,,,,,,,,,,left,1,1.6335,29,TRUE,FALSE,7,0,28,2,1,,,,,,,
,,,,,,1,2.294805396,#f3af84,"[""0"",""-0.25""]",up_orange.png,up,,,,,,,,right,right_blue.png,up_orange.png,up,left,down,612dc934d7875a72579bac3c,2021-09-11_16h52.50.453,arrow_simon_vert,2021.1.2,MacIntel,60.0024001,,,,,,,,,,,,,,,,,,,,,down,0,1.57,30,FALSE,FALSE,7,1,29,0,1,,,,,,,
,,,,,,0,1.847817668,#a3d0fb,"[""-0.25"",""0""]",left_blue.png,left,,,,,,,,left,left_blue.png,down_orange.png,down,left,down,612dc934d7875a72579bac3c,2021-09-11_16h52.50.453,arrow_simon_vert,2021.1.2,MacIntel,60.0024001,,,,,,,,,,,,,,,,,,,,,left,1,1.4008,31,FALSE,FALSE,7,2,30,2,1,,,,,,,
,,,,,,0,2.424766523,#f3af84,"[""0"",""0.25""]",down_orange.png,down,,,,,,,,left,left_blue.png,down_orange.png,down,right,up,612dc934d7875a72579bac3c,2021-09-11_16h52.50.453,arrow_simon_vert,2021.1.2,MacIntel,60.0024001,,,,,,,,,,,,,,,,,,,,,up,0,1.7172,32,TRUE,FALSE,7,3,31,3,1,,,,,,,
,,,,,,0,1.590350747,#a3d0fb,"[""0.25"",""0""]",right_blue.png,right,,,,,,,,right,right_blue.png,up_orange.png,up,right,up,612dc934d7875a72579bac3c,2021-09-11_16h52.50.453,arrow_simon_vert,2021.1.2,MacIntel,60.0024001,,,,,,,,,,,,,,,,,,,,,right,1,1.5199,33,FALSE,FALSE,8,0,32,1,1,,,,,,,
,,,,,,0,1.873754209,#f3af84,"[""0"",""0.25""]",down_orange.png,down,,,,,,,,left,left_blue.png,down_orange.png,down,right,up,612dc934d7875a72579bac3c,2021-09-11_16h52.50.453,arrow_simon_vert,2021.1.2,MacIntel,60.0024001,,,,,,,,,,,,,,,,,,,,,down,1,1.4546,34,FALSE,FALSE,8,1,33,3,1,,,,,,,
,,,,,,0,1.800736092,#a3d0fb,"[""0.25"",""0""]",left_blue.png,left,,,,,,,,left,left_blue.png,down_orange.png,down,right,up,612dc934d7875a72579bac3c,2021-09-11_16h52.50.453,arrow_simon_vert,2021.1.2,MacIntel,60.0024001,,,,,,,,,,,,,,,,,,,,,left,1,1.3991,35,FALSE,TRUE,8,2,34,3,1,,,,,,,
,,,,,,0,1.911129241,#f3af84,"[""0"",""0.25""]",up_orange.png,up,,,,,,,,right,right_blue.png,up_orange.png,up,right,up,612dc934d7875a72579bac3c,2021-09-11_16h52.50.453,arrow_simon_vert,2021.1.2,MacIntel,60.0024001,,,,,,,,,,,,,,,,,,,,,up,1,1.4378,36,FALSE,FALSE,8,3,35,1,1,,,,,,,
,,,,,,0,1.802394158,#a3d0fb,"[""-0.25"",""0""]",right_blue.png,right,,,,,,,,right,right_blue.png,up_orange.png,up,left,down,612dc934d7875a72579bac3c,2021-09-11_16h52.50.453,arrow_simon_vert,2021.1.2,MacIntel,60.0024001,,,,,,,,,,,,,,,,,,,,,right,1,1.5476,37,FALSE,FALSE,9,0,36,0,1,,,,,,,
,,,,,,0,2.252689172,#f3af84,"[""0"",""0.25""]",down_orange.png,down,,,,,,,,left,left_blue.png,down_orange.png,down,right,up,612dc934d7875a72579bac3c,2021-09-11_16h52.50.453,arrow_simon_vert,2021.1.2,MacIntel,60.0024001,,,,,,,,,,,,,,,,,,,,,down,1,1.7375,38,TRUE,FALSE,9,1,37,3,1,,,,,,,
,,,,,,0,2.276072586,#a3d0fb,"[""0.25"",""0""]",left_blue.png,left,,,,,,,,left,left_blue.png,down_orange.png,down,right,up,612dc934d7875a72579bac3c,2021-09-11_16h52.50.453,arrow_simon_vert,2021.1.2,MacIntel,60.0024001,,,,,,,,,,,,,,,,,,,,,left,1,1.6035,39,TRUE,FALSE,9,2,38,3,1,,,,,,,
,,,,,,0,1.634586202,#f3af84,"[""0"",""-0.25""]",up_orange.png,up,,,,,,,,right,right_blue.png,up_orange.png,up,left,down,612dc934d7875a72579bac3c,2021-09-11_16h52.50.453,arrow_simon_vert,2021.1.2,MacIntel,60.0024001,,,,,,,,,,,,,,,,,,,,,up,1,1.4835,40,FALSE,FALSE,9,3,39,0,1,,,,,,,
,,,,,,0,1.824372828,#a3d0fb,"[""-0.25"",""0""]",right_blue.png,right,,,,,,,,right,right_blue.png,up_orange.png,up,left,down,612dc934d7875a72579bac3c,2021-09-11_16h52.50.453,arrow_simon_vert,2021.1.2,MacIntel,60.0024001,,,,,,,,,,,,,,,,,,,,,right,1,1.4814,41,FALSE,FALSE,10,0,40,0,1,,,,,,,
,,,,,,0,2.099435569,#f3af84,"[""0"",""-0.25""]",down_orange.png,down,,,,,,,,left,left_blue.png,down_orange.png,down,left,down,612dc934d7875a72579bac3c,2021-09-11_16h52.50.453,arrow_simon_vert,2021.1.2,MacIntel,60.0024001,,,,,,,,,,,,,,,,,,,,,down,1,1.5201,42,FALSE,FALSE,10,1,41,2,1,,,,,,,
,,,,,,0,1.668722128,#a3d0fb,"[""0.25"",""0""]",right_blue.png,right,,,,,,,,right,right_blue.png,up_orange.png,up,right,up,612dc934d7875a72579bac3c,2021-09-11_16h52.50.453,arrow_simon_vert,2021.1.2,MacIntel,60.0024001,,,,,,,,,,,,,,,,,,,,,right,1,1.5007,43,FALSE,FALSE,10,2,42,1,1,,,,,,,
,,,,,,0,1.763668923,#f3af84,"[""0"",""0.25""]",up_orange.png,up,,,,,,,,right,right_blue.png,up_orange.png,up,right,up,612dc934d7875a72579bac3c,2021-09-11_16h52.50.453,arrow_simon_vert,2021.1.2,MacIntel,60.0024001,,,,,,,,,,,,,,,,,,,,,up,1,1.5188,44,FALSE,FALSE,10,3,43,1,1,,,,,,,
,,,,,,0,1.852103063,#a3d0fb,"[""-0.25"",""0""]",left_blue.png,left,,,,,,,,left,left_blue.png,down_orange.png,down,left,down,612dc934d7875a72579bac3c,2021-09-11_16h52.50.453,arrow_simon_vert,2021.1.2,MacIntel,60.0024001,,,,,,,,,,,,,,,,,,,,,left,1,1.4899,45,FALSE,FALSE,11,0,44,2,1,,,,,,,
,,,,,,0,2.021697803,#f3af84,"[""0"",""0.25""]",up_orange.png,up,,,,,,,,right,right_blue.png,up_orange.png,up,right,up,612dc934d7875a72579bac3c,2021-09-11_16h52.50.453,arrow_simon_vert,2021.1.2,MacIntel,60.0024001,,,,,,,,,,,,,,,,,,,,,up,1,1.6224,46,TRUE,FALSE,11,1,45,1,1,,,,,,,
,,,,,,0,2.437180834,#a3d0fb,"[""-0.25"",""0""]",left_blue.png,left,,,,,,,,left,left_blue.png,down_orange.png,down,left,down,612dc934d7875a72579bac3c,2021-09-11_16h52.50.453,arrow_simon_vert,2021.1.2,MacIntel,60.0024001,,,,,,,,,,,,,,,,,,,,,left,1,1.7375,47,TRUE,FALSE,11,2,46,2,1,,,,,,,
,,,,,,0,1.954664803,#f3af84,"[""0"",""0.25""]",down_orange.png,down,,,,,,,,left,left_blue.png,down_orange.png,down,right,up,612dc934d7875a72579bac3c,2021-09-11_16h52.50.453,arrow_simon_vert,2021.1.2,MacIntel,60.0024001,,,,,,,,,,,,,,,,,,,,,up,0,1.3703,48,FALSE,TRUE,11,3,47,3,1,,,,,,,
,,,,,,0,2.406041306,#a3d0fb,"[""-0.25"",""0""]",left_blue.png,left,,,,,,,,left,left_blue.png,down_orange.png,down,left,down,612dc934d7875a72579bac3c,2021-09-11_16h52.50.453,arrow_simon_vert,2021.1.2,MacIntel,60.0024001,,,,,,,,,,,,,,,,,,,,,left,1,1.7998,49,TRUE,FALSE,12,0,48,2,1,,,,,,,
,,,,,,0,1.624396403,#f3af84,"[""0"",""0.25""]",up_orange.png,up,,,,,,,,right,right_blue.png,up_orange.png,up,right,up,612dc934d7875a72579bac3c,2021-09-11_16h52.50.453,arrow_simon_vert,2021.1.2,MacIntel,60.0024001,,,,,,,,,,,,,,,,,,,,,up,1,1.5149,50,FALSE,FALSE,12,1,49,1,1,,,,,,,
,,,,,,0,1.5660231,#a3d0fb,"[""0.25"",""0""]",left_blue.png,left,,,,,,,,left,left_blue.png,down_orange.png,down,right,up,612dc934d7875a72579bac3c,2021-09-11_16h52.50.453,arrow_simon_vert,2021.1.2,MacIntel,60.0024001,,,,,,,,,,,,,,,,,,,,,left,1,1.5152,51,FALSE,FALSE,12,2,50,3,1,,,,,,,
,,,,,,0,2.351710857,#f3af84,"[""0"",""-0.25""]",up_orange.png,up,,,,,,,,right,right_blue.png,up_orange.png,up,left,down,612dc934d7875a72579bac3c,2021-09-11_16h52.50.453,arrow_simon_vert,2021.1.2,MacIntel,60.0024001,,,,,,,,,,,,,,,,,,,,,up,1,1.7849,52,TRUE,FALSE,12,3,51,0,1,,,,,,,
,,,,,,0,2.150744395,#a3d0fb,"[""0.25"",""0""]",right_blue.png,right,,,,,,,,right,right_blue.png,up_orange.png,up,right,up,612dc934d7875a72579bac3c,2021-09-11_16h52.50.453,arrow_simon_vert,2021.1.2,MacIntel,60.0024001,,,,,,,,,,,,,,,,,,,,,right,1,1.4863,53,FALSE,FALSE,13,0,52,1,1,,,,,,,
,,,,,,0,1.940595272,#f3af84,"[""0"",""-0.25""]",up_orange.png,up,,,,,,,,right,right_blue.png,up_orange.png,up,left,down,612dc934d7875a72579bac3c,2021-09-11_16h52.50.453,arrow_simon_vert,2021.1.2,MacIntel,60.0024001,,,,,,,,,,,,,,,,,,,,,up,1,1.4477,54,FALSE,FALSE,13,1,53,0,1,,,,,,,
,,,,,,0,2.316315055,#a3d0fb,"[""0.25"",""0""]",left_blue.png,left,,,,,,,,left,left_blue.png,down_orange.png,down,right,up,612dc934d7875a72579bac3c,2021-09-11_16h52.50.453,arrow_simon_vert,2021.1.2,MacIntel,60.0024001,,,,,,,,,,,,,,,,,,,,,left,1,1.7304,55,TRUE,FALSE,13,2,54,3,1,,,,,,,
,,,,,,0,2.296127484,#f3af84,"[""0"",""-0.25""]",down_orange.png,down,,,,,,,,left,left_blue.png,down_orange.png,down,left,down,612dc934d7875a72579bac3c,2021-09-11_16h52.50.453,arrow_simon_vert,2021.1.2,MacIntel,60.0024001,,,,,,,,,,,,,,,,,,,,,down,1,1.7166,56,TRUE,FALSE,13,3,55,2,1,,,,,,,
,,,,,,0,2.422863681,#a3d0fb,"[""0.25"",""0""]",left_blue.png,left,,,,,,,,left,left_blue.png,down_orange.png,down,right,up,612dc934d7875a72579bac3c,2021-09-11_16h52.50.453,arrow_simon_vert,2021.1.2,MacIntel,60.0024001,,,,,,,,,,,,,,,,,,,,,left,1,1.8409,57,TRUE,FALSE,14,0,56,3,1,,,,,,,
,,,,,,0,2.052388546,#f3af84,"[""0"",""-0.25""]",up_orange.png,up,,,,,,,,right,right_blue.png,up_orange.png,up,left,down,612dc934d7875a72579bac3c,2021-09-11_16h52.50.453,arrow_simon_vert,2021.1.2,MacIntel,60.0024001,,,,,,,,,,,,,,,,,,,,,up,1,1.4846,58,FALSE,FALSE,14,1,57,0,1,,,,,,,
,,,,,,0,1.810297134,#a3d0fb,"[""0.25"",""0""]",right_blue.png,right,,,,,,,,right,right_blue.png,up_orange.png,up,right,up,612dc934d7875a72579bac3c,2021-09-11_16h52.50.453,arrow_simon_vert,2021.1.2,MacIntel,60.0024001,,,,,,,,,,,,,,,,,,,,,right,1,1.2559,59,FALSE,TRUE,14,2,58,1,1,,,,,,,
,,,,,,0,1.976048033,#f3af84,"[""0"",""0.25""]",down_orange.png,down,,,,,,,,left,left_blue.png,down_orange.png,down,right,up,612dc934d7875a72579bac3c,2021-09-11_16h52.50.453,arrow_simon_vert,2021.1.2,MacIntel,60.0024001,,,,,,,,,,,,,,,,,,,,,down,1,1.4506,60,FALSE,FALSE,14,3,59,3,1,,,,,,,
,,,,,,,,,,,,,,,,,,,,,,,,,612dc934d7875a72579bac3c,2021-09-11_16h52.50.453,arrow_simon_vert,2021.1.2,MacIntel,60.0024001,,,,,,,,,,,,,,,,,,,,,,,,,,,,,,,,space,247.2478,1,0,1,0,1
,,,,,,0,1.923176819,#a3d0fb,"[""-0.25"",""0""]",right_blue.png,right,,,,,,,,right,right_blue.png,up_orange.png,up,left,down,612dc934d7875a72579bac3c,2021-09-11_16h52.50.453,arrow_simon_vert,2021.1.2,MacIntel,60.0024001,,,,,,,,,,,,,,,,,,,,,right,1,1.3536,1,FALSE,TRUE,0,0,0,0,1,,,,,,,
,,,,,,0,1.68767425,#f3af84,"[""0"",""-0.25""]",down_orange.png,down,,,,,,,,left,left_blue.png,down_orange.png,down,left,down,612dc934d7875a72579bac3c,2021-09-11_16h52.50.453,arrow_simon_vert,2021.1.2,MacIntel,60.0024001,,,,,,,,,,,,,,,,,,,,,down,1,1.6248,2,TRUE,FALSE,0,1,1,2,1,,,,,,,
,,,,,,0,2.122373496,#a3d0fb,"[""-0.25"",""0""]",left_blue.png,left,,,,,,,,left,left_blue.png,down_orange.png,down,left,down,612dc934d7875a72579bac3c,2021-09-11_16h52.50.453,arrow_simon_vert,2021.1.2,MacIntel,60.0024001,,,,,,,,,,,,,,,,,,,,,left,1,1.6012,3,TRUE,FALSE,0,2,2,2,1,,,,,,,
,,,,,,0,2.349009651,#f3af84,"[""0"",""0.25""]",up_orange.png,up,,,,,,,,right,right_blue.png,up_orange.png,up,right,up,612dc934d7875a72579bac3c,2021-09-11_16h52.50.453,arrow_simon_vert,2021.1.2,MacIntel,60.0024001,,,,,,,,,,,,,,,,,,,,,up,1,1.6546,4,TRUE,FALSE,0,3,3,1,1,,,,,,,
,,,,,,0,2.410737414,#a3d0fb,"[""0.25"",""0""]",right_blue.png,right,,,,,,,,right,right_blue.png,up_orange.png,up,right,up,612dc934d7875a72579bac3c,2021-09-11_16h52.50.453,arrow_simon_vert,2021.1.2,MacIntel,60.0024001,,,,,,,,,,,,,,,,,,,,,right,1,1.5874,5,FALSE,FALSE,1,0,4,1,1,,,,,,,
,,,,,,1,2.132150194,#f3af84,"[""0"",""0.25""]",down_orange.png,down,,,,,,,,left,left_blue.png,down_orange.png,down,right,up,612dc934d7875a72579bac3c,2021-09-11_16h52.50.453,arrow_simon_vert,2021.1.2,MacIntel,60.0024001,,,,,,,,,,,,,,,,,,,,,up,0,1.4499,6,FALSE,FALSE,1,1,5,3,1,,,,,,,
,,,,,,1,2.204363456,#a3d0fb,"[""-0.25"",""0""]",right_blue.png,right,,,,,,,,right,right_blue.png,up_orange.png,up,left,down,612dc934d7875a72579bac3c,2021-09-11_16h52.50.453,arrow_simon_vert,2021.1.2,MacIntel,60.0024001,,,,,,,,,,,,,,,,,,,,,right,1,1.6337,7,TRUE,FALSE,1,2,6,0,1,,,,,,,
,,,,,,0,2.012242777,#f3af84,"[""0"",""-0.25""]",up_orange.png,up,,,,,,,,right,right_blue.png,up_orange.png,up,left,down,612dc934d7875a72579bac3c,2021-09-11_16h52.50.453,arrow_simon_vert,2021.1.2,MacIntel,60.0024001,,,,,,,,,,,,,,,,,,,,,up,1,1.4906,8,FALSE,FALSE,1,3,7,0,1,,,,,,,
,,,,,,0,1.760302895,#a3d0fb,"[""0.25"",""0""]",left_blue.png,left,,,,,,,,left,left_blue.png,down_orange.png,down,right,up,612dc934d7875a72579bac3c,2021-09-11_16h52.50.453,arrow_simon_vert,2021.1.2,MacIntel,60.0024001,,,,,,,,,,,,,,,,,,,,,left,1,1.3163,9,FALSE,TRUE,2,0,8,3,1,,,,,,,
,,,,,,0,2.147125806,#f3af84,"[""0"",""0.25""]",up_orange.png,up,,,,,,,,right,right_blue.png,up_orange.png,up,right,up,612dc934d7875a72579bac3c,2021-09-11_16h52.50.453,arrow_simon_vert,2021.1.2,MacIntel,60.0024001,,,,,,,,,,,,,,,,,,,,,up,1,1.4847,10,FALSE,FALSE,2,1,9,1,1,,,,,,,
,,,,,,0,1.825317101,#a3d0fb,"[""0.25"",""0""]",left_blue.png,left,,,,,,,,left,left_blue.png,down_orange.png,down,right,up,612dc934d7875a72579bac3c,2021-09-11_16h52.50.453,arrow_simon_vert,2021.1.2,MacIntel,60.0024001,,,,,,,,,,,,,,,,,,,,,left,1,1.5472,11,FALSE,FALSE,2,2,10,3,1,,,,,,,
,,,,,,0,2.128688626,#f3af84,"[""0"",""0.25""]",down_orange.png,down,,,,,,,,left,left_blue.png,down_orange.png,down,right,up,612dc934d7875a72579bac3c,2021-09-11_16h52.50.453,arrow_simon_vert,2021.1.2,MacIntel,60.0024001,,,,,,,,,,,,,,,,,,,,,down,1,1.5355,12,FALSE,FALSE,2,3,11,3,1,,,,,,,
,,,,,,0,2.386894604,#a3d0fb,"[""-0.25"",""0""]",right_blue.png,right,,,,,,,,right,right_blue.png,up_orange.png,up,left,down,612dc934d7875a72579bac3c,2021-09-11_16h52.50.453,arrow_simon_vert,2021.1.2,MacIntel,60.0024001,,,,,,,,,,,,,,,,,,,,,left,0,1.7147,13,TRUE,FALSE,3,0,12,0,1,,,,,,,
,,,,,,0,2.49976001,#f3af84,"[""0"",""-0.25""]",down_orange.png,down,,,,,,,,left,left_blue.png,down_orange.png,down,left,down,612dc934d7875a72579bac3c,2021-09-11_16h52.50.453,arrow_simon_vert,2021.1.2,MacIntel,60.0024001,,,,,,,,,,,,,,,,,,,,,left,0,1.9199,14,TRUE,FALSE,3,1,13,2,1,,,,,,,
,,,,,,0,1.810509146,#a3d0fb,"[""-0.25"",""0""]",right_blue.png,right,,,,,,,,right,right_blue.png,up_orange.png,up,left,down,612dc934d7875a72579bac3c,2021-09-11_16h52.50.453,arrow_simon_vert,2021.1.2,MacIntel,60.0024001,,,,,,,,,,,,,,,,,,,,,right,1,1.7498,15,TRUE,FALSE,3,2,14,0,1,,,,,,,
,,,,,,0,1.902853434,#f3af84,"[""0"",""-0.25""]",down_orange.png,down,,,,,,,,left,left_blue.png,down_orange.png,down,left,down,612dc934d7875a72579bac3c,2021-09-11_16h52.50.453,arrow_simon_vert,2021.1.2,MacIntel,60.0024001,,,,,,,,,,,,,,,,,,,,,down,1,1.2841,16,FALSE,TRUE,3,3,15,2,1,,,,,,,
,,,,,,0,1.794714576,#a3d0fb,"[""0.25"",""0""]",left_blue.png,left,,,,,,,,left,left_blue.png,down_orange.png,down,right,up,612dc934d7875a72579bac3c,2021-09-11_16h52.50.453,arrow_simon_vert,2021.1.2,MacIntel,60.0024001,,,,,,,,,,,,,,,,,,,,,left,1,1.5666,17,FALSE,FALSE,4,0,16,3,1,,,,,,,
,,,,,,0,1.61569646,#f3af84,"[""0"",""0.25""]",up_orange.png,up,,,,,,,,right,right_blue.png,up_orange.png,up,right,up,612dc934d7875a72579bac3c,2021-09-11_16h52.50.453,arrow_simon_vert,2021.1.2,MacIntel,60.0024001,,,,,,,,,,,,,,,,,,,,,up,1,1.5167,18,FALSE,FALSE,4,1,17,1,1,,,,,,,
,,,,,,1,2.332665383,#a3d0fb,"[""-0.25"",""0""]",left_blue.png,left,,,,,,,,left,left_blue.png,down_orange.png,down,left,down,612dc934d7875a72579bac3c,2021-09-11_16h52.50.453,arrow_simon_vert,2021.1.2,MacIntel,60.0024001,,,,,,,,,,,,,,,,,,,,,right,0,1.5809,19,FALSE,FALSE,4,2,18,2,1,,,,,,,
,,,,,,1,2.340922174,#f3af84,"[""0"",""-0.25""]",down_orange.png,down,,,,,,,,left,left_blue.png,down_orange.png,down,left,down,612dc934d7875a72579bac3c,2021-09-11_16h52.50.453,arrow_simon_vert,2021.1.2,MacIntel,60.0024001,,,,,,,,,,,,,,,,,,,,,down,1,1.7008,20,TRUE,FALSE,4,3,19,2,1,,,,,,,
,,,,,,1,2.067593745,#a3d0fb,"[""-0.25"",""0""]",left_blue.png,left,,,,,,,,left,left_blue.png,down_orange.png,down,left,down,612dc934d7875a72579bac3c,2021-09-11_16h52.50.453,arrow_simon_vert,2021.1.2,MacIntel,60.0024001,,,,,,,,,,,,,,,,,,,,,left,1,1.6521,21,TRUE,FALSE,5,0,20,2,1,,,,,,,
,,,,,,0,1.621686335,#f3af84,"[""0"",""-0.25""]",up_orange.png,up,,,,,,,,right,right_blue.png,up_orange.png,up,left,down,612dc934d7875a72579bac3c,2021-09-11_16h52.50.453,arrow_simon_vert,2021.1.2,MacIntel,60.0024001,,,,,,,,,,,,,,,,,,,,,up,1,1.5048,22,FALSE,FALSE,5,1,21,0,1,,,,,,,
,,,,,,0,2.043597752,#a3d0fb,"[""-0.25"",""0""]",left_blue.png,left,,,,,,,,left,left_blue.png,down_orange.png,down,left,down,612dc934d7875a72579bac3c,2021-09-11_16h52.50.453,arrow_simon_vert,2021.1.2,MacIntel,60.0024001,,,,,,,,,,,,,,,,,,,,,left,1,1.5036,23,FALSE,FALSE,5,2,22,2,1,,,,,,,
,,,,,,0,1.558138309,#f3af84,"[""0"",""0.25""]",up_orange.png,up,,,,,,,,right,right_blue.png,up_orange.png,up,right,up,612dc934d7875a72579bac3c,2021-09-11_16h52.50.453,arrow_simon_vert,2021.1.2,MacIntel,60.0024001,,,,,,,,,,,,,,,,,,,,,up,1,1.5675,24,FALSE,FALSE,5,3,23,1,1,,,,,,,
,,,,,,0,2.239047782,#a3d0fb,"[""0.25"",""0""]",right_blue.png,right,,,,,,,,right,right_blue.png,up_orange.png,up,right,up,612dc934d7875a72579bac3c,2021-09-11_16h52.50.453,arrow_simon_vert,2021.1.2,MacIntel,60.0024001,,,,,,,,,,,,,,,,,,,,,right,1,1.5517,25,FALSE,FALSE,6,0,24,1,1,,,,,,,
,,,,,,0,1.67338485,#f3af84,"[""0"",""0.25""]",down_orange.png,down,,,,,,,,left,left_blue.png,down_orange.png,down,right,up,612dc934d7875a72579bac3c,2021-09-11_16h52.50.453,arrow_simon_vert,2021.1.2,MacIntel,60.0024001,,,,,,,,,,,,,,,,,,,,,down,1,1.5682,26,FALSE,FALSE,6,1,25,3,1,,,,,,,
,,,,,,0,1.578264579,#a3d0fb,"[""0.25"",""0""]",right_blue.png,right,,,,,,,,right,right_blue.png,up_orange.png,up,right,up,612dc934d7875a72579bac3c,2021-09-11_16h52.50.453,arrow_simon_vert,2021.1.2,MacIntel,60.0024001,,,,,,,,,,,,,,,,,,,,,right,1,1.5076,27,FALSE,FALSE,6,2,26,1,1,,,,,,,
,,,,,,0,1.612489998,#f3af84,"[""0"",""0.25""]",down_orange.png,down,,,,,,,,left,left_blue.png,down_orange.png,down,right,up,612dc934d7875a72579bac3c,2021-09-11_16h52.50.453,arrow_simon_vert,2021.1.2,MacIntel,60.0024001,,,,,,,,,,,,,,,,,,,,,down,1,1.5715,28,FALSE,FALSE,6,3,27,3,1,,,,,,,
,,,,,,0,1.56753014,#a3d0fb,"[""-0.25"",""0""]",right_blue.png,right,,,,,,,,right,right_blue.png,up_orange.png,up,left,down,612dc934d7875a72579bac3c,2021-09-11_16h52.50.453,arrow_simon_vert,2021.1.2,MacIntel,60.0024001,,,,,,,,,,,,,,,,,,,,,right,1,1.5334,29,FALSE,FALSE,7,0,28,0,1,,,,,,,
,,,,,,0,2.36123434,#f3af84,"[""0"",""0.25""]",down_orange.png,down,,,,,,,,left,left_blue.png,down_orange.png,down,right,up,612dc934d7875a72579bac3c,2021-09-11_16h52.50.453,arrow_simon_vert,2021.1.2,MacIntel,60.0024001,,,,,,,,,,,,,,,,,,,,,down,1,1.7498,30,TRUE,FALSE,7,1,29,3,1,,,,,,,
,,,,,,1,2.267547837,#a3d0fb,"[""-0.25"",""0""]",right_blue.png,right,,,,,,,,right,right_blue.png,up_orange.png,up,left,down,612dc934d7875a72579bac3c,2021-09-11_16h52.50.453,arrow_simon_vert,2021.1.2,MacIntel,60.0024001,,,,,,,,,,,,,,,,,,,,,left,0,1.5666,31,FALSE,FALSE,7,2,30,0,1,,,,,,,
,,,,,,0,2.033471997,#f3af84,"[""0"",""-0.25""]",down_orange.png,down,,,,,,,,left,left_blue.png,down_orange.png,down,left,down,612dc934d7875a72579bac3c,2021-09-11_16h52.50.453,arrow_simon_vert,2021.1.2,MacIntel,60.0024001,,,,,,,,,,,,,,,,,,,,,down,1,1.4737,32,FALSE,FALSE,7,3,31,2,1,,,,,,,
,,,,,,0,1.911687825,#a3d0fb,"[""-0.25"",""0""]",right_blue.png,right,,,,,,,,right,right_blue.png,up_orange.png,up,left,down,612dc934d7875a72579bac3c,2021-09-11_16h52.50.453,arrow_simon_vert,2021.1.2,MacIntel,60.0024001,,,,,,,,,,,,,,,,,,,,,right,1,1.6864,33,TRUE,FALSE,8,0,32,0,1,,,,,,,
,,,,,,0,2.37269211,#f3af84,"[""0"",""0.25""]",up_orange.png,up,,,,,,,,right,right_blue.png,up_orange.png,up,right,up,612dc934d7875a72579bac3c,2021-09-11_16h52.50.453,arrow_simon_vert,2021.1.2,MacIntel,60.0024001,,,,,,,,,,,,,,,,,,,,,up,1,1.6558,34,TRUE,FALSE,8,1,33,1,1,,,,,,,
,,,,,,0,2.170180669,#a3d0fb,"[""0.25"",""0""]",left_blue.png,left,,,,,,,,left,left_blue.png,down_orange.png,down,right,up,612dc934d7875a72579bac3c,2021-09-11_16h52.50.453,arrow_simon_vert,2021.1.2,MacIntel,60.0024001,,,,,,,,,,,,,,,,,,,,,left,1,1.5037,35,FALSE,FALSE,8,2,34,3,1,,,,,,,
,,,,,,0,1.913914094,#f3af84,"[""0"",""-0.25""]",up_orange.png,up,,,,,,,,right,right_blue.png,up_orange.png,up,left,down,612dc934d7875a72579bac3c,2021-09-11_16h52.50.453,arrow_simon_vert,2021.1.2,MacIntel,60.0024001,,,,,,,,,,,,,,,,,,,,,up,1,1.3312,36,FALSE,TRUE,8,3,35,0,1,,,,,,,
,,,,,,0,1.554631127,#a3d0fb,"[""0.25"",""0""]",left_blue.png,left,,,,,,,,left,left_blue.png,down_orange.png,down,right,up,612dc934d7875a72579bac3c,2021-09-11_16h52.50.453,arrow_simon_vert,2021.1.2,MacIntel,60.0024001,,,,,,,,,,,,,,,,,,,,,left,1,1.5849,37,FALSE,FALSE,9,0,36,3,1,,,,,,,
,,,,,,0,2.456636781,#f3af84,"[""0"",""0.25""]",up_orange.png,up,,,,,,,,right,right_blue.png,up_orange.png,up,right,up,612dc934d7875a72579bac3c,2021-09-11_16h52.50.453,arrow_simon_vert,2021.1.2,MacIntel,60.0024001,,,,,,,,,,,,,,,,,,,,,up,1,1.7496,38,TRUE,FALSE,9,1,37,1,1,,,,,,,
,,,,,,0,1.725929215,#a3d0fb,"[""-0.25"",""0""]",right_blue.png,right,,,,,,,,right,right_blue.png,up_orange.png,up,left,down,612dc934d7875a72579bac3c,2021-09-11_16h52.50.453,arrow_simon_vert,2021.1.2,MacIntel,60.0024001,,,,,,,,,,,,,,,,,,,,,right,1,1.5161,39,FALSE,FALSE,9,2,38,0,1,,,,,,,
,,,,,,0,2.460269334,#f3af84,"[""0"",""0.25""]",up_orange.png,up,,,,,,,,right,right_blue.png,up_orange.png,up,right,up,612dc934d7875a72579bac3c,2021-09-11_16h52.50.453,arrow_simon_vert,2021.1.2,MacIntel,60.0024001,,,,,,,,,,,,,,,,,,,,,up,1,1.7033,40,TRUE,FALSE,9,3,39,1,1,,,,,,,
,,,,,,0,2.136501915,#a3d0fb,"[""0.25"",""0""]",left_blue.png,left,,,,,,,,left,left_blue.png,down_orange.png,down,right,up,612dc934d7875a72579bac3c,2021-09-11_16h52.50.453,arrow_simon_vert,2021.1.2,MacIntel,60.0024001,,,,,,,,,,,,,,,,,,,,,left,1,1.6659,41,TRUE,FALSE,10,0,40,3,1,,,,,,,
,,,,,,0,1.935436906,#f3af84,"[""0"",""0.25""]",up_orange.png,up,,,,,,,,right,right_blue.png,up_orange.png,up,right,up,612dc934d7875a72579bac3c,2021-09-11_16h52.50.453,arrow_simon_vert,2021.1.2,MacIntel,60.0024001,,,,,,,,,,,,,,,,,,,,,up,1,1.535,42,FALSE,FALSE,10,1,41,1,1,,,,,,,
,,,,,,0,1.942533089,#a3d0fb,"[""-0.25"",""0""]",left_blue.png,left,,,,,,,,left,left_blue.png,down_orange.png,down,left,down,612dc934d7875a72579bac3c,2021-09-11_16h52.50.453,arrow_simon_vert,2021.1.2,MacIntel,60.0024001,,,,,,,,,,,,,,,,,,,,,left,1,1.5835,43,FALSE,FALSE,10,2,42,2,1,,,,,,,
,,,,,,0,2.227488243,#f3af84,"[""0"",""-0.25""]",down_orange.png,down,,,,,,,,left,left_blue.png,down_orange.png,down,left,down,612dc934d7875a72579bac3c,2021-09-11_16h52.50.453,arrow_simon_vert,2021.1.2,MacIntel,60.0024001,,,,,,,,,,,,,,,,,,,,,down,1,1.6342,44,TRUE,FALSE,10,3,43,2,1,,,,,,,
,,,,,,0,2.478738735,#a3d0fb,"[""0.25"",""0""]",right_blue.png,right,,,,,,,,right,right_blue.png,up_orange.png,up,right,up,612dc934d7875a72579bac3c,2021-09-11_16h52.50.453,arrow_simon_vert,2021.1.2,MacIntel,60.0024001,,,,,,,,,,,,,,,,,,,,,right,1,1.7198,45,TRUE,FALSE,11,0,44,1,1,,,,,,,
,,,,,,0,2.009394893,#f3af84,"[""0"",""-0.25""]",up_orange.png,up,,,,,,,,right,right_blue.png,up_orange.png,up,left,down,612dc934d7875a72579bac3c,2021-09-11_16h52.50.453,arrow_simon_vert,2021.1.2,MacIntel,60.0024001,,,,,,,,,,,,,,,,,,,,,up,1,1.5656,46,FALSE,FALSE,11,1,45,0,1,,,,,,,
,,,,,,0,1.771406967,#a3d0fb,"[""0.25"",""0""]",right_blue.png,right,,,,,,,,right,right_blue.png,up_orange.png,up,right,up,612dc934d7875a72579bac3c,2021-09-11_16h52.50.453,arrow_simon_vert,2021.1.2,MacIntel,60.0024001,,,,,,,,,,,,,,,,,,,,,right,1,1.5218,47,FALSE,FALSE,11,2,46,1,1,,,,,,,
,,,,,,0,2.146561348,#f3af84,"[""0"",""-0.25""]",down_orange.png,down,,,,,,,,left,left_blue.png,down_orange.png,down,left,down,612dc934d7875a72579bac3c,2021-09-11_16h52.50.453,arrow_simon_vert,2021.1.2,MacIntel,60.0024001,,,,,,,,,,,,,,,,,,,,,down,1,1.5685,48,FALSE,FALSE,11,3,47,2,1,,,,,,,
,,,,,,0,2.454367559,#a3d0fb,"[""0.25"",""0""]",left_blue.png,left,,,,,,,,left,left_blue.png,down_orange.png,down,right,up,612dc934d7875a72579bac3c,2021-09-11_16h52.50.453,arrow_simon_vert,2021.1.2,MacIntel,60.0024001,,,,,,,,,,,,,,,,,,,,,up,0,1.6851,49,TRUE,FALSE,12,0,48,3,1,,,,,,,
,,,,,,0,1.908908963,#f3af84,"[""0"",""-0.25""]",down_orange.png,down,,,,,,,,left,left_blue.png,down_orange.png,down,left,down,612dc934d7875a72579bac3c,2021-09-11_16h52.50.453,arrow_simon_vert,2021.1.2,MacIntel,60.0024001,,,,,,,,,,,,,,,,,,,,,down,1,1.4519,50,FALSE,FALSE,12,1,49,2,1,,,,,,,
,,,,,,0,1.571472704,#a3d0fb,"[""-0.25"",""0""]",right_blue.png,right,,,,,,,,right,right_blue.png,up_orange.png,up,left,down,612dc934d7875a72579bac3c,2021-09-11_16h52.50.453,arrow_simon_vert,2021.1.2,MacIntel,60.0024001,,,,,,,,,,,,,,,,,,,,,right,1,1.5522,51,FALSE,FALSE,12,2,50,0,1,,,,,,,
,,,,,,0,2.035237148,#f3af84,"[""0"",""0.25""]",up_orange.png,up,,,,,,,,right,right_blue.png,up_orange.png,up,right,up,612dc934d7875a72579bac3c,2021-09-11_16h52.50.453,arrow_simon_vert,2021.1.2,MacIntel,60.0024001,,,,,,,,,,,,,,,,,,,,,up,1,1.67,52,TRUE,FALSE,12,3,51,1,1,,,,,,,
,,,,,,0,1.792765166,#a3d0fb,"[""-0.25"",""0""]",right_blue.png,right,,,,,,,,right,right_blue.png,up_orange.png,up,left,down,612dc934d7875a72579bac3c,2021-09-11_16h52.50.453,arrow_simon_vert,2021.1.2,MacIntel,60.0024001,,,,,,,,,,,,,,,,,,,,,right,1,1.5015,53,FALSE,FALSE,13,0,52,0,1,,,,,,,
,,,,,,0,2.132438828,#f3af84,"[""0"",""0.25""]",down_orange.png,down,,,,,,,,left,left_blue.png,down_orange.png,down,right,up,612dc934d7875a72579bac3c,2021-09-11_16h52.50.453,arrow_simon_vert,2021.1.2,MacIntel,60.0024001,,,,,,,,,,,,,,,,,,,,,down,1,1.6351,54,TRUE,FALSE,13,1,53,3,1,,,,,,,
,,,,,,0,1.800868291,#a3d0fb,"[""0.25"",""0""]",left_blue.png,left,,,,,,,,left,left_blue.png,down_orange.png,down,right,up,612dc934d7875a72579bac3c,2021-09-11_16h52.50.453,arrow_simon_vert,2021.1.2,MacIntel,60.0024001,,,,,,,,,,,,,,,,,,,,,left,1,1.5325,55,FALSE,FALSE,13,2,54,3,1,,,,,,,
,,,,,,0,1.639531373,#f3af84,"[""0"",""-0.25""]",up_orange.png,up,,,,,,,,right,right_blue.png,up_orange.png,up,left,down,612dc934d7875a72579bac3c,2021-09-11_16h52.50.453,arrow_simon_vert,2021.1.2,MacIntel,60.0024001,,,,,,,,,,,,,,,,,,,,,up,1,1.3499,56,FALSE,TRUE,13,3,55,0,1,,,,,,,
,,,,,,0,1.67391493,#a3d0fb,"[""0.25"",""0""]",right_blue.png,right,,,,,,,,right,right_blue.png,up_orange.png,up,right,up,612dc934d7875a72579bac3c,2021-09-11_16h52.50.453,arrow_simon_vert,2021.1.2,MacIntel,60.0024001,,,,,,,,,,,,,,,,,,,,,right,1,1.3689,57,FALSE,TRUE,14,0,56,1,1,,,,,,,
,,,,,,0,1.546037018,#f3af84,"[""0"",""-0.25""]",down_orange.png,down,,,,,,,,left,left_blue.png,down_orange.png,down,left,down,612dc934d7875a72579bac3c,2021-09-11_16h52.50.453,arrow_simon_vert,2021.1.2,MacIntel,60.0024001,,,,,,,,,,,,,,,,,,,,,down,1,1.5983,58,FALSE,FALSE,14,1,57,2,1,,,,,,,
,,,,,,0,2.411232255,#a3d0fb,"[""-0.25"",""0""]",left_blue.png,left,,,,,,,,left,left_blue.png,down_orange.png,down,left,down,612dc934d7875a72579bac3c,2021-09-11_16h52.50.453,arrow_simon_vert,2021.1.2,MacIntel,60.0024001,,,,,,,,,,,,,,,,,,,,,right,0,1.6329,59,TRUE,FALSE,14,2,58,2,1,,,,,,,
,,,,,,0,2.060393619,#f3af84,"[""0"",""0.25""]",down_orange.png,down,,,,,,,,left,left_blue.png,down_orange.png,down,right,up,612dc934d7875a72579bac3c,2021-09-11_16h52.50.453,arrow_simon_vert,2021.1.2,MacIntel,60.0024001,,,,,,,,,,,,,,,,,,,,,down,1,1.4689,60,FALSE,FALSE,14,3,59,3,1,,,,,,,
,,,,,,,,,,,,,,,,,,,,,,,,,612dc934d7875a72579bac3c,2021-09-11_16h52.50.453,arrow_simon_vert,2021.1.2,MacIntel,60.0024001,,,,,,,,,,,,,,,,,,,,,,,,,,,,,,,,space,2.3192,2,0,2,0,1
,,,,,,0,2.30202586,#a3d0fb,"[""0.25"",""0""]",right_blue.png,right,,,,,,,,right,right_blue.png,up_orange.png,up,right,up,612dc934d7875a72579bac3c,2021-09-11_16h52.50.453,arrow_simon_vert,2021.1.2,MacIntel,60.0024001,,,,,,,,,,,,,,,,,,,,,right,1,1.617,1,TRUE,FALSE,0,0,0,1,1,,,,,,,
,,,,,,0,1.900746127,#f3af84,"[""0"",""-0.25""]",down_orange.png,down,,,,,,,,left,left_blue.png,down_orange.png,down,left,down,612dc934d7875a72579bac3c,2021-09-11_16h52.50.453,arrow_simon_vert,2021.1.2,MacIntel,60.0024001,,,,,,,,,,,,,,,,,,,,,down,1,1.4656,2,FALSE,FALSE,0,1,1,2,1,,,,,,,
,,,,,,0,1.832897668,#a3d0fb,"[""0.25"",""0""]",right_blue.png,right,,,,,,,,right,right_blue.png,up_orange.png,up,right,up,612dc934d7875a72579bac3c,2021-09-11_16h52.50.453,arrow_simon_vert,2021.1.2,MacIntel,60.0024001,,,,,,,,,,,,,,,,,,,,,right,1,1.4054,3,FALSE,FALSE,0,2,2,1,1,,,,,,,
,,,,,,0,2.37828739,#f3af84,"[""0"",""0.25""]",down_orange.png,down,,,,,,,,left,left_blue.png,down_orange.png,down,right,up,612dc934d7875a72579bac3c,2021-09-11_16h52.50.453,arrow_simon_vert,2021.1.2,MacIntel,60.0024001,,,,,,,,,,,,,,,,,,,,,up,0,1.621,4,TRUE,FALSE,0,3,3,3,1,,,,,,,
,,,,,,0,2.23556679,#a3d0fb,"[""0.25"",""0""]",right_blue.png,right,,,,,,,,right,right_blue.png,up_orange.png,up,right,up,612dc934d7875a72579bac3c,2021-09-11_16h52.50.453,arrow_simon_vert,2021.1.2,MacIntel,60.0024001,,,,,,,,,,,,,,,,,,,,,right,1,1.521,5,FALSE,FALSE,1,0,4,1,1,,,,,,,
,,,,,,0,1.75596393,#f3af84,"[""0"",""-0.25""]",down_orange.png,down,,,,,,,,left,left_blue.png,down_orange.png,down,left,down,612dc934d7875a72579bac3c,2021-09-11_16h52.50.453,arrow_simon_vert,2021.1.2,MacIntel,60.0024001,,,,,,,,,,,,,,,,,,,,,down,1,1.4516,6,FALSE,FALSE,1,1,5,2,1,,,,,,,
,,,,,,0,1.637420788,#a3d0fb,"[""0.25"",""0""]",right_blue.png,right,,,,,,,,right,right_blue.png,up_orange.png,up,right,up,612dc934d7875a72579bac3c,2021-09-11_16h52.50.453,arrow_simon_vert,2021.1.2,MacIntel,60.0024001,,,,,,,,,,,,,,,,,,,,,right,1,1.5413,7,FALSE,FALSE,1,2,6,1,1,,,,,,,
,,,,,,0,1.637390311,#f3af84,"[""0"",""0.25""]",down_orange.png,down,,,,,,,,left,left_blue.png,down_orange.png,down,right,up,612dc934d7875a72579bac3c,2021-09-11_16h52.50.453,arrow_simon_vert,2021.1.2,MacIntel,60.0024001,,,,,,,,,,,,,,,,,,,,,down,1,1.5165,8,FALSE,FALSE,1,3,7,3,1,,,,,,,
,,,,,,0,1.930504984,#a3d0fb,"[""0.25"",""0""]",right_blue.png,right,,,,,,,,right,right_blue.png,up_orange.png,up,right,up,612dc934d7875a72579bac3c,2021-09-11_16h52.50.453,arrow_simon_vert,2021.1.2,MacIntel,60.0024001,,,,,,,,,,,,,,,,,,,,,right,1,1.5154,9,FALSE,FALSE,2,0,8,1,1,,,,,,,
,,,,,,0,2.104485884,#f3af84,"[""0"",""-0.25""]",up_orange.png,up,,,,,,,,right,right_blue.png,up_orange.png,up,left,down,612dc934d7875a72579bac3c,2021-09-11_16h52.50.453,arrow_simon_vert,2021.1.2,MacIntel,60.0024001,,,,,,,,,,,,,,,,,,,,,up,1,1.5215,10,FALSE,FALSE,2,1,9,0,1,,,,,,,
,,,,,,0,1.702686955,#a3d0fb,"[""-0.25"",""0""]",right_blue.png,right,,,,,,,,right,right_blue.png,up_orange.png,up,left,down,612dc934d7875a72579bac3c,2021-09-11_16h52.50.453,arrow_simon_vert,2021.1.2,MacIntel,60.0024001,,,,,,,,,,,,,,,,,,,,,right,1,1.5682,11,FALSE,FALSE,2,2,10,0,1,,,,,,,
,,,,,,0,2.046519651,#f3af84,"[""0"",""-0.25""]",down_orange.png,down,,,,,,,,left,left_blue.png,down_orange.png,down,left,down,612dc934d7875a72579bac3c,2021-09-11_16h52.50.453,arrow_simon_vert,2021.1.2,MacIntel,60.0024001,,,,,,,,,,,,,,,,,,,,,down,1,1.5817,12,FALSE,FALSE,2,3,11,2,1,,,,,,,
