instruct_resp_simon.keys,instruct_resp_simon.corr,instruct_resp_simon.rt,trial_resp_simon.keys,trial_resp_simon.corr,trial_resp_simon.rt,kerr,target_onset,target_color,target_pos,target_file,target_resp,trials_train_simon.thisRepN,trials_train_simon.thisTrialN,trials_train_simon.thisN,trials_train_simon.thisIndex,trials_train_simon.ran,odd_target_pos,even_target_pos,odd_target_resp,odd_target_file,even_target_file,even_target_resp,odd_target_side,even_target_side,participant,date,expName,psychopyVersion,OS,frameRate,train_block_note_resp.keys,train_block_note_resp.rt,blocks_train.thisRepN,blocks_train.thisTrialN,blocks_train.thisN,blocks_train.thisIndex,blocks_train.ran,instruct_resp_timing.keys,instruct_resp_timing.corr,instruct_resp_timing.rt,trial_resp_timing.keys,trial_resp_timing.rt,trials_train_timing.thisRepN,trials_train_timing.thisTrialN,trials_train_timing.thisN,trials_train_timing.thisIndex,trials_train_timing.ran,instruct_resp.keys,instruct_resp.corr,instruct_resp.rt,trial_resp.keys,trial_resp.corr,trial_resp.rt,trial_num,too_slow,too_soon,trials.thisRepN,trials.thisTrialN,trials.thisN,trials.thisIndex,trials.ran,block_note_resp.keys,block_note_resp.rt,blocks.thisRepN,blocks.thisTrialN,blocks.thisN,blocks.thisIndex,blocks.ran
space,0,32.5505,right,1,1.2885,0,0.87590331,#a3d0fb,"[""0.25"",""0""]",right_blue.png,right,0,0,0,1,1,,,right,right_blue.png,up_orange.png,up,right,up,61327318da83edb47b6f9525,2021-09-11_17h32.32.995,arrow_simon_vert,2021.1.2,MacIntel,59.97361161,,,,,,,,,,,,,,,,,,,,,,,,,,,,,,,,,,,,,,
,,,up,1,0.7431,0,0.012452814,#f3af84,"[""0"",""-0.25""]",up_orange.png,up,0,1,1,0,1,,,right,right_blue.png,up_orange.png,up,left,down,61327318da83edb47b6f9525,2021-09-11_17h32.32.995,arrow_simon_vert,2021.1.2,MacIntel,59.97361161,,,,,,,,,,,,,,,,,,,,,,,,,,,,,,,,,,,,,,
,,,right,1,1.0362,0,0.613455519,#a3d0fb,"[""0.25"",""0""]",right_blue.png,right,0,2,2,1,1,,,right,right_blue.png,up_orange.png,up,right,up,61327318da83edb47b6f9525,2021-09-11_17h32.32.995,arrow_simon_vert,2021.1.2,MacIntel,59.97361161,,,,,,,,,,,,,,,,,,,,,,,,,,,,,,,,,,,,,,
,,,down,1,1.1008,0,0.702513776,#f3af84,"[""0"",""-0.25""]",down_orange.png,down,0,3,3,2,1,,,left,left_blue.png,down_orange.png,down,left,down,61327318da83edb47b6f9525,2021-09-11_17h32.32.995,arrow_simon_vert,2021.1.2,MacIntel,59.97361161,,,,,,,,,,,,,,,,,,,,,,,,,,,,,,,,,,,,,,
,,,left,1,1.0522,0,0.757888891,#a3d0fb,"[""-0.25"",""0""]",left_blue.png,left,1,0,4,2,1,,,left,left_blue.png,down_orange.png,down,left,down,61327318da83edb47b6f9525,2021-09-11_17h32.32.995,arrow_simon_vert,2021.1.2,MacIntel,59.97361161,,,,,,,,,,,,,,,,,,,,,,,,,,,,,,,,,,,,,,
,,,up,1,1.5204,0,0.898814096,#f3af84,"[""0"",""-0.25""]",up_orange.png,up,1,1,5,0,1,,,right,right_blue.png,up_orange.png,up,left,down,61327318da83edb47b6f9525,2021-09-11_17h32.32.995,arrow_simon_vert,2021.1.2,MacIntel,59.97361161,,,,,,,,,,,,,,,,,,,,,,,,,,,,,,,,,,,,,,
,,,left,1,0.7198,0,0.17728031,#a3d0fb,"[""0.25"",""0""]",left_blue.png,left,1,2,6,3,1,,,left,left_blue.png,down_orange.png,down,right,up,61327318da83edb47b6f9525,2021-09-11_17h32.32.995,arrow_simon_vert,2021.1.2,MacIntel,59.97361161,,,,,,,,,,,,,,,,,,,,,,,,,,,,,,,,,,,,,,
,,,down,1,0.7688,0,0.218453233,#f3af84,"[""0"",""0.25""]",down_orange.png,down,1,3,7,3,1,,,left,left_blue.png,down_orange.png,down,right,up,61327318da83edb47b6f9525,2021-09-11_17h32.32.995,arrow_simon_vert,2021.1.2,MacIntel,59.97361161,,,,,,,,,,,,,,,,,,,,,,,,,,,,,,,,,,,,,,
,,,right,1,0.78,0,0.24571928,#a3d0fb,"[""-0.25"",""0""]",right_blue.png,right,2,0,8,0,1,,,right,right_blue.png,up_orange.png,up,left,down,61327318da83edb47b6f9525,2021-09-11_17h32.32.995,arrow_simon_vert,2021.1.2,MacIntel,59.97361161,,,,,,,,,,,,,,,,,,,,,,,,,,,,,,,,,,,,,,
,,,up,1,0.7675,0,0.322857227,#f3af84,"[""0"",""-0.25""]",up_orange.png,up,2,1,9,0,1,,,right,right_blue.png,up_orange.png,up,left,down,61327318da83edb47b6f9525,2021-09-11_17h32.32.995,arrow_simon_vert,2021.1.2,MacIntel,59.97361161,,,,,,,,,,,,,,,,,,,,,,,,,,,,,,,,,,,,,,
,,,left,1,1.1697,0,0.677817559,#a3d0fb,"[""-0.25"",""0""]",left_blue.png,left,2,2,10,2,1,,,left,left_blue.png,down_orange.png,down,left,down,61327318da83edb47b6f9525,2021-09-11_17h32.32.995,arrow_simon_vert,2021.1.2,MacIntel,59.97361161,,,,,,,,,,,,,,,,,,,,,,,,,,,,,,,,,,,,,,
,,,down,1,0.8014,0,0.204831664,#f3af84,"[""0"",""-0.25""]",down_orange.png,down,2,3,11,2,1,,,left,left_blue.png,down_orange.png,down,left,down,61327318da83edb47b6f9525,2021-09-11_17h32.32.995,arrow_simon_vert,2021.1.2,MacIntel,59.97361161,,,,,,,,,,,,,,,,,,,,,,,,,,,,,,,,,,,,,,
,,,left,1,0.9825,0,0.549486387,#a3d0fb,"[""0.25"",""0""]",left_blue.png,left,3,0,12,3,1,,,left,left_blue.png,down_orange.png,down,right,up,61327318da83edb47b6f9525,2021-09-11_17h32.32.995,arrow_simon_vert,2021.1.2,MacIntel,59.97361161,,,,,,,,,,,,,,,,,,,,,,,,,,,,,,,,,,,,,,
,,,down,1,0.8105,0,0.295384843,#f3af84,"[""0"",""0.25""]",down_orange.png,down,3,1,13,3,1,,,left,left_blue.png,down_orange.png,down,right,up,61327318da83edb47b6f9525,2021-09-11_17h32.32.995,arrow_simon_vert,2021.1.2,MacIntel,59.97361161,,,,,,,,,,,,,,,,,,,,,,,,,,,,,,,,,,,,,,
,,,left,1,1.469,0,0.959379688,#a3d0fb,"[""-0.25"",""0""]",left_blue.png,left,3,2,14,2,1,,,left,left_blue.png,down_orange.png,down,left,down,61327318da83edb47b6f9525,2021-09-11_17h32.32.995,arrow_simon_vert,2021.1.2,MacIntel,59.97361161,,,,,,,,,,,,,,,,,,,,,,,,,,,,,,,,,,,,,,
,,,down,1,1.3622,0,0.893242717,#f3af84,"[""0"",""-0.25""]",down_orange.png,down,3,3,15,2,1,,,left,left_blue.png,down_orange.png,down,left,down,61327318da83edb47b6f9525,2021-09-11_17h32.32.995,arrow_simon_vert,2021.1.2,MacIntel,59.97361161,,,,,,,,,,,,,,,,,,,,,,,,,,,,,,,,,,,,,,
,,,left,1,1.1689,0,0.709091291,#a3d0fb,"[""0.25"",""0""]",left_blue.png,left,4,0,16,3,1,,,left,left_blue.png,down_orange.png,down,right,up,61327318da83edb47b6f9525,2021-09-11_17h32.32.995,arrow_simon_vert,2021.1.2,MacIntel,59.97361161,,,,,,,,,,,,,,,,,,,,,,,,,,,,,,,,,,,,,,
,,,up,1,0.9006,0,0.298301069,#f3af84,"[""0"",""-0.25""]",up_orange.png,up,4,1,17,0,1,,,right,right_blue.png,up_orange.png,up,left,down,61327318da83edb47b6f9525,2021-09-11_17h32.32.995,arrow_simon_vert,2021.1.2,MacIntel,59.97361161,,,,,,,,,,,,,,,,,,,,,,,,,,,,,,,,,,,,,,
,,,right,1,1.163,0,0.689651419,#a3d0fb,"[""-0.25"",""0""]",right_blue.png,right,4,2,18,0,1,,,right,right_blue.png,up_orange.png,up,left,down,61327318da83edb47b6f9525,2021-09-11_17h32.32.995,arrow_simon_vert,2021.1.2,MacIntel,59.97361161,,,,,,,,,,,,,,,,,,,,,,,,,,,,,,,,,,,,,,
,,,down,1,1.4346,0,0.916180289,#f3af84,"[""0"",""-0.25""]",down_orange.png,down,4,3,19,2,1,,,left,left_blue.png,down_orange.png,down,left,down,61327318da83edb47b6f9525,2021-09-11_17h32.32.995,arrow_simon_vert,2021.1.2,MacIntel,59.97361161,,,,,,,,,,,,,,,,,,,,,,,,,,,,,,,,,,,,,,
,,,right,1,0.6012,0,0.120159494,#a3d0fb,"[""-0.25"",""0""]",right_blue.png,right,5,0,20,0,1,,,right,right_blue.png,up_orange.png,up,left,down,61327318da83edb47b6f9525,2021-09-11_17h32.32.995,arrow_simon_vert,2021.1.2,MacIntel,59.97361161,,,,,,,,,,,,,,,,,,,,,,,,,,,,,,,,,,,,,,
,,,up,1,1.0346,0,0.567364674,#f3af84,"[""0"",""0.25""]",up_orange.png,up,5,1,21,1,1,,,right,right_blue.png,up_orange.png,up,right,up,61327318da83edb47b6f9525,2021-09-11_17h32.32.995,arrow_simon_vert,2021.1.2,MacIntel,59.97361161,,,,,,,,,,,,,,,,,,,,,,,,,,,,,,,,,,,,,,
,,,right,1,1.3695,0,0.93116173,#a3d0fb,"[""0.25"",""0""]",right_blue.png,right,5,2,22,1,1,,,right,right_blue.png,up_orange.png,up,right,up,61327318da83edb47b6f9525,2021-09-11_17h32.32.995,arrow_simon_vert,2021.1.2,MacIntel,59.97361161,,,,,,,,,,,,,,,,,,,,,,,,,,,,,,,,,,,,,,
,,,down,1,0.6349,0,0.107701474,#f3af84,"[""0"",""0.25""]",down_orange.png,down,5,3,23,3,1,,,left,left_blue.png,down_orange.png,down,right,up,61327318da83edb47b6f9525,2021-09-11_17h32.32.995,arrow_simon_vert,2021.1.2,MacIntel,59.97361161,,,,,,,,,,,,,,,,,,,,,,,,,,,,,,,,,,,,,,
,,,left,1,1.3025,0,0.896019233,#a3d0fb,"[""-0.25"",""0""]",left_blue.png,left,6,0,24,2,1,,,left,left_blue.png,down_orange.png,down,left,down,61327318da83edb47b6f9525,2021-09-11_17h32.32.995,arrow_simon_vert,2021.1.2,MacIntel,59.97361161,,,,,,,,,,,,,,,,,,,,,,,,,,,,,,,,,,,,,,
,,,down,1,1.3687,0,0.864519439,#f3af84,"[""0"",""0.25""]",down_orange.png,down,6,1,25,3,1,,,left,left_blue.png,down_orange.png,down,right,up,61327318da83edb47b6f9525,2021-09-11_17h32.32.995,arrow_simon_vert,2021.1.2,MacIntel,59.97361161,,,,,,,,,,,,,,,,,,,,,,,,,,,,,,,,,,,,,,
,,,right,1,1.2678,0,0.861276606,#a3d0fb,"[""0.25"",""0""]",right_blue.png,right,6,2,26,1,1,,,right,right_blue.png,up_orange.png,up,right,up,61327318da83edb47b6f9525,2021-09-11_17h32.32.995,arrow_simon_vert,2021.1.2,MacIntel,59.97361161,,,,,,,,,,,,,,,,,,,,,,,,,,,,,,,,,,,,,,
,,,up,1,0.6004,0,0.117797142,#f3af84,"[""0"",""-0.25""]",up_orange.png,up,6,3,27,0,1,,,right,right_blue.png,up_orange.png,up,left,down,61327318da83edb47b6f9525,2021-09-11_17h32.32.995,arrow_simon_vert,2021.1.2,MacIntel,59.97361161,,,,,,,,,,,,,,,,,,,,,,,,,,,,,,,,,,,,,,
,,,left,1,0.6679,0,0.214848404,#a3d0fb,"[""0.25"",""0""]",left_blue.png,left,7,0,28,3,1,,,left,left_blue.png,down_orange.png,down,right,up,61327318da83edb47b6f9525,2021-09-11_17h32.32.995,arrow_simon_vert,2021.1.2,MacIntel,59.97361161,,,,,,,,,,,,,,,,,,,,,,,,,,,,,,,,,,,,,,
,,,up,1,1.184,0,0.793808354,#f3af84,"[""0"",""0.25""]",up_orange.png,up,7,1,29,1,1,,,right,right_blue.png,up_orange.png,up,right,up,61327318da83edb47b6f9525,2021-09-11_17h32.32.995,arrow_simon_vert,2021.1.2,MacIntel,59.97361161,,,,,,,,,,,,,,,,,,,,,,,,,,,,,,,,,,,,,,
,,,left,1,1.1497,0,0.724825264,#a3d0fb,"[""0.25"",""0""]",left_blue.png,left,7,2,30,3,1,,,left,left_blue.png,down_orange.png,down,right,up,61327318da83edb47b6f9525,2021-09-11_17h32.32.995,arrow_simon_vert,2021.1.2,MacIntel,59.97361161,,,,,,,,,,,,,,,,,,,,,,,,,,,,,,,,,,,,,,
,,,up,1,1.201,0,0.826817493,#f3af84,"[""0"",""0.25""]",up_orange.png,up,7,3,31,1,1,,,right,right_blue.png,up_orange.png,up,right,up,61327318da83edb47b6f9525,2021-09-11_17h32.32.995,arrow_simon_vert,2021.1.2,MacIntel,59.97361161,,,,,,,,,,,,,,,,,,,,,,,,,,,,,,,,,,,,,,
,,,left,1,1.1348,0,0.640907289,#a3d0fb,"[""-0.25"",""0""]",left_blue.png,left,8,0,32,2,1,,,left,left_blue.png,down_orange.png,down,left,down,61327318da83edb47b6f9525,2021-09-11_17h32.32.995,arrow_simon_vert,2021.1.2,MacIntel,59.97361161,,,,,,,,,,,,,,,,,,,,,,,,,,,,,,,,,,,,,,
,,,up,1,0.5851,0,0.011022219,#f3af84,"[""0"",""-0.25""]",up_orange.png,up,8,1,33,0,1,,,right,right_blue.png,up_orange.png,up,left,down,61327318da83edb47b6f9525,2021-09-11_17h32.32.995,arrow_simon_vert,2021.1.2,MacIntel,59.97361161,,,,,,,,,,,,,,,,,,,,,,,,,,,,,,,,,,,,,,
,,,right,1,0.8991,0,0.473949039,#a3d0fb,"[""-0.25"",""0""]",right_blue.png,right,8,2,34,0,1,,,right,right_blue.png,up_orange.png,up,left,down,61327318da83edb47b6f9525,2021-09-11_17h32.32.995,arrow_simon_vert,2021.1.2,MacIntel,59.97361161,,,,,,,,,,,,,,,,,,,,,,,,,,,,,,,,,,,,,,
,,,down,1,1.1023,0,0.541198539,#f3af84,"[""0"",""-0.25""]",down_orange.png,down,8,3,35,2,1,,,left,left_blue.png,down_orange.png,down,left,down,61327318da83edb47b6f9525,2021-09-11_17h32.32.995,arrow_simon_vert,2021.1.2,MacIntel,59.97361161,,,,,,,,,,,,,,,,,,,,,,,,,,,,,,,,,,,,,,
,,,right,1,1.1842,0,0.780470823,#a3d0fb,"[""0.25"",""0""]",right_blue.png,right,9,0,36,1,1,,,right,right_blue.png,up_orange.png,up,right,up,61327318da83edb47b6f9525,2021-09-11_17h32.32.995,arrow_simon_vert,2021.1.2,MacIntel,59.97361161,,,,,,,,,,,,,,,,,,,,,,,,,,,,,,,,,,,,,,
,,,down,1,0.585,0,0.0324091,#f3af84,"[""0"",""0.25""]",down_orange.png,down,9,1,37,3,1,,,left,left_blue.png,down_orange.png,down,right,up,61327318da83edb47b6f9525,2021-09-11_17h32.32.995,arrow_simon_vert,2021.1.2,MacIntel,59.97361161,,,,,,,,,,,,,,,,,,,,,,,,,,,,,,,,,,,,,,
,,,right,1,0.633,0,0.194842565,#a3d0fb,"[""-0.25"",""0""]",right_blue.png,right,9,2,38,0,1,,,right,right_blue.png,up_orange.png,up,left,down,61327318da83edb47b6f9525,2021-09-11_17h32.32.995,arrow_simon_vert,2021.1.2,MacIntel,59.97361161,,,,,,,,,,,,,,,,,,,,,,,,,,,,,,,,,,,,,,
,,,up,1,0.5336,0,0.1215578,#f3af84,"[""0"",""0.25""]",up_orange.png,up,9,3,39,1,1,,,right,right_blue.png,up_orange.png,up,right,up,61327318da83edb47b6f9525,2021-09-11_17h32.32.995,arrow_simon_vert,2021.1.2,MacIntel,59.97361161,,,,,,,,,,,,,,,,,,,,,,,,,,,,,,,,,,,,,,
,,,left,1,0.7331,0,0.343520216,#a3d0fb,"[""0.25"",""0""]",left_blue.png,left,10,0,40,3,1,,,left,left_blue.png,down_orange.png,down,right,up,61327318da83edb47b6f9525,2021-09-11_17h32.32.995,arrow_simon_vert,2021.1.2,MacIntel,59.97361161,,,,,,,,,,,,,,,,,,,,,,,,,,,,,,,,,,,,,,
,,,down,1,0.552,0,0.123336544,#f3af84,"[""0"",""-0.25""]",down_orange.png,down,10,1,41,2,1,,,left,left_blue.png,down_orange.png,down,left,down,61327318da83edb47b6f9525,2021-09-11_17h32.32.995,arrow_simon_vert,2021.1.2,MacIntel,59.97361161,,,,,,,,,,,,,,,,,,,,,,,,,,,,,,,,,,,,,,
,,,left,1,1.2014,0,0.828039408,#a3d0fb,"[""-0.25"",""0""]",left_blue.png,left,10,2,42,2,1,,,left,left_blue.png,down_orange.png,down,left,down,61327318da83edb47b6f9525,2021-09-11_17h32.32.995,arrow_simon_vert,2021.1.2,MacIntel,59.97361161,,,,,,,,,,,,,,,,,,,,,,,,,,,,,,,,,,,,,,
,,,down,1,0.8504,0,0.394168338,#f3af84,"[""0"",""0.25""]",down_orange.png,down,10,3,43,3,1,,,left,left_blue.png,down_orange.png,down,right,up,61327318da83edb47b6f9525,2021-09-11_17h32.32.995,arrow_simon_vert,2021.1.2,MacIntel,59.97361161,,,,,,,,,,,,,,,,,,,,,,,,,,,,,,,,,,,,,,
,,,right,1,0.7642,0,0.344886988,#a3d0fb,"[""-0.25"",""0""]",right_blue.png,right,11,0,44,0,1,,,right,right_blue.png,up_orange.png,up,left,down,61327318da83edb47b6f9525,2021-09-11_17h32.32.995,arrow_simon_vert,2021.1.2,MacIntel,59.97361161,,,,,,,,,,,,,,,,,,,,,,,,,,,,,,,,,,,,,,
,,,up,1,0.9857,0,0.469340538,#f3af84,"[""0"",""0.25""]",up_orange.png,up,11,1,45,1,1,,,right,right_blue.png,up_orange.png,up,right,up,61327318da83edb47b6f9525,2021-09-11_17h32.32.995,arrow_simon_vert,2021.1.2,MacIntel,59.97361161,,,,,,,,,,,,,,,,,,,,,,,,,,,,,,,,,,,,,,
,,,right,1,1.1529,0,0.697048508,#a3d0fb,"[""0.25"",""0""]",right_blue.png,right,11,2,46,1,1,,,right,right_blue.png,up_orange.png,up,right,up,61327318da83edb47b6f9525,2021-09-11_17h32.32.995,arrow_simon_vert,2021.1.2,MacIntel,59.97361161,,,,,,,,,,,,,,,,,,,,,,,,,,,,,,,,,,,,,,
,,,down,1,1.4844,0,0.980651058,#f3af84,"[""0"",""0.25""]",down_orange.png,down,11,3,47,3,1,,,left,left_blue.png,down_orange.png,down,right,up,61327318da83edb47b6f9525,2021-09-11_17h32.32.995,arrow_simon_vert,2021.1.2,MacIntel,59.97361161,,,,,,,,,,,,,,,,,,,,,,,,,,,,,,,,,,,,,,
,,,left,1,0.9349,0,0.436548249,#a3d0fb,"[""0.25"",""0""]",left_blue.png,left,12,0,48,3,1,,,left,left_blue.png,down_orange.png,down,right,up,61327318da83edb47b6f9525,2021-09-11_17h32.32.995,arrow_simon_vert,2021.1.2,MacIntel,59.97361161,,,,,,,,,,,,,,,,,,,,,,,,,,,,,,,,,,,,,,
,,,up,1,0.6677,0,0.112960499,#f3af84,"[""0"",""0.25""]",up_orange.png,up,12,1,49,1,1,,,right,right_blue.png,up_orange.png,up,right,up,61327318da83edb47b6f9525,2021-09-11_17h32.32.995,arrow_simon_vert,2021.1.2,MacIntel,59.97361161,,,,,,,,,,,,,,,,,,,,,,,,,,,,,,,,,,,,,,
,,,left,1,0.7839,0,0.374097207,#a3d0fb,"[""-0.25"",""0""]",left_blue.png,left,12,2,50,2,1,,,left,left_blue.png,down_orange.png,down,left,down,61327318da83edb47b6f9525,2021-09-11_17h32.32.995,arrow_simon_vert,2021.1.2,MacIntel,59.97361161,,,,,,,,,,,,,,,,,,,,,,,,,,,,,,,,,,,,,,
,,,up,1,0.8185,0,0.366664251,#f3af84,"[""0"",""0.25""]",up_orange.png,up,12,3,51,1,1,,,right,right_blue.png,up_orange.png,up,right,up,61327318da83edb47b6f9525,2021-09-11_17h32.32.995,arrow_simon_vert,2021.1.2,MacIntel,59.97361161,,,,,,,,,,,,,,,,,,,,,,,,,,,,,,,,,,,,,,
,,,right,1,1.3353,0,0.871228859,#a3d0fb,"[""-0.25"",""0""]",right_blue.png,right,13,0,52,0,1,,,right,right_blue.png,up_orange.png,up,left,down,61327318da83edb47b6f9525,2021-09-11_17h32.32.995,arrow_simon_vert,2021.1.2,MacIntel,59.97361161,,,,,,,,,,,,,,,,,,,,,,,,,,,,,,,,,,,,,,
,,,down,1,0.584,0,0.033444971,#f3af84,"[""0"",""0.25""]",down_orange.png,down,13,1,53,3,1,,,left,left_blue.png,down_orange.png,down,right,up,61327318da83edb47b6f9525,2021-09-11_17h32.32.995,arrow_simon_vert,2021.1.2,MacIntel,59.97361161,,,,,,,,,,,,,,,,,,,,,,,,,,,,,,,,,,,,,,
,,,right,1,1.0839,0,0.638193743,#a3d0fb,"[""0.25"",""0""]",right_blue.png,right,13,2,54,1,1,,,right,right_blue.png,up_orange.png,up,right,up,61327318da83edb47b6f9525,2021-09-11_17h32.32.995,arrow_simon_vert,2021.1.2,MacIntel,59.97361161,,,,,,,,,,,,,,,,,,,,,,,,,,,,,,,,,,,,,,
,,,down,1,0.7176,0,0.192486628,#f3af84,"[""0"",""-0.25""]",down_orange.png,down,13,3,55,2,1,,,left,left_blue.png,down_orange.png,down,left,down,61327318da83edb47b6f9525,2021-09-11_17h32.32.995,arrow_simon_vert,2021.1.2,MacIntel,59.97361161,,,,,,,,,,,,,,,,,,,,,,,,,,,,,,,,,,,,,,
,,,left,1,1.1796,0,0.583946199,#a3d0fb,"[""-0.25"",""0""]",left_blue.png,left,14,0,56,2,1,,,left,left_blue.png,down_orange.png,down,left,down,61327318da83edb47b6f9525,2021-09-11_17h32.32.995,arrow_simon_vert,2021.1.2,MacIntel,59.97361161,,,,,,,,,,,,,,,,,,,,,,,,,,,,,,,,,,,,,,
,,,up,1,1.0845,0,0.626761269,#f3af84,"[""0"",""-0.25""]",up_orange.png,up,14,1,57,0,1,,,right,right_blue.png,up_orange.png,up,left,down,61327318da83edb47b6f9525,2021-09-11_17h32.32.995,arrow_simon_vert,2021.1.2,MacIntel,59.97361161,,,,,,,,,,,,,,,,,,,,,,,,,,,,,,,,,,,,,,
,,,right,1,1.0852,0,0.652597809,#a3d0fb,"[""0.25"",""0""]",right_blue.png,right,14,2,58,1,1,,,right,right_blue.png,up_orange.png,up,right,up,61327318da83edb47b6f9525,2021-09-11_17h32.32.995,arrow_simon_vert,2021.1.2,MacIntel,59.97361161,,,,,,,,,,,,,,,,,,,,,,,,,,,,,,,,,,,,,,
,,,up,1,1.1017,0,0.64487022,#f3af84,"[""0"",""-0.25""]",up_orange.png,up,14,3,59,0,1,,,right,right_blue.png,up_orange.png,up,left,down,61327318da83edb47b6f9525,2021-09-11_17h32.32.995,arrow_simon_vert,2021.1.2,MacIntel,59.97361161,,,,,,,,,,,,,,,,,,,,,,,,,,,,,,,,,,,,,,
,,,,,,,,,,,,,,,,,,,,,,,,,61327318da83edb47b6f9525,2021-09-11_17h32.32.995,arrow_simon_vert,2021.1.2,MacIntel,59.97361161,space,19.157,0,0,0,0,1,,,,,,,,,,,,,,,,,,,,,,,,,,,,,,,
,,,right,1,1.1174,0,0.583423329,#a3d0fb,"[""-0.25"",""0""]",right_blue.png,right,0,0,0,0,1,,,right,right_blue.png,up_orange.png,up,left,down,61327318da83edb47b6f9525,2021-09-11_17h32.32.995,arrow_simon_vert,2021.1.2,MacIntel,59.97361161,,,,,,,,,,,,,,,,,,,,,,,,,,,,,,,,,,,,,,
,,,down,1,1.2071,0,0.616376814,#f3af84,"[""0"",""0.25""]",down_orange.png,down,0,1,1,3,1,,,left,left_blue.png,down_orange.png,down,right,up,61327318da83edb47b6f9525,2021-09-11_17h32.32.995,arrow_simon_vert,2021.1.2,MacIntel,59.97361161,,,,,,,,,,,,,,,,,,,,,,,,,,,,,,,,,,,,,,
,,,right,1,1.1848,0,0.768211982,#a3d0fb,"[""0.25"",""0""]",right_blue.png,right,0,2,2,1,1,,,right,right_blue.png,up_orange.png,up,right,up,61327318da83edb47b6f9525,2021-09-11_17h32.32.995,arrow_simon_vert,2021.1.2,MacIntel,59.97361161,,,,,,,,,,,,,,,,,,,,,,,,,,,,,,,,,,,,,,
,,,down,1,1.4179,0,0.990559745,#f3af84,"[""0"",""0.25""]",down_orange.png,down,0,3,3,3,1,,,left,left_blue.png,down_orange.png,down,right,up,61327318da83edb47b6f9525,2021-09-11_17h32.32.995,arrow_simon_vert,2021.1.2,MacIntel,59.97361161,,,,,,,,,,,,,,,,,,,,,,,,,,,,,,,,,,,,,,
,,,right,1,0.6346,0,0.200782498,#a3d0fb,"[""0.25"",""0""]",right_blue.png,right,1,0,4,1,1,,,right,right_blue.png,up_orange.png,up,right,up,61327318da83edb47b6f9525,2021-09-11_17h32.32.995,arrow_simon_vert,2021.1.2,MacIntel,59.97361161,,,,,,,,,,,,,,,,,,,,,,,,,,,,,,,,,,,,,,
,,,down,1,1.0136,0,0.590419765,#f3af84,"[""0"",""0.25""]",down_orange.png,down,1,1,5,3,1,,,left,left_blue.png,down_orange.png,down,right,up,61327318da83edb47b6f9525,2021-09-11_17h32.32.995,arrow_simon_vert,2021.1.2,MacIntel,59.97361161,,,,,,,,,,,,,,,,,,,,,,,,,,,,,,,,,,,,,,
,,,left,1,1.3301,0,0.894057524,#a3d0fb,"[""-0.25"",""0""]",left_blue.png,left,1,2,6,2,1,,,left,left_blue.png,down_orange.png,down,left,down,61327318da83edb47b6f9525,2021-09-11_17h32.32.995,arrow_simon_vert,2021.1.2,MacIntel,59.97361161,,,,,,,,,,,,,,,,,,,,,,,,,,,,,,,,,,,,,,
,,,down,1,1.08,0,0.430607104,#f3af84,"[""0"",""-0.25""]",down_orange.png,down,1,3,7,2,1,,,left,left_blue.png,down_orange.png,down,left,down,61327318da83edb47b6f9525,2021-09-11_17h32.32.995,arrow_simon_vert,2021.1.2,MacIntel,59.97361161,,,,,,,,,,,,,,,,,,,,,,,,,,,,,,,,,,,,,,
,,,right,1,0.8366,0,0.310362571,#a3d0fb,"[""-0.25"",""0""]",right_blue.png,right,2,0,8,0,1,,,right,right_blue.png,up_orange.png,up,left,down,61327318da83edb47b6f9525,2021-09-11_17h32.32.995,arrow_simon_vert,2021.1.2,MacIntel,59.97361161,,,,,,,,,,,,,,,,,,,,,,,,,,,,,,,,,,,,,,
,,,up,1,0.6845,0,0.146233474,#f3af84,"[""0"",""-0.25""]",up_orange.png,up,2,1,9,0,1,,,right,right_blue.png,up_orange.png,up,left,down,61327318da83edb47b6f9525,2021-09-11_17h32.32.995,arrow_simon_vert,2021.1.2,MacIntel,59.97361161,,,,,,,,,,,,,,,,,,,,,,,,,,,,,,,,,,,,,,
,,,left,1,1.3016,0,0.819154987,#a3d0fb,"[""0.25"",""0""]",left_blue.png,left,2,2,10,3,1,,,left,left_blue.png,down_orange.png,down,right,up,61327318da83edb47b6f9525,2021-09-11_17h32.32.995,arrow_simon_vert,2021.1.2,MacIntel,59.97361161,,,,,,,,,,,,,,,,,,,,,,,,,,,,,,,,,,,,,,
,,,up,1,0.7173,0,0.240193507,#f3af84,"[""0"",""-0.25""]",up_orange.png,up,2,3,11,0,1,,,right,right_blue.png,up_orange.png,up,left,down,61327318da83edb47b6f9525,2021-09-11_17h32.32.995,arrow_simon_vert,2021.1.2,MacIntel,59.97361161,,,,,,,,,,,,,,,,,,,,,,,,,,,,,,,,,,,,,,
,,,right,1,1.368,0,0.944177572,#a3d0fb,"[""0.25"",""0""]",right_blue.png,right,3,0,12,1,1,,,right,right_blue.png,up_orange.png,up,right,up,61327318da83edb47b6f9525,2021-09-11_17h32.32.995,arrow_simon_vert,2021.1.2,MacIntel,59.97361161,,,,,,,,,,,,,,,,,,,,,,,,,,,,,,,,,,,,,,
,,,down,1,1.285,0,0.750759062,#f3af84,"[""0"",""0.25""]",down_orange.png,down,3,1,13,3,1,,,left,left_blue.png,down_orange.png,down,right,up,61327318da83edb47b6f9525,2021-09-11_17h32.32.995,arrow_simon_vert,2021.1.2,MacIntel,59.97361161,,,,,,,,,,,,,,,,,,,,,,,,,,,,,,,,,,,,,,
,,,left,1,0.9658,0,0.536065592,#a3d0fb,"[""0.25"",""0""]",left_blue.png,left,3,2,14,3,1,,,left,left_blue.png,down_orange.png,down,right,up,61327318da83edb47b6f9525,2021-09-11_17h32.32.995,arrow_simon_vert,2021.1.2,MacIntel,59.97361161,,,,,,,,,,,,,,,,,,,,,,,,,,,,,,,,,,,,,,
,,,up,1,0.5785,0,0.061726759,#f3af84,"[""0"",""-0.25""]",up_orange.png,up,3,3,15,0,1,,,right,right_blue.png,up_orange.png,up,left,down,61327318da83edb47b6f9525,2021-09-11_17h32.32.995,arrow_simon_vert,2021.1.2,MacIntel,59.97361161,,,,,,,,,,,,,,,,,,,,,,,,,,,,,,,,,,,,,,
,,,left,1,1.3514,0,0.854071594,#a3d0fb,"[""-0.25"",""0""]",left_blue.png,left,4,0,16,2,1,,,left,left_blue.png,down_orange.png,down,left,down,61327318da83edb47b6f9525,2021-09-11_17h32.32.995,arrow_simon_vert,2021.1.2,MacIntel,59.97361161,,,,,,,,,,,,,,,,,,,,,,,,,,,,,,,,,,,,,,
,,,up,1,1.5178,0,0.971342584,#f3af84,"[""0"",""-0.25""]",up_orange.png,up,4,1,17,0,1,,,right,right_blue.png,up_orange.png,up,left,down,61327318da83edb47b6f9525,2021-09-11_17h32.32.995,arrow_simon_vert,2021.1.2,MacIntel,59.97361161,,,,,,,,,,,,,,,,,,,,,,,,,,,,,,,,,,,,,,
,,,right,1,0.6032,0,0.084970528,#a3d0fb,"[""-0.25"",""0""]",right_blue.png,right,4,2,18,0,1,,,right,right_blue.png,up_orange.png,up,left,down,61327318da83edb47b6f9525,2021-09-11_17h32.32.995,arrow_simon_vert,2021.1.2,MacIntel,59.97361161,,,,,,,,,,,,,,,,,,,,,,,,,,,,,,,,,,,,,,
,,,down,1,1.2012,0,0.749623172,#f3af84,"[""0"",""-0.25""]",down_orange.png,down,4,3,19,2,1,,,left,left_blue.png,down_orange.png,down,left,down,61327318da83edb47b6f9525,2021-09-11_17h32.32.995,arrow_simon_vert,2021.1.2,MacIntel,59.97361161,,,,,,,,,,,,,,,,,,,,,,,,,,,,,,,,,,,,,,
,,,right,1,0.8341,0,0.429864588,#a3d0fb,"[""0.25"",""0""]",right_blue.png,right,5,0,20,1,1,,,right,right_blue.png,up_orange.png,up,right,up,61327318da83edb47b6f9525,2021-09-11_17h32.32.995,arrow_simon_vert,2021.1.2,MacIntel,59.97361161,,,,,,,,,,,,,,,,,,,,,,,,,,,,,,,,,,,,,,
,,,up,1,0.7347,0,0.299385028,#f3af84,"[""0"",""0.25""]",up_orange.png,up,5,1,21,1,1,,,right,right_blue.png,up_orange.png,up,right,up,61327318da83edb47b6f9525,2021-09-11_17h32.32.995,arrow_simon_vert,2021.1.2,MacIntel,59.97361161,,,,,,,,,,,,,,,,,,,,,,,,,,,,,,,,,,,,,,
,,,right,1,0.768,0,0.315123077,#a3d0fb,"[""0.25"",""0""]",right_blue.png,right,5,2,22,1,1,,,right,right_blue.png,up_orange.png,up,right,up,61327318da83edb47b6f9525,2021-09-11_17h32.32.995,arrow_simon_vert,2021.1.2,MacIntel,59.97361161,,,,,,,,,,,,,,,,,,,,,,,,,,,,,,,,,,,,,,
,,,up,1,1.4188,0,0.975398946,#f3af84,"[""0"",""0.25""]",up_orange.png,up,5,3,23,1,1,,,right,right_blue.png,up_orange.png,up,right,up,61327318da83edb47b6f9525,2021-09-11_17h32.32.995,arrow_simon_vert,2021.1.2,MacIntel,59.97361161,,,,,,,,,,,,,,,,,,,,,,,,,,,,,,,,,,,,,,
,,,left,1,0.9021,0,0.465648721,#a3d0fb,"[""-0.25"",""0""]",left_blue.png,left,6,0,24,2,1,,,left,left_blue.png,down_orange.png,down,left,down,61327318da83edb47b6f9525,2021-09-11_17h32.32.995,arrow_simon_vert,2021.1.2,MacIntel,59.97361161,,,,,,,,,,,,,,,,,,,,,,,,,,,,,,,,,,,,,,
,,,up,1,0.7017,0,0.185746618,#f3af84,"[""0"",""-0.25""]",up_orange.png,up,6,1,25,0,1,,,right,right_blue.png,up_orange.png,up,left,down,61327318da83edb47b6f9525,2021-09-11_17h32.32.995,arrow_simon_vert,2021.1.2,MacIntel,59.97361161,,,,,,,,,,,,,,,,,,,,,,,,,,,,,,,,,,,,,,
,,,right,1,0.9863,0,0.541945602,#a3d0fb,"[""-0.25"",""0""]",right_blue.png,right,6,2,26,0,1,,,right,right_blue.png,up_orange.png,up,left,down,61327318da83edb47b6f9525,2021-09-11_17h32.32.995,arrow_simon_vert,2021.1.2,MacIntel,59.97361161,,,,,,,,,,,,,,,,,,,,,,,,,,,,,,,,,,,,,,
,,,up,1,0.9684,0,0.54702567,#f3af84,"[""0"",""0.25""]",up_orange.png,up,6,3,27,1,1,,,right,right_blue.png,up_orange.png,up,right,up,61327318da83edb47b6f9525,2021-09-11_17h32.32.995,arrow_simon_vert,2021.1.2,MacIntel,59.97361161,,,,,,,,,,,,,,,,,,,,,,,,,,,,,,,,,,,,,,
,,,right,1,0.8015,0,0.381711984,#a3d0fb,"[""0.25"",""0""]",right_blue.png,right,7,0,28,1,1,,,right,right_blue.png,up_orange.png,up,right,up,61327318da83edb47b6f9525,2021-09-11_17h32.32.995,arrow_simon_vert,2021.1.2,MacIntel,59.97361161,,,,,,,,,,,,,,,,,,,,,,,,,,,,,,,,,,,,,,
,,,up,1,0.6343,0,0.139888156,#f3af84,"[""0"",""-0.25""]",up_orange.png,up,7,1,29,0,1,,,right,right_blue.png,up_orange.png,up,left,down,61327318da83edb47b6f9525,2021-09-11_17h32.32.995,arrow_simon_vert,2021.1.2,MacIntel,59.97361161,,,,,,,,,,,,,,,,,,,,,,,,,,,,,,,,,,,,,,
,,,left,1,0.9852,0,0.572177787,#a3d0fb,"[""-0.25"",""0""]",left_blue.png,left,7,2,30,2,1,,,left,left_blue.png,down_orange.png,down,left,down,61327318da83edb47b6f9525,2021-09-11_17h32.32.995,arrow_simon_vert,2021.1.2,MacIntel,59.97361161,,,,,,,,,,,,,,,,,,,,,,,,,,,,,,,,,,,,,,
,,,up,1,1.0517,0,0.568710072,#f3af84,"[""0"",""0.25""]",up_orange.png,up,7,3,31,1,1,,,right,right_blue.png,up_orange.png,up,right,up,61327318da83edb47b6f9525,2021-09-11_17h32.32.995,arrow_simon_vert,2021.1.2,MacIntel,59.97361161,,,,,,,,,,,,,,,,,,,,,,,,,,,,,,,,,,,,,,
,,,right,1,1.3506,0,0.922376576,#a3d0fb,"[""0.25"",""0""]",right_blue.png,right,8,0,32,1,1,,,right,right_blue.png,up_orange.png,up,right,up,61327318da83edb47b6f9525,2021-09-11_17h32.32.995,arrow_simon_vert,2021.1.2,MacIntel,59.97361161,,,,,,,,,,,,,,,,,,,,,,,,,,,,,,,,,,,,,,
,,,up,1,1.234,0,0.728889757,#f3af84,"[""0"",""-0.25""]",up_orange.png,up,8,1,33,0,1,,,right,right_blue.png,up_orange.png,up,left,down,61327318da83edb47b6f9525,2021-09-11_17h32.32.995,arrow_simon_vert,2021.1.2,MacIntel,59.97361161,,,,,,,,,,,,,,,,,,,,,,,,,,,,,,,,,,,,,,
,,,left,1,0.8307,0,0.422139033,#a3d0fb,"[""-0.25"",""0""]",left_blue.png,left,8,2,34,2,1,,,left,left_blue.png,down_orange.png,down,left,down,61327318da83edb47b6f9525,2021-09-11_17h32.32.995,arrow_simon_vert,2021.1.2,MacIntel,59.97361161,,,,,,,,,,,,,,,,,,,,,,,,,,,,,,,,,,,,,,
,,,down,1,1.0851,0,0.499855651,#f3af84,"[""0"",""0.25""]",down_orange.png,down,8,3,35,3,1,,,left,left_blue.png,down_orange.png,down,right,up,61327318da83edb47b6f9525,2021-09-11_17h32.32.995,arrow_simon_vert,2021.1.2,MacIntel,59.97361161,,,,,,,,,,,,,,,,,,,,,,,,,,,,,,,,,,,,,,
,,,left,1,0.6013,0,0.120580053,#a3d0fb,"[""0.25"",""0""]",left_blue.png,left,9,0,36,3,1,,,left,left_blue.png,down_orange.png,down,right,up,61327318da83edb47b6f9525,2021-09-11_17h32.32.995,arrow_simon_vert,2021.1.2,MacIntel,59.97361161,,,,,,,,,,,,,,,,,,,,,,,,,,,,,,,,,,,,,,
,,,down,1,0.9517,0,0.44826838,#f3af84,"[""0"",""0.25""]",down_orange.png,down,9,1,37,3,1,,,left,left_blue.png,down_orange.png,down,right,up,61327318da83edb47b6f9525,2021-09-11_17h32.32.995,arrow_simon_vert,2021.1.2,MacIntel,59.97361161,,,,,,,,,,,,,,,,,,,,,,,,,,,,,,,,,,,,,,
,,,left,1,1.2947,0,0.87216524,#a3d0fb,"[""0.25"",""0""]",left_blue.png,left,9,2,38,3,1,,,left,left_blue.png,down_orange.png,down,right,up,61327318da83edb47b6f9525,2021-09-11_17h32.32.995,arrow_simon_vert,2021.1.2,MacIntel,59.97361161,,,,,,,,,,,,,,,,,,,,,,,,,,,,,,,,,,,,,,
,,,down,1,1.1181,0,0.685608251,#f3af84,"[""0"",""-0.25""]",down_orange.png,down,9,3,39,2,1,,,left,left_blue.png,down_orange.png,down,left,down,61327318da83edb47b6f9525,2021-09-11_17h32.32.995,arrow_simon_vert,2021.1.2,MacIntel,59.97361161,,,,,,,,,,,,,,,,,,,,,,,,,,,,,,,,,,,,,,
,,,left,1,1.2843,0,0.905117176,#a3d0fb,"[""0.25"",""0""]",left_blue.png,left,10,0,40,3,1,,,left,left_blue.png,down_orange.png,down,right,up,61327318da83edb47b6f9525,2021-09-11_17h32.32.995,arrow_simon_vert,2021.1.2,MacIntel,59.97361161,,,,,,,,,,,,,,,,,,,,,,,,,,,,,,,,,,,,,,
,,,up,1,1.0999,0,0.521522781,#f3af84,"[""0"",""0.25""]",up_orange.png,up,10,1,41,1,1,,,right,right_blue.png,up_orange.png,up,right,up,61327318da83edb47b6f9525,2021-09-11_17h32.32.995,arrow_simon_vert,2021.1.2,MacIntel,59.97361161,,,,,,,,,,,,,,,,,,,,,,,,,,,,,,,,,,,,,,
,,,left,1,1.0345,0,0.571006141,#a3d0fb,"[""-0.25"",""0""]",left_blue.png,left,10,2,42,2,1,,,left,left_blue.png,down_orange.png,down,left,down,61327318da83edb47b6f9525,2021-09-11_17h32.32.995,arrow_simon_vert,2021.1.2,MacIntel,59.97361161,,,,,,,,,,,,,,,,,,,,,,,,,,,,,,,,,,,,,,
,,,up,1,0.6606,0,0.150242227,#f3af84,"[""0"",""-0.25""]",up_orange.png,up,10,3,43,0,1,,,right,right_blue.png,up_orange.png,up,left,down,61327318da83edb47b6f9525,2021-09-11_17h32.32.995,arrow_simon_vert,2021.1.2,MacIntel,59.97361161,,,,,,,,,,,,,,,,,,,,,,,,,,,,,,,,,,,,,,
,,,left,1,1.4675,0,0.994625344,#a3d0fb,"[""0.25"",""0""]",left_blue.png,left,11,0,44,3,1,,,left,left_blue.png,down_orange.png,down,right,up,61327318da83edb47b6f9525,2021-09-11_17h32.32.995,arrow_simon_vert,2021.1.2,MacIntel,59.97361161,,,,,,,,,,,,,,,,,,,,,,,,,,,,,,,,,,,,,,
,,,down,1,0.8344,0,0.281331919,#f3af84,"[""0"",""-0.25""]",down_orange.png,down,11,1,45,2,1,,,left,left_blue.png,down_orange.png,down,left,down,61327318da83edb47b6f9525,2021-09-11_17h32.32.995,arrow_simon_vert,2021.1.2,MacIntel,59.97361161,,,,,,,,,,,,,,,,,,,,,,,,,,,,,,,,,,,,,,
,,,left,1,1.0176,0,0.631442384,#a3d0fb,"[""0.25"",""0""]",left_blue.png,left,11,2,46,3,1,,,left,left_blue.png,down_orange.png,down,right,up,61327318da83edb47b6f9525,2021-09-11_17h32.32.995,arrow_simon_vert,2021.1.2,MacIntel,59.97361161,,,,,,,,,,,,,,,,,,,,,,,,,,,,,,,,,,,,,,
,,,down,1,0.8514,0,0.304724435,#f3af84,"[""0"",""-0.25""]",down_orange.png,down,11,3,47,2,1,,,left,left_blue.png,down_orange.png,down,left,down,61327318da83edb47b6f9525,2021-09-11_17h32.32.995,arrow_simon_vert,2021.1.2,MacIntel,59.97361161,,,,,,,,,,,,,,,,,,,,,,,,,,,,,,,,,,,,,,
,,,right,1,1.1185,0,0.618473444,#a3d0fb,"[""0.25"",""0""]",right_blue.png,right,12,0,48,1,1,,,right,right_blue.png,up_orange.png,up,right,up,61327318da83edb47b6f9525,2021-09-11_17h32.32.995,arrow_simon_vert,2021.1.2,MacIntel,59.97361161,,,,,,,,,,,,,,,,,,,,,,,,,,,,,,,,,,,,,,
,,,down,1,0.5675,0,0.107534237,#f3af84,"[""0"",""-0.25""]",down_orange.png,down,12,1,49,2,1,,,left,left_blue.png,down_orange.png,down,left,down,61327318da83edb47b6f9525,2021-09-11_17h32.32.995,arrow_simon_vert,2021.1.2,MacIntel,59.97361161,,,,,,,,,,,,,,,,,,,,,,,,,,,,,,,,,,,,,,
,,,right,1,1.2674,0,0.824380737,#a3d0fb,"[""0.25"",""0""]",right_blue.png,right,12,2,50,1,1,,,right,right_blue.png,up_orange.png,up,right,up,61327318da83edb47b6f9525,2021-09-11_17h32.32.995,arrow_simon_vert,2021.1.2,MacIntel,59.97361161,,,,,,,,,,,,,,,,,,,,,,,,,,,,,,,,,,,,,,
,,,up,1,1.1007,0,0.563080895,#f3af84,"[""0"",""-0.25""]",up_orange.png,up,12,3,51,0,1,,,right,right_blue.png,up_orange.png,up,left,down,61327318da83edb47b6f9525,2021-09-11_17h32.32.995,arrow_simon_vert,2021.1.2,MacIntel,59.97361161,,,,,,,,,,,,,,,,,,,,,,,,,,,,,,,,,,,,,,
,,,left,1,0.6514,0,0.186114276,#a3d0fb,"[""-0.25"",""0""]",left_blue.png,left,13,0,52,2,1,,,left,left_blue.png,down_orange.png,down,left,down,61327318da83edb47b6f9525,2021-09-11_17h32.32.995,arrow_simon_vert,2021.1.2,MacIntel,59.97361161,,,,,,,,,,,,,,,,,,,,,,,,,,,,,,,,,,,,,,
,,,up,1,0.4774,0,0.003347741,#f3af84,"[""0"",""0.25""]",up_orange.png,up,13,1,53,1,1,,,right,right_blue.png,up_orange.png,up,right,up,61327318da83edb47b6f9525,2021-09-11_17h32.32.995,arrow_simon_vert,2021.1.2,MacIntel,59.97361161,,,,,,,,,,,,,,,,,,,,,,,,,,,,,,,,,,,,,,
,,,left,1,1.1852,0,0.768400579,#a3d0fb,"[""-0.25"",""0""]",left_blue.png,left,13,2,54,2,1,,,left,left_blue.png,down_orange.png,down,left,down,61327318da83edb47b6f9525,2021-09-11_17h32.32.995,arrow_simon_vert,2021.1.2,MacIntel,59.97361161,,,,,,,,,,,,,,,,,,,,,,,,,,,,,,,,,,,,,,
,,,up,1,0.9347,0,0.420889236,#f3af84,"[""0"",""-0.25""]",up_orange.png,up,13,3,55,0,1,,,right,right_blue.png,up_orange.png,up,left,down,61327318da83edb47b6f9525,2021-09-11_17h32.32.995,arrow_simon_vert,2021.1.2,MacIntel,59.97361161,,,,,,,,,,,,,,,,,,,,,,,,,,,,,,,,,,,,,,
,,,left,1,0.6686,0,0.086242904,#a3d0fb,"[""-0.25"",""0""]",left_blue.png,left,14,0,56,2,1,,,left,left_blue.png,down_orange.png,down,left,down,61327318da83edb47b6f9525,2021-09-11_17h32.32.995,arrow_simon_vert,2021.1.2,MacIntel,59.97361161,,,,,,,,,,,,,,,,,,,,,,,,,,,,,,,,,,,,,,
,,,down,1,1.1847,0,0.665966824,#f3af84,"[""0"",""0.25""]",down_orange.png,down,14,1,57,3,1,,,left,left_blue.png,down_orange.png,down,right,up,61327318da83edb47b6f9525,2021-09-11_17h32.32.995,arrow_simon_vert,2021.1.2,MacIntel,59.97361161,,,,,,,,,,,,,,,,,,,,,,,,,,,,,,,,,,,,,,
,,,right,1,0.8343,0,0.377139319,#a3d0fb,"[""-0.25"",""0""]",right_blue.png,right,14,2,58,0,1,,,right,right_blue.png,up_orange.png,up,left,down,61327318da83edb47b6f9525,2021-09-11_17h32.32.995,arrow_simon_vert,2021.1.2,MacIntel,59.97361161,,,,,,,,,,,,,,,,,,,,,,,,,,,,,,,,,,,,,,
,,,down,1,1.0512,0,0.496515866,#f3af84,"[""0"",""0.25""]",down_orange.png,down,14,3,59,3,1,,,left,left_blue.png,down_orange.png,down,right,up,61327318da83edb47b6f9525,2021-09-11_17h32.32.995,arrow_simon_vert,2021.1.2,MacIntel,59.97361161,,,,,,,,,,,,,,,,,,,,,,,,,,,,,,,,,,,,,,
,,,,,,,,,,,,,,,,,,,,,,,,,61327318da83edb47b6f9525,2021-09-11_17h32.32.995,arrow_simon_vert,2021.1.2,MacIntel,59.97361161,space,3.8972,1,0,1,0,1,,,,,,,,,,,,,,,,,,,,,,,,,,,,,,,
,,,,,,,,,,,,,,,,,,,,,,,,,61327318da83edb47b6f9525,2021-09-11_17h32.32.995,arrow_simon_vert,2021.1.2,MacIntel,59.97361161,,,,,,,,space,0,40.9258,up,3.9857,0,0,0,0,1,,,,,,,,,,,,,,,,,,,,,
,,,,,,,,,,,,,,,,,,,,,,,,,61327318da83edb47b6f9525,2021-09-11_17h32.32.995,arrow_simon_vert,2021.1.2,MacIntel,59.97361161,,,,,,,,,,,up,2.9666,1,0,1,0,1,,,,,,,,,,,,,,,,,,,,,
,,,,,,,,,,,,,,,,,,,,,,,,,61327318da83edb47b6f9525,2021-09-11_17h32.32.995,arrow_simon_vert,2021.1.2,MacIntel,59.97361161,,,,,,,,,,,right,2.3281,2,0,2,0,1,,,,,,,,,,,,,,,,,,,,,
,,,,,,,,,,,,,,,,,,,,,,,,,61327318da83edb47b6f9525,2021-09-11_17h32.32.995,arrow_simon_vert,2021.1.2,MacIntel,59.97361161,,,,,,,,,,,down,2.4307,3,0,3,0,1,,,,,,,,,,,,,,,,,,,,,
,,,,,,,,,,,,,,,,,,,,,,,,,61327318da83edb47b6f9525,2021-09-11_17h32.32.995,arrow_simon_vert,2021.1.2,MacIntel,59.97361161,,,,,,,,,,,right,2.52,4,0,4,0,1,,,,,,,,,,,,,,,,,,,,,
,,,,,,,,,,,,,,,,,,,,,,,,,61327318da83edb47b6f9525,2021-09-11_17h32.32.995,arrow_simon_vert,2021.1.2,MacIntel,59.97361161,,,,,,,,,,,down,2.4683,5,0,5,0,1,,,,,,,,,,,,,,,,,,,,,
,,,,,,,,,,,,,,,,,,,,,,,,,61327318da83edb47b6f9525,2021-09-11_17h32.32.995,arrow_simon_vert,2021.1.2,MacIntel,59.97361161,,,,,,,,,,,right,2.4192,6,0,6,0,1,,,,,,,,,,,,,,,,,,,,,
,,,,,,,,,,,,,,,,,,,,,,,,,61327318da83edb47b6f9525,2021-09-11_17h32.32.995,arrow_simon_vert,2021.1.2,MacIntel,59.97361161,,,,,,,,,,,down,2.5362,7,0,7,0,1,,,,,,,,,,,,,,,,,,,,,
,,,,,,,,,,,,,,,,,,,,,,,,,61327318da83edb47b6f9525,2021-09-11_17h32.32.995,arrow_simon_vert,2021.1.2,MacIntel,59.97361161,,,,,,,,,,,right,2.5309,8,0,8,0,1,,,,,,,,,,,,,,,,,,,,,
,,,,,,,,,,,,,,,,,,,,,,,,,61327318da83edb47b6f9525,2021-09-11_17h32.32.995,arrow_simon_vert,2021.1.2,MacIntel,59.97361161,,,,,,,,,,,up,2.4689,9,0,9,0,1,,,,,,,,,,,,,,,,,,,,,
,,,,,,,,,,,,,,,,,,,,,,,,,61327318da83edb47b6f9525,2021-09-11_17h32.32.995,arrow_simon_vert,2021.1.2,MacIntel,59.97361161,,,,,,,,,,,right,2.535,10,0,10,0,1,,,,,,,,,,,,,,,,,,,,,
,,,,,,,,,,,,,,,,,,,,,,,,,61327318da83edb47b6f9525,2021-09-11_17h32.32.995,arrow_simon_vert,2021.1.2,MacIntel,59.97361161,,,,,,,,,,,up,2.4513,11,0,11,0,1,,,,,,,,,,,,,,,,,,,,,
,,,,,,,,,,,,,,,,,,,,,,,,,61327318da83edb47b6f9525,2021-09-11_17h32.32.995,arrow_simon_vert,2021.1.2,MacIntel,59.97361161,,,,,,,,,,,right,2.4351,12,0,12,0,1,,,,,,,,,,,,,,,,,,,,,
,,,,,,,,,,,,,,,,,,,,,,,,,61327318da83edb47b6f9525,2021-09-11_17h32.32.995,arrow_simon_vert,2021.1.2,MacIntel,59.97361161,,,,,,,,,,,up,2.4813,13,0,13,0,1,,,,,,,,,,,,,,,,,,,,,
,,,,,,,,,,,,,,,,,,,,,,,,,61327318da83edb47b6f9525,2021-09-11_17h32.32.995,arrow_simon_vert,2021.1.2,MacIntel,59.97361161,,,,,,,,,,,right,2.5013,14,0,14,0,1,,,,,,,,,,,,,,,,,,,,,
,,,,,,,,,,,,,,,,,,,,,,,,,61327318da83edb47b6f9525,2021-09-11_17h32.32.995,arrow_simon_vert,2021.1.2,MacIntel,59.97361161,,,,,,,,,,,down,2.5011,15,0,15,0,1,,,,,,,,,,,,,,,,,,,,,
,,,,,,,,,,,,,,,,,,,,,,,,,61327318da83edb47b6f9525,2021-09-11_17h32.32.995,arrow_simon_vert,2021.1.2,MacIntel,59.97361161,,,,,,,,,,,right,2.2687,16,0,16,0,1,,,,,,,,,,,,,,,,,,,,,
,,,,,,,,,,,,,,,,,,,,,,,,,61327318da83edb47b6f9525,2021-09-11_17h32.32.995,arrow_simon_vert,2021.1.2,MacIntel,59.97361161,,,,,,,,,,,up,2.4526,17,0,17,0,1,,,,,,,,,,,,,,,,,,,,,
,,,,,,,,,,,,,,,,,,,,,,,,,61327318da83edb47b6f9525,2021-09-11_17h32.32.995,arrow_simon_vert,2021.1.2,MacIntel,59.97361161,,,,,,,,,,,right,2.4853,18,0,18,0,1,,,,,,,,,,,,,,,,,,,,,
,,,,,,,,,,,,,,,,,,,,,,,,,61327318da83edb47b6f9525,2021-09-11_17h32.32.995,arrow_simon_vert,2021.1.2,MacIntel,59.97361161,,,,,,,,,,,down,2.588,19,0,19,0,1,,,,,,,,,,,,,,,,,,,,,
,,,,,,,,,,,,,,,,,,,,,,,,,61327318da83edb47b6f9525,2021-09-11_17h32.32.995,arrow_simon_vert,2021.1.2,MacIntel,59.97361161,,,,,,,,,,,right,2.5011,20,0,20,0,1,,,,,,,,,,,,,,,,,,,,,
,,,,,,,,,,,,,,,,,,,,,,,,,61327318da83edb47b6f9525,2021-09-11_17h32.32.995,arrow_simon_vert,2021.1.2,MacIntel,59.97361161,,,,,,,,,,,down,2.5015,21,0,21,0,1,,,,,,,,,,,,,,,,,,,,,
,,,,,,,,,,,,,,,,,,,,,,,,,61327318da83edb47b6f9525,2021-09-11_17h32.32.995,arrow_simon_vert,2021.1.2,MacIntel,59.97361161,,,,,,,,,,,left,2.5685,22,0,22,0,1,,,,,,,,,,,,,,,,,,,,,
,,,,,,,,,,,,,,,,,,,,,,,,,61327318da83edb47b6f9525,2021-09-11_17h32.32.995,arrow_simon_vert,2021.1.2,MacIntel,59.97361161,,,,,,,,,,,up,2.4509,23,0,23,0,1,,,,,,,,,,,,,,,,,,,,,
,,,,,,,,,,,,,,,,,,,,,,,,,61327318da83edb47b6f9525,2021-09-11_17h32.32.995,arrow_simon_vert,2021.1.2,MacIntel,59.97361161,,,,,,,,,,,right,2.4516,24,0,24,0,1,,,,,,,,,,,,,,,,,,,,,
,,,,,,,,,,,,,,,,,,,,,,,,,61327318da83edb47b6f9525,2021-09-11_17h32.32.995,arrow_simon_vert,2021.1.2,MacIntel,59.97361161,,,,,,,,,,,down,2.4685,25,0,25,0,1,,,,,,,,,,,,,,,,,,,,,
,,,,,,,,,,,,,,,,,,,,,,,,,61327318da83edb47b6f9525,2021-09-11_17h32.32.995,arrow_simon_vert,2021.1.2,MacIntel,59.97361161,,,,,,,,,,,right,2.5357,26,0,26,0,1,,,,,,,,,,,,,,,,,,,,,
,,,,,,,,,,,,,,,,,,,,,,,,,61327318da83edb47b6f9525,2021-09-11_17h32.32.995,arrow_simon_vert,2021.1.2,MacIntel,59.97361161,,,,,,,,,,,up,2.5526,27,0,27,0,1,,,,,,,,,,,,,,,,,,,,,
,,,,,,,,,,,,,,,,,,,,,,,,,61327318da83edb47b6f9525,2021-09-11_17h32.32.995,arrow_simon_vert,2021.1.2,MacIntel,59.97361161,,,,,,,,,,,right,2.485,28,0,28,0,1,,,,,,,,,,,,,,,,,,,,,
,,,,,,,,,,,,,,,,,,,,,,,,,61327318da83edb47b6f9525,2021-09-11_17h32.32.995,arrow_simon_vert,2021.1.2,MacIntel,59.97361161,,,,,,,,,,,up,2.544,29,0,29,0,1,,,,,,,,,,,,,,,,,,,,,
,,,,,,,,,,,,,,,,,,,,,,,,,61327318da83edb47b6f9525,2021-09-11_17h32.32.995,arrow_simon_vert,2021.1.2,MacIntel,59.97361161,,,,,,,,,,,left,2.5206,30,0,30,0,1,,,,,,,,,,,,,,,,,,,,,
,,,,,,,,,,,,,,,,,,,,,,,,,61327318da83edb47b6f9525,2021-09-11_17h32.32.995,arrow_simon_vert,2021.1.2,MacIntel,59.97361161,,,,,,,,,,,down,2.4522,31,0,31,0,1,,,,,,,,,,,,,,,,,,,,,
,,,,,,,,,,,,,,,,,,,,,,,,,61327318da83edb47b6f9525,2021-09-11_17h32.32.995,arrow_simon_vert,2021.1.2,MacIntel,59.97361161,,,,,,,,,,,right,2.4,32,0,32,0,1,,,,,,,,,,,,,,,,,,,,,
,,,,,,,,,,,,,,,,,,,,,,,,,61327318da83edb47b6f9525,2021-09-11_17h32.32.995,arrow_simon_vert,2021.1.2,MacIntel,59.97361161,,,,,,,,,,,down,2.5347,33,0,33,0,1,,,,,,,,,,,,,,,,,,,,,
,,,,,,,,,,,,,,,,,,,,,,,,,61327318da83edb47b6f9525,2021-09-11_17h32.32.995,arrow_simon_vert,2021.1.2,MacIntel,59.97361161,,,,,,,,,,,right,2.5634,34,0,34,0,1,,,,,,,,,,,,,,,,,,,,,
,,,,,,,,,,,,,,,,,,,,,,,,,61327318da83edb47b6f9525,2021-09-11_17h32.32.995,arrow_simon_vert,2021.1.2,MacIntel,59.97361161,,,,,,,,,,,up,2.4864,35,0,35,0,1,,,,,,,,,,,,,,,,,,,,,
,,,,,,,,,,,,,,,,,,,,,,,,,61327318da83edb47b6f9525,2021-09-11_17h32.32.995,arrow_simon_vert,2021.1.2,MacIntel,59.97361161,,,,,,,,,,,right,2.4299,36,0,36,0,1,,,,,,,,,,,,,,,,,,,,,
,,,,,,,,,,,,,,,,,,,,,,,,,61327318da83edb47b6f9525,2021-09-11_17h32.32.995,arrow_simon_vert,2021.1.2,MacIntel,59.97361161,,,,,,,,,,,down,2.4172,37,0,37,0,1,,,,,,,,,,,,,,,,,,,,,
,,,,,,,,,,,,,,,,,,,,,,,,,61327318da83edb47b6f9525,2021-09-11_17h32.32.995,arrow_simon_vert,2021.1.2,MacIntel,59.97361161,,,,,,,,,,,left,2.4521,38,0,38,0,1,,,,,,,,,,,,,,,,,,,,,
,,,,,,,,,,,,,,,,,,,,,,,,,61327318da83edb47b6f9525,2021-09-11_17h32.32.995,arrow_simon_vert,2021.1.2,MacIntel,59.97361161,,,,,,,,,,,up,2.3678,39,0,39,0,1,,,,,,,,,,,,,,,,,,,,,
,,,,,,,,,,,,,,,,,,,,,,,,,61327318da83edb47b6f9525,2021-09-11_17h32.32.995,arrow_simon_vert,2021.1.2,MacIntel,59.97361161,,,,,,,,,,,left,2.4282,40,0,40,0,1,,,,,,,,,,,,,,,,,,,,,
,,,,,,,,,,,,,,,,,,,,,,,,,61327318da83edb47b6f9525,2021-09-11_17h32.32.995,arrow_simon_vert,2021.1.2,MacIntel,59.97361161,,,,,,,,,,,up,2.452,41,0,41,0,1,,,,,,,,,,,,,,,,,,,,,
,,,,,,,,,,,,,,,,,,,,,,,,,61327318da83edb47b6f9525,2021-09-11_17h32.32.995,arrow_simon_vert,2021.1.2,MacIntel,59.97361161,,,,,,,,,,,left,2.4338,42,0,42,0,1,,,,,,,,,,,,,,,,,,,,,
,,,,,,,,,,,,,,,,,,,,,,,,,61327318da83edb47b6f9525,2021-09-11_17h32.32.995,arrow_simon_vert,2021.1.2,MacIntel,59.97361161,,,,,,,,,,,up,2.5187,43,0,43,0,1,,,,,,,,,,,,,,,,,,,,,
,,,,,,,,,,,,,,,,,,,,,,,,,61327318da83edb47b6f9525,2021-09-11_17h32.32.995,arrow_simon_vert,2021.1.2,MacIntel,59.97361161,,,,,,,,,,,left,2.3349,44,0,44,0,1,,,,,,,,,,,,,,,,,,,,,
,,,,,,,,,,,,,,,,,,,,,,,,,61327318da83edb47b6f9525,2021-09-11_17h32.32.995,arrow_simon_vert,2021.1.2,MacIntel,59.97361161,,,,,,,,,,,down,2.3854,45,0,45,0,1,,,,,,,,,,,,,,,,,,,,,
,,,,,,,,,,,,,,,,,,,,,,,,,61327318da83edb47b6f9525,2021-09-11_17h32.32.995,arrow_simon_vert,2021.1.2,MacIntel,59.97361161,,,,,,,,,,,right,2.5681,46,0,46,0,1,,,,,,,,,,,,,,,,,,,,,
,,,,,,,,,,,,,,,,,,,,,,,,,61327318da83edb47b6f9525,2021-09-11_17h32.32.995,arrow_simon_vert,2021.1.2,MacIntel,59.97361161,,,,,,,,,,,down,2.5029,47,0,47,0,1,,,,,,,,,,,,,,,,,,,,,
,,,,,,,,,,,,,,,,,,,,,,,,,61327318da83edb47b6f9525,2021-09-11_17h32.32.995,arrow_simon_vert,2021.1.2,MacIntel,59.97361161,,,,,,,,,,,left,2.5358,48,0,48,0,1,,,,,,,,,,,,,,,,,,,,,
,,,,,,,,,,,,,,,,,,,,,,,,,61327318da83edb47b6f9525,2021-09-11_17h32.32.995,arrow_simon_vert,2021.1.2,MacIntel,59.97361161,,,,,,,,,,,up,2.6524,49,0,49,0,1,,,,,,,,,,,,,,,,,,,,,
,,,,,,,,,,,,,,,,,,,,,,,,,61327318da83edb47b6f9525,2021-09-11_17h32.32.995,arrow_simon_vert,2021.1.2,MacIntel,59.97361161,,,,,,,,,,,left,2.4511,50,0,50,0,1,,,,,,,,,,,,,,,,,,,,,
,,,,,,,,,,,,,,,,,,,,,,,,,61327318da83edb47b6f9525,2021-09-11_17h32.32.995,arrow_simon_vert,2021.1.2,MacIntel,59.97361161,,,,,,,,,,,down,2.5519,51,0,51,0,1,,,,,,,,,,,,,,,,,,,,,
,,,,,,,,,,,,,,,,,,,,,,,,,61327318da83edb47b6f9525,2021-09-11_17h32.32.995,arrow_simon_vert,2021.1.2,MacIntel,59.97361161,,,,,,,,,,,left,2.4851,52,0,52,0,1,,,,,,,,,,,,,,,,,,,,,
,,,,,,,,,,,,,,,,,,,,,,,,,61327318da83edb47b6f9525,2021-09-11_17h32.32.995,arrow_simon_vert,2021.1.2,MacIntel,59.97361161,,,,,,,,,,,up,2.5037,53,0,53,0,1,,,,,,,,,,,,,,,,,,,,,
,,,,,,,,,,,,,,,,,,,,,,,,,61327318da83edb47b6f9525,2021-09-11_17h32.32.995,arrow_simon_vert,2021.1.2,MacIntel,59.97361161,,,,,,,,,,,right,2.4351,54,0,54,0,1,,,,,,,,,,,,,,,,,,,,,
,,,,,,,,,,,,,,,,,,,,,,,,,61327318da83edb47b6f9525,2021-09-11_17h32.32.995,arrow_simon_vert,2021.1.2,MacIntel,59.97361161,,,,,,,,,,,up,2.5526,55,0,55,0,1,,,,,,,,,,,,,,,,,,,,,
,,,,,,,,,,,,,,,,,,,,,,,,,61327318da83edb47b6f9525,2021-09-11_17h32.32.995,arrow_simon_vert,2021.1.2,MacIntel,59.97361161,,,,,,,,,,,left,2.5352,56,0,56,0,1,,,,,,,,,,,,,,,,,,,,,
,,,,,,,,,,,,,,,,,,,,,,,,,61327318da83edb47b6f9525,2021-09-11_17h32.32.995,arrow_simon_vert,2021.1.2,MacIntel,59.97361161,,,,,,,,,,,down,2.5853,57,0,57,0,1,,,,,,,,,,,,,,,,,,,,,
,,,,,,,,,,,,,,,,,,,,,,,,,61327318da83edb47b6f9525,2021-09-11_17h32.32.995,arrow_simon_vert,2021.1.2,MacIntel,59.97361161,,,,,,,,,,,right,2.6015,58,0,58,0,1,,,,,,,,,,,,,,,,,,,,,
,,,,,,,,,,,,,,,,,,,,,,,,,61327318da83edb47b6f9525,2021-09-11_17h32.32.995,arrow_simon_vert,2021.1.2,MacIntel,59.97361161,,,,,,,,,,,down,2.4176,59,0,59,0,1,,,,,,,,,,,,,,,,,,,,,
,,,,,,0,1.747738942,#a3d0fb,"[""0.25"",""0""]",right_blue.png,right,,,,,,,,right,right_blue.png,up_orange.png,up,right,up,61327318da83edb47b6f9525,2021-09-11_17h32.32.995,arrow_simon_vert,2021.1.2,MacIntel,59.97361161,,,,,,,,,,,,,,,,,,space,0,125.4048,right,1,1.1119,1,FALSE,TRUE,0,0,0,1,1,,,,,,,
,,,,,,0,2.156656982,#f3af84,"[""0"",""-0.25""]",up_orange.png,up,,,,,,,,right,right_blue.png,up_orange.png,up,left,down,61327318da83edb47b6f9525,2021-09-11_17h32.32.995,arrow_simon_vert,2021.1.2,MacIntel,59.97361161,,,,,,,,,,,,,,,,,,,,,up,1,1.7075,2,TRUE,FALSE,0,1,1,0,1,,,,,,,
,,,,,,0,1.596908122,#a3d0fb,"[""-0.25"",""0""]",right_blue.png,right,,,,,,,,right,right_blue.png,up_orange.png,up,left,down,61327318da83edb47b6f9525,2021-09-11_17h32.32.995,arrow_simon_vert,2021.1.2,MacIntel,59.97361161,,,,,,,,,,,,,,,,,,,,,right,1,1.0443,3,FALSE,TRUE,0,2,2,0,1,,,,,,,
,,,,,,0,2.337461535,#f3af84,"[""0"",""-0.25""]",up_orange.png,up,,,,,,,,right,right_blue.png,up_orange.png,up,left,down,61327318da83edb47b6f9525,2021-09-11_17h32.32.995,arrow_simon_vert,2021.1.2,MacIntel,59.97361161,,,,,,,,,,,,,,,,,,,,,left,0,1.8013,4,TRUE,FALSE,0,3,3,0,1,,,,,,,
,,,,,,0,1.736090594,#a3d0fb,"[""0.25"",""0""]",right_blue.png,right,,,,,,,,right,right_blue.png,up_orange.png,up,right,up,61327318da83edb47b6f9525,2021-09-11_17h32.32.995,arrow_simon_vert,2021.1.2,MacIntel,59.97361161,,,,,,,,,,,,,,,,,,,,,right,1,1.1354,5,FALSE,TRUE,1,0,4,1,1,,,,,,,
,,,,,,1,2.165515263,#f3af84,"[""0"",""-0.25""]",up_orange.png,up,,,,,,,,right,right_blue.png,up_orange.png,up,left,down,61327318da83edb47b6f9525,2021-09-11_17h32.32.995,arrow_simon_vert,2021.1.2,MacIntel,59.97361161,,,,,,,,,,,,,,,,,,,,,down,0,1.5251,6,FALSE,FALSE,1,1,5,0,1,,,,,,,
,,,,,,0,2.194253411,#a3d0fb,"[""0.25"",""0""]",right_blue.png,right,,,,,,,,right,right_blue.png,up_orange.png,up,right,up,61327318da83edb47b6f9525,2021-09-11_17h32.32.995,arrow_simon_vert,2021.1.2,MacIntel,59.97361161,,,,,,,,,,,,,,,,,,,,,right,1,1.5257,7,FALSE,FALSE,1,2,6,1,1,,,,,,,
,,,,,,0,2.446648636,#f3af84,"[""0"",""-0.25""]",down_orange.png,down,,,,,,,,left,left_blue.png,down_orange.png,down,left,down,61327318da83edb47b6f9525,2021-09-11_17h32.32.995,arrow_simon_vert,2021.1.2,MacIntel,59.97361161,,,,,,,,,,,,,,,,,,,,,down,1,1.876,8,TRUE,FALSE,1,3,7,2,1,,,,,,,
,,,,,,0,2.326448398,#a3d0fb,"[""0.25"",""0""]",left_blue.png,left,,,,,,,,left,left_blue.png,down_orange.png,down,right,up,61327318da83edb47b6f9525,2021-09-11_17h32.32.995,arrow_simon_vert,2021.1.2,MacIntel,59.97361161,,,,,,,,,,,,,,,,,,,,,left,1,1.7186,9,TRUE,FALSE,2,0,8,3,1,,,,,,,
,,,,,,0,2.327311389,#f3af84,"[""0"",""0.25""]",down_orange.png,down,,,,,,,,left,left_blue.png,down_orange.png,down,right,up,61327318da83edb47b6f9525,2021-09-11_17h32.32.995,arrow_simon_vert,2021.1.2,MacIntel,59.97361161,,,,,,,,,,,,,,,,,,,,,down,1,1.7189,10,TRUE,FALSE,2,1,9,3,1,,,,,,,
,,,,,,0,1.649167161,#a3d0fb,"[""0.25"",""0""]",left_blue.png,left,,,,,,,,left,left_blue.png,down_orange.png,down,right,up,61327318da83edb47b6f9525,2021-09-11_17h32.32.995,arrow_simon_vert,2021.1.2,MacIntel,59.97361161,,,,,,,,,,,,,,,,,,,,,left,1,1.11,11,FALSE,TRUE,2,2,10,3,1,,,,,,,
,,,,,,0,2.016246907,#f3af84,"[""0"",""-0.25""]",up_orange.png,up,,,,,,,,right,right_blue.png,up_orange.png,up,left,down,61327318da83edb47b6f9525,2021-09-11_17h32.32.995,arrow_simon_vert,2021.1.2,MacIntel,59.97361161,,,,,,,,,,,,,,,,,,,,,up,1,1.4463,12,FALSE,FALSE,2,3,11,0,1,,,,,,,
,,,,,,0,2.150470535,#a3d0fb,"[""0.25"",""0""]",left_blue.png,left,,,,,,,,left,left_blue.png,down_orange.png,down,right,up,61327318da83edb47b6f9525,2021-09-11_17h32.32.995,arrow_simon_vert,2021.1.2,MacIntel,59.97361161,,,,,,,,,,,,,,,,,,,,,left,1,1.5596,13,FALSE,FALSE,3,0,12,3,1,,,,,,,
,,,,,,0,1.687699939,#f3af84,"[""0"",""-0.25""]",up_orange.png,up,,,,,,,,right,right_blue.png,up_orange.png,up,left,down,61327318da83edb47b6f9525,2021-09-11_17h32.32.995,arrow_simon_vert,2021.1.2,MacIntel,59.97361161,,,,,,,,,,,,,,,,,,,,,up,1,1.1293,14,FALSE,TRUE,3,1,13,0,1,,,,,,,
,,,,,,0,1.777869916,#a3d0fb,"[""-0.25"",""0""]",left_blue.png,left,,,,,,,,left,left_blue.png,down_orange.png,down,left,down,61327318da83edb47b6f9525,2021-09-11_17h32.32.995,arrow_simon_vert,2021.1.2,MacIntel,59.97361161,,,,,,,,,,,,,,,,,,,,,left,1,1.6521,15,TRUE,FALSE,3,2,14,2,1,,,,,,,
,,,,,,0,2.427109802,#f3af84,"[""0"",""-0.25""]",up_orange.png,up,,,,,,,,right,right_blue.png,up_orange.png,up,left,down,61327318da83edb47b6f9525,2021-09-11_17h32.32.995,arrow_simon_vert,2021.1.2,MacIntel,59.97361161,,,,,,,,,,,,,,,,,,,,,up,1,1.7691,16,TRUE,FALSE,3,3,15,0,1,,,,,,,
,,,,,,0,2.023976505,#a3d0fb,"[""0.25"",""0""]",left_blue.png,left,,,,,,,,left,left_blue.png,down_orange.png,down,right,up,61327318da83edb47b6f9525,2021-09-11_17h32.32.995,arrow_simon_vert,2021.1.2,MacIntel,59.97361161,,,,,,,,,,,,,,,,,,,,,left,1,1.402,17,FALSE,FALSE,4,0,16,3,1,,,,,,,
,,,,,,0,1.679423927,#f3af84,"[""0"",""-0.25""]",down_orange.png,down,,,,,,,,left,left_blue.png,down_orange.png,down,left,down,61327318da83edb47b6f9525,2021-09-11_17h32.32.995,arrow_simon_vert,2021.1.2,MacIntel,59.97361161,,,,,,,,,,,,,,,,,,,,,down,1,1.1827,18,FALSE,TRUE,4,1,17,2,1,,,,,,,
,,,,,,0,2.127151298,#a3d0fb,"[""0.25"",""0""]",left_blue.png,left,,,,,,,,left,left_blue.png,down_orange.png,down,right,up,61327318da83edb47b6f9525,2021-09-11_17h32.32.995,arrow_simon_vert,2021.1.2,MacIntel,59.97361161,,,,,,,,,,,,,,,,,,,,,left,1,1.5986,19,FALSE,FALSE,4,2,18,3,1,,,,,,,
,,,,,,0,2.118937339,#f3af84,"[""0"",""-0.25""]",down_orange.png,down,,,,,,,,left,left_blue.png,down_orange.png,down,left,down,61327318da83edb47b6f9525,2021-09-11_17h32.32.995,arrow_simon_vert,2021.1.2,MacIntel,59.97361161,,,,,,,,,,,,,,,,,,,,,down,1,1.518,20,FALSE,FALSE,4,3,19,2,1,,,,,,,
,,,,,,0,1.7201782,#a3d0fb,"[""0.25"",""0""]",left_blue.png,left,,,,,,,,left,left_blue.png,down_orange.png,down,right,up,61327318da83edb47b6f9525,2021-09-11_17h32.32.995,arrow_simon_vert,2021.1.2,MacIntel,59.97361161,,,,,,,,,,,,,,,,,,,,,left,1,1.2349,21,FALSE,TRUE,5,0,20,3,1,,,,,,,
,,,,,,0,1.703623525,#f3af84,"[""0"",""0.25""]",down_orange.png,down,,,,,,,,left,left_blue.png,down_orange.png,down,right,up,61327318da83edb47b6f9525,2021-09-11_17h32.32.995,arrow_simon_vert,2021.1.2,MacIntel,59.97361161,,,,,,,,,,,,,,,,,,,,,down,1,1.6291,22,TRUE,FALSE,5,1,21,3,1,,,,,,,
,,,,,,0,1.523987236,#a3d0fb,"[""0.25"",""0""]",right_blue.png,right,,,,,,,,right,right_blue.png,up_orange.png,up,right,up,61327318da83edb47b6f9525,2021-09-11_17h32.32.995,arrow_simon_vert,2021.1.2,MacIntel,59.97361161,,,,,,,,,,,,,,,,,,,,,right,1,1.4879,23,FALSE,FALSE,5,2,22,1,1,,,,,,,
,,,,,,0,1.869884836,#f3af84,"[""0"",""-0.25""]",up_orange.png,up,,,,,,,,right,right_blue.png,up_orange.png,up,left,down,61327318da83edb47b6f9525,2021-09-11_17h32.32.995,arrow_simon_vert,2021.1.2,MacIntel,59.97361161,,,,,,,,,,,,,,,,,,,,,up,1,1.6188,24,TRUE,FALSE,5,3,23,0,1,,,,,,,
,,,,,,0,2.024693374,#a3d0fb,"[""0.25"",""0""]",right_blue.png,right,,,,,,,,right,right_blue.png,up_orange.png,up,right,up,61327318da83edb47b6f9525,2021-09-11_17h32.32.995,arrow_simon_vert,2021.1.2,MacIntel,59.97361161,,,,,,,,,,,,,,,,,,,,,right,1,1.6195,25,TRUE,FALSE,6,0,24,1,1,,,,,,,
,,,,,,0,1.696505387,#f3af84,"[""0"",""-0.25""]",down_orange.png,down,,,,,,,,left,left_blue.png,down_orange.png,down,left,down,61327318da83edb47b6f9525,2021-09-11_17h32.32.995,arrow_simon_vert,2021.1.2,MacIntel,59.97361161,,,,,,,,,,,,,,,,,,,,,down,1,1.8523,26,TRUE,FALSE,6,1,25,2,1,,,,,,,
,,,,,,0,2.40927881,#a3d0fb,"[""-0.25"",""0""]",right_blue.png,right,,,,,,,,right,right_blue.png,up_orange.png,up,left,down,61327318da83edb47b6f9525,2021-09-11_17h32.32.995,arrow_simon_vert,2021.1.2,MacIntel,59.97361161,,,,,,,,,,,,,,,,,,,,,right,1,1.6522,27,TRUE,FALSE,6,2,26,0,1,,,,,,,
,,,,,,0,1.638783921,#f3af84,"[""0"",""-0.25""]",down_orange.png,down,,,,,,,,left,left_blue.png,down_orange.png,down,left,down,61327318da83edb47b6f9525,2021-09-11_17h32.32.995,arrow_simon_vert,2021.1.2,MacIntel,59.97361161,,,,,,,,,,,,,,,,,,,,,down,1,1.6018,28,TRUE,FALSE,6,3,27,2,1,,,,,,,
,,,,,,0,1.806746737,#a3d0fb,"[""0.25"",""0""]",right_blue.png,right,,,,,,,,right,right_blue.png,up_orange.png,up,right,up,61327318da83edb47b6f9525,2021-09-11_17h32.32.995,arrow_simon_vert,2021.1.2,MacIntel,59.97361161,,,,,,,,,,,,,,,,,,,,,right,1,1.6018,29,TRUE,FALSE,7,0,28,1,1,,,,,,,
,,,,,,0,1.78050037,#f3af84,"[""0"",""-0.25""]",up_orange.png,up,,,,,,,,right,right_blue.png,up_orange.png,up,left,down,61327318da83edb47b6f9525,2021-09-11_17h32.32.995,arrow_simon_vert,2021.1.2,MacIntel,59.97361161,,,,,,,,,,,,,,,,,,,,,up,1,1.5093,30,FALSE,FALSE,7,1,29,0,1,,,,,,,
,,,,,,0,1.974221318,#a3d0fb,"[""0.25"",""0""]",left_blue.png,left,,,,,,,,left,left_blue.png,down_orange.png,down,right,up,61327318da83edb47b6f9525,2021-09-11_17h32.32.995,arrow_simon_vert,2021.1.2,MacIntel,59.97361161,,,,,,,,,,,,,,,,,,,,,left,1,1.5128,31,FALSE,FALSE,7,2,30,3,1,,,,,,,
,,,,,,0,1.671305894,#f3af84,"[""0"",""-0.25""]",down_orange.png,down,,,,,,,,left,left_blue.png,down_orange.png,down,left,down,61327318da83edb47b6f9525,2021-09-11_17h32.32.995,arrow_simon_vert,2021.1.2,MacIntel,59.97361161,,,,,,,,,,,,,,,,,,,,,down,1,1.4607,32,FALSE,FALSE,7,3,31,2,1,,,,,,,
,,,,,,0,1.899357443,#a3d0fb,"[""0.25"",""0""]",right_blue.png,right,,,,,,,,right,right_blue.png,up_orange.png,up,right,up,61327318da83edb47b6f9525,2021-09-11_17h32.32.995,arrow_simon_vert,2021.1.2,MacIntel,59.97361161,,,,,,,,,,,,,,,,,,,,,right,1,1.545,33,FALSE,FALSE,8,0,32,1,1,,,,,,,
,,,,,,0,1.794787043,#f3af84,"[""0"",""0.25""]",up_orange.png,up,,,,,,,,right,right_blue.png,up_orange.png,up,right,up,61327318da83edb47b6f9525,2021-09-11_17h32.32.995,arrow_simon_vert,2021.1.2,MacIntel,59.97361161,,,,,,,,,,,,,,,,,,,,,up,1,1.4776,34,FALSE,FALSE,8,1,33,1,1,,,,,,,
,,,,,,0,1.624946895,#a3d0fb,"[""0.25"",""0""]",right_blue.png,right,,,,,,,,right,right_blue.png,up_orange.png,up,right,up,61327318da83edb47b6f9525,2021-09-11_17h32.32.995,arrow_simon_vert,2021.1.2,MacIntel,59.97361161,,,,,,,,,,,,,,,,,,,,,right,1,1.6187,35,TRUE,FALSE,8,2,34,1,1,,,,,,,
,,,,,,0,1.537048244,#f3af84,"[""0"",""-0.25""]",up_orange.png,up,,,,,,,,right,right_blue.png,up_orange.png,up,left,down,61327318da83edb47b6f9525,2021-09-11_17h32.32.995,arrow_simon_vert,2021.1.2,MacIntel,59.97361161,,,,,,,,,,,,,,,,,,,,,up,1,1.469,36,FALSE,FALSE,8,3,35,0,1,,,,,,,
,,,,,,0,1.693937241,#a3d0fb,"[""0.25"",""0""]",right_blue.png,right,,,,,,,,right,right_blue.png,up_orange.png,up,right,up,61327318da83edb47b6f9525,2021-09-11_17h32.32.995,arrow_simon_vert,2021.1.2,MacIntel,59.97361161,,,,,,,,,,,,,,,,,,,,,right,1,1.6356,37,TRUE,FALSE,9,0,36,1,1,,,,,,,
,,,,,,0,2.163123973,#f3af84,"[""0"",""-0.25""]",up_orange.png,up,,,,,,,,right,right_blue.png,up_orange.png,up,left,down,61327318da83edb47b6f9525,2021-09-11_17h32.32.995,arrow_simon_vert,2021.1.2,MacIntel,59.97361161,,,,,,,,,,,,,,,,,,,,,up,1,1.5388,38,FALSE,FALSE,9,1,37,0,1,,,,,,,
,,,,,,0,2.190005243,#a3d0fb,"[""-0.25"",""0""]",right_blue.png,right,,,,,,,,right,right_blue.png,up_orange.png,up,left,down,61327318da83edb47b6f9525,2021-09-11_17h32.32.995,arrow_simon_vert,2021.1.2,MacIntel,59.97361161,,,,,,,,,,,,,,,,,,,,,right,1,1.6021,39,TRUE,FALSE,9,2,38,0,1,,,,,,,
,,,,,,0,1.543948144,#f3af84,"[""0"",""-0.25""]",down_orange.png,down,,,,,,,,left,left_blue.png,down_orange.png,down,left,down,61327318da83edb47b6f9525,2021-09-11_17h32.32.995,arrow_simon_vert,2021.1.2,MacIntel,59.97361161,,,,,,,,,,,,,,,,,,,,,down,1,1.4856,40,FALSE,FALSE,9,3,39,2,1,,,,,,,
,,,,,,0,1.985744214,#a3d0fb,"[""-0.25"",""0""]",right_blue.png,right,,,,,,,,right,right_blue.png,up_orange.png,up,left,down,61327318da83edb47b6f9525,2021-09-11_17h32.32.995,arrow_simon_vert,2021.1.2,MacIntel,59.97361161,,,,,,,,,,,,,,,,,,,,,right,1,1.503,41,FALSE,FALSE,10,0,40,0,1,,,,,,,
,,,,,,0,1.973936344,#f3af84,"[""0"",""-0.25""]",up_orange.png,up,,,,,,,,right,right_blue.png,up_orange.png,up,left,down,61327318da83edb47b6f9525,2021-09-11_17h32.32.995,arrow_simon_vert,2021.1.2,MacIntel,59.97361161,,,,,,,,,,,,,,,,,,,,,up,1,1.5775,42,FALSE,FALSE,10,1,41,0,1,,,,,,,
,,,,,,0,1.578633395,#a3d0fb,"[""0.25"",""0""]",right_blue.png,right,,,,,,,,right,right_blue.png,up_orange.png,up,right,up,61327318da83edb47b6f9525,2021-09-11_17h32.32.995,arrow_simon_vert,2021.1.2,MacIntel,59.97361161,,,,,,,,,,,,,,,,,,,,,right,1,1.4833,43,FALSE,FALSE,10,2,42,1,1,,,,,,,
,,,,,,1,2.184297453,#f3af84,"[""0"",""0.25""]",down_orange.png,down,,,,,,,,left,left_blue.png,down_orange.png,down,right,up,61327318da83edb47b6f9525,2021-09-11_17h32.32.995,arrow_simon_vert,2021.1.2,MacIntel,59.97361161,,,,,,,,,,,,,,,,,,,,,up,0,1.5344,44,FALSE,FALSE,10,3,43,3,1,,,,,,,
,,,,,,0,1.769992414,#a3d0fb,"[""-0.25"",""0""]",left_blue.png,left,,,,,,,,left,left_blue.png,down_orange.png,down,left,down,61327318da83edb47b6f9525,2021-09-11_17h32.32.995,arrow_simon_vert,2021.1.2,MacIntel,59.97361161,,,,,,,,,,,,,,,,,,,,,left,1,1.5353,45,FALSE,FALSE,11,0,44,2,1,,,,,,,
,,,,,,0,1.917690755,#f3af84,"[""0"",""0.25""]",down_orange.png,down,,,,,,,,left,left_blue.png,down_orange.png,down,right,up,61327318da83edb47b6f9525,2021-09-11_17h32.32.995,arrow_simon_vert,2021.1.2,MacIntel,59.97361161,,,,,,,,,,,,,,,,,,,,,down,1,1.4855,46,FALSE,FALSE,11,1,45,3,1,,,,,,,
,,,,,,0,1.707743557,#a3d0fb,"[""0.25"",""0""]",left_blue.png,left,,,,,,,,left,left_blue.png,down_orange.png,down,right,up,61327318da83edb47b6f9525,2021-09-11_17h32.32.995,arrow_simon_vert,2021.1.2,MacIntel,59.97361161,,,,,,,,,,,,,,,,,,,,,left,1,1.5189,47,FALSE,FALSE,11,2,46,3,1,,,,,,,
,,,,,,0,2.005132082,#f3af84,"[""0"",""0.25""]",down_orange.png,down,,,,,,,,left,left_blue.png,down_orange.png,down,right,up,61327318da83edb47b6f9525,2021-09-11_17h32.32.995,arrow_simon_vert,2021.1.2,MacIntel,59.97361161,,,,,,,,,,,,,,,,,,,,,down,1,1.6195,48,TRUE,FALSE,11,3,47,3,1,,,,,,,
,,,,,,0,1.892362774,#a3d0fb,"[""0.25"",""0""]",left_blue.png,left,,,,,,,,left,left_blue.png,down_orange.png,down,right,up,61327318da83edb47b6f9525,2021-09-11_17h32.32.995,arrow_simon_vert,2021.1.2,MacIntel,59.97361161,,,,,,,,,,,,,,,,,,,,,left,1,1.5008,49,FALSE,FALSE,12,0,48,3,1,,,,,,,
,,,,,,0,1.644751768,#f3af84,"[""0"",""0.25""]",down_orange.png,down,,,,,,,,left,left_blue.png,down_orange.png,down,right,up,61327318da83edb47b6f9525,2021-09-11_17h32.32.995,arrow_simon_vert,2021.1.2,MacIntel,59.97361161,,,,,,,,,,,,,,,,,,,,,down,1,1.3009,50,FALSE,TRUE,12,1,49,3,1,,,,,,,
,,,,,,0,1.863417883,#a3d0fb,"[""-0.25"",""0""]",left_blue.png,left,,,,,,,,left,left_blue.png,down_orange.png,down,left,down,61327318da83edb47b6f9525,2021-09-11_17h32.32.995,arrow_simon_vert,2021.1.2,MacIntel,59.97361161,,,,,,,,,,,,,,,,,,,,,left,1,1.6507,51,TRUE,FALSE,12,2,50,2,1,,,,,,,
,,,,,,0,2.025938501,#f3af84,"[""0"",""0.25""]",up_orange.png,up,,,,,,,,right,right_blue.png,up_orange.png,up,right,up,61327318da83edb47b6f9525,2021-09-11_17h32.32.995,arrow_simon_vert,2021.1.2,MacIntel,59.97361161,,,,,,,,,,,,,,,,,,,,,up,1,1.4669,52,FALSE,FALSE,12,3,51,1,1,,,,,,,
,,,,,,0,1.681070365,#a3d0fb,"[""0.25"",""0""]",right_blue.png,right,,,,,,,,right,right_blue.png,up_orange.png,up,right,up,61327318da83edb47b6f9525,2021-09-11_17h32.32.995,arrow_simon_vert,2021.1.2,MacIntel,59.97361161,,,,,,,,,,,,,,,,,,,,,right,1,1.4713,53,FALSE,FALSE,13,0,52,1,1,,,,,,,
,,,,,,0,2.496561401,#f3af84,"[""0"",""0.25""]",up_orange.png,up,,,,,,,,right,right_blue.png,up_orange.png,up,right,up,61327318da83edb47b6f9525,2021-09-11_17h32.32.995,arrow_simon_vert,2021.1.2,MacIntel,59.97361161,,,,,,,,,,,,,,,,,,,,,up,1,1.8353,54,TRUE,FALSE,13,1,53,1,1,,,,,,,
,,,,,,0,1.87550562,#a3d0fb,"[""-0.25"",""0""]",left_blue.png,left,,,,,,,,left,left_blue.png,down_orange.png,down,left,down,61327318da83edb47b6f9525,2021-09-11_17h32.32.995,arrow_simon_vert,2021.1.2,MacIntel,59.97361161,,,,,,,,,,,,,,,,,,,,,left,1,1.5343,55,FALSE,FALSE,13,2,54,2,1,,,,,,,
,,,,,,0,2.319316588,#f3af84,"[""0"",""-0.25""]",down_orange.png,down,,,,,,,,left,left_blue.png,down_orange.png,down,left,down,61327318da83edb47b6f9525,2021-09-11_17h32.32.995,arrow_simon_vert,2021.1.2,MacIntel,59.97361161,,,,,,,,,,,,,,,,,,,,,down,1,1.6517,56,TRUE,FALSE,13,3,55,2,1,,,,,,,
,,,,,,0,1.524503099,#a3d0fb,"[""0.25"",""0""]",right_blue.png,right,,,,,,,,right,right_blue.png,up_orange.png,up,right,up,61327318da83edb47b6f9525,2021-09-11_17h32.32.995,arrow_simon_vert,2021.1.2,MacIntel,59.97361161,,,,,,,,,,,,,,,,,,,,,right,1,1.4187,57,FALSE,FALSE,14,0,56,1,1,,,,,,,
,,,,,,0,2.268290959,#f3af84,"[""0"",""-0.25""]",down_orange.png,down,,,,,,,,left,left_blue.png,down_orange.png,down,left,down,61327318da83edb47b6f9525,2021-09-11_17h32.32.995,arrow_simon_vert,2021.1.2,MacIntel,59.97361161,,,,,,,,,,,,,,,,,,,,,down,1,1.6683,58,TRUE,FALSE,14,1,57,2,1,,,,,,,
,,,,,,0,2.329273901,#a3d0fb,"[""-0.25"",""0""]",left_blue.png,left,,,,,,,,left,left_blue.png,down_orange.png,down,left,down,61327318da83edb47b6f9525,2021-09-11_17h32.32.995,arrow_simon_vert,2021.1.2,MacIntel,59.97361161,,,,,,,,,,,,,,,,,,,,,left,1,1.6706,59,TRUE,FALSE,14,2,58,2,1,,,,,,,
,,,,,,0,1.570716864,#f3af84,"[""0"",""-0.25""]",down_orange.png,down,,,,,,,,left,left_blue.png,down_orange.png,down,left,down,61327318da83edb47b6f9525,2021-09-11_17h32.32.995,arrow_simon_vert,2021.1.2,MacIntel,59.97361161,,,,,,,,,,,,,,,,,,,,,down,1,1.7683,60,TRUE,FALSE,14,3,59,2,1,,,,,,,
,,,,,,,,,,,,,,,,,,,,,,,,,61327318da83edb47b6f9525,2021-09-11_17h32.32.995,arrow_simon_vert,2021.1.2,MacIntel,59.97361161,,,,,,,,,,,,,,,,,,,,,,,,,,,,,,,,space,46.6902,0,0,0,0,1
,,,,,,0,2.44061418,#a3d0fb,"[""0.25"",""0""]",right_blue.png,right,,,,,,,,right,right_blue.png,up_orange.png,up,right,up,61327318da83edb47b6f9525,2021-09-11_17h32.32.995,arrow_simon_vert,2021.1.2,MacIntel,59.97361161,,,,,,,,,,,,,,,,,,,,,right,1,1.694,1,TRUE,FALSE,0,0,0,1,1,,,,,,,
,,,,,,0,2.309282423,#f3af84,"[""0"",""0.25""]",down_orange.png,down,,,,,,,,left,left_blue.png,down_orange.png,down,right,up,61327318da83edb47b6f9525,2021-09-11_17h32.32.995,arrow_simon_vert,2021.1.2,MacIntel,59.97361161,,,,,,,,,,,,,,,,,,,,,up,0,1.7017,2,TRUE,FALSE,0,1,1,3,1,,,,,,,
,,,,,,0,1.767461716,#a3d0fb,"[""0.25"",""0""]",left_blue.png,left,,,,,,,,left,left_blue.png,down_orange.png,down,right,up,61327318da83edb47b6f9525,2021-09-11_17h32.32.995,arrow_simon_vert,2021.1.2,MacIntel,59.97361161,,,,,,,,,,,,,,,,,,,,,left,1,1.6184,3,TRUE,FALSE,0,2,2,3,1,,,,,,,
,,,,,,0,1.790954825,#f3af84,"[""0"",""-0.25""]",down_orange.png,down,,,,,,,,left,left_blue.png,down_orange.png,down,left,down,61327318da83edb47b6f9525,2021-09-11_17h32.32.995,arrow_simon_vert,2021.1.2,MacIntel,59.97361161,,,,,,,,,,,,,,,,,,,,,down,1,1.453,4,FALSE,FALSE,0,3,3,2,1,,,,,,,
,,,,,,0,1.611745859,#a3d0fb,"[""0.25"",""0""]",left_blue.png,left,,,,,,,,left,left_blue.png,down_orange.png,down,right,up,61327318da83edb47b6f9525,2021-09-11_17h32.32.995,arrow_simon_vert,2021.1.2,MacIntel,59.97361161,,,,,,,,,,,,,,,,,,,,,left,1,1.2196,5,FALSE,TRUE,1,0,4,3,1,,,,,,,
,,,,,,0,1.635069693,#f3af84,"[""0"",""-0.25""]",up_orange.png,up,,,,,,,,right,right_blue.png,up_orange.png,up,left,down,61327318da83edb47b6f9525,2021-09-11_17h32.32.995,arrow_simon_vert,2021.1.2,MacIntel,59.97361161,,,,,,,,,,,,,,,,,,,,,up,1,1.5697,6,FALSE,FALSE,1,1,5,0,1,,,,,,,
,,,,,,0,2.342451357,#a3d0fb,"[""-0.25"",""0""]",right_blue.png,right,,,,,,,,right,right_blue.png,up_orange.png,up,left,down,61327318da83edb47b6f9525,2021-09-11_17h32.32.995,arrow_simon_vert,2021.1.2,MacIntel,59.97361161,,,,,,,,,,,,,,,,,,,,,left,0,1.8424,7,TRUE,FALSE,1,2,6,0,1,,,,,,,
,,,,,,0,1.555348041,#f3af84,"[""0"",""-0.25""]",down_orange.png,down,,,,,,,,left,left_blue.png,down_orange.png,down,left,down,61327318da83edb47b6f9525,2021-09-11_17h32.32.995,arrow_simon_vert,2021.1.2,MacIntel,59.97361161,,,,,,,,,,,,,,,,,,,,,down,1,1.5834,8,FALSE,FALSE,1,3,7,2,1,,,,,,,
,,,,,,0,2.019587071,#a3d0fb,"[""0.25"",""0""]",left_blue.png,left,,,,,,,,left,left_blue.png,down_orange.png,down,right,up,61327318da83edb47b6f9525,2021-09-11_17h32.32.995,arrow_simon_vert,2021.1.2,MacIntel,59.97361161,,,,,,,,,,,,,,,,,,,,,left,1,1.6292,9,TRUE,FALSE,2,0,8,3,1,,,,,,,
,,,,,,0,1.802921342,#f3af84,"[""0"",""0.25""]",up_orange.png,up,,,,,,,,right,right_blue.png,up_orange.png,up,right,up,61327318da83edb47b6f9525,2021-09-11_17h32.32.995,arrow_simon_vert,2021.1.2,MacIntel,59.97361161,,,,,,,,,,,,,,,,,,,,,up,1,1.5022,10,FALSE,FALSE,2,1,9,1,1,,,,,,,
,,,,,,0,1.900947413,#a3d0fb,"[""0.25"",""0""]",left_blue.png,left,,,,,,,,left,left_blue.png,down_orange.png,down,right,up,61327318da83edb47b6f9525,2021-09-11_17h32.32.995,arrow_simon_vert,2021.1.2,MacIntel,59.97361161,,,,,,,,,,,,,,,,,,,,,left,1,1.2952,11,FALSE,TRUE,2,2,10,3,1,,,,,,,
,,,,,,0,2.01968367,#f3af84,"[""0"",""-0.25""]",up_orange.png,up,,,,,,,,right,right_blue.png,up_orange.png,up,left,down,61327318da83edb47b6f9525,2021-09-11_17h32.32.995,arrow_simon_vert,2021.1.2,MacIntel,59.97361161,,,,,,,,,,,,,,,,,,,,,up,1,1.6679,12,TRUE,FALSE,2,3,11,0,1,,,,,,,
,,,,,,0,1.714148594,#a3d0fb,"[""-0.25"",""0""]",left_blue.png,left,,,,,,,,left,left_blue.png,down_orange.png,down,left,down,61327318da83edb47b6f9525,2021-09-11_17h32.32.995,arrow_simon_vert,2021.1.2,MacIntel,59.97361161,,,,,,,,,,,,,,,,,,,,,left,1,1.5861,13,FALSE,FALSE,3,0,12,2,1,,,,,,,
,,,,,,0,1.566883035,#f3af84,"[""0"",""-0.25""]",down_orange.png,down,,,,,,,,left,left_blue.png,down_orange.png,down,left,down,61327318da83edb47b6f9525,2021-09-11_17h32.32.995,arrow_simon_vert,2021.1.2,MacIntel,59.97361161,,,,,,,,,,,,,,,,,,,,,down,1,1.4101,14,FALSE,FALSE,3,1,13,2,1,,,,,,,
,,,,,,0,1.510795254,#a3d0fb,"[""0.25"",""0""]",left_blue.png,left,,,,,,,,left,left_blue.png,down_orange.png,down,right,up,61327318da83edb47b6f9525,2021-09-11_17h32.32.995,arrow_simon_vert,2021.1.2,MacIntel,59.97361161,,,,,,,,,,,,,,,,,,,,,left,1,1.3509,15,FALSE,TRUE,3,2,14,3,1,,,,,,,
,,,,,,0,2.479558015,#f3af84,"[""0"",""-0.25""]",down_orange.png,down,,,,,,,,left,left_blue.png,down_orange.png,down,left,down,61327318da83edb47b6f9525,2021-09-11_17h32.32.995,arrow_simon_vert,2021.1.2,MacIntel,59.97361161,,,,,,,,,,,,,,,,,,,,,down,1,1.7702,16,TRUE,FALSE,3,3,15,2,1,,,,,,,
,,,,,,0,2.499592683,#a3d0fb,"[""0.25"",""0""]",left_blue.png,left,,,,,,,,left,left_blue.png,down_orange.png,down,right,up,61327318da83edb47b6f9525,2021-09-11_17h32.32.995,arrow_simon_vert,2021.1.2,MacIntel,59.97361161,,,,,,,,,,,,,,,,,,,,,left,1,1.8016,17,TRUE,FALSE,4,0,16,3,1,,,,,,,
,,,,,,0,1.525408441,#f3af84,"[""0"",""0.25""]",up_orange.png,up,,,,,,,,right,right_blue.png,up_orange.png,up,right,up,61327318da83edb47b6f9525,2021-09-11_17h32.32.995,arrow_simon_vert,2021.1.2,MacIntel,59.97361161,,,,,,,,,,,,,,,,,,,,,up,1,1.1678,18,FALSE,TRUE,4,1,17,1,1,,,,,,,
,,,,,,0,2.262923809,#a3d0fb,"[""-0.25"",""0""]",left_blue.png,left,,,,,,,,left,left_blue.png,down_orange.png,down,left,down,61327318da83edb47b6f9525,2021-09-11_17h32.32.995,arrow_simon_vert,2021.1.2,MacIntel,59.97361161,,,,,,,,,,,,,,,,,,,,,left,1,1.5529,19,FALSE,FALSE,4,2,18,2,1,,,,,,,
,,,,,,0,1.581506269,#f3af84,"[""0"",""0.25""]",up_orange.png,up,,,,,,,,right,right_blue.png,up_orange.png,up,right,up,61327318da83edb47b6f9525,2021-09-11_17h32.32.995,arrow_simon_vert,2021.1.2,MacIntel,59.97361161,,,,,,,,,,,,,,,,,,,,,up,1,1.1194,20,FALSE,TRUE,4,3,19,1,1,,,,,,,
,,,,,,0,1.603278781,#a3d0fb,"[""0.25"",""0""]",right_blue.png,right,,,,,,,,right,right_blue.png,up_orange.png,up,right,up,61327318da83edb47b6f9525,2021-09-11_17h32.32.995,arrow_simon_vert,2021.1.2,MacIntel,59.97361161,,,,,,,,,,,,,,,,,,,,,right,1,1.5748,21,FALSE,FALSE,5,0,20,1,1,,,,,,,
,,,,,,0,2.440102283,#f3af84,"[""0"",""-0.25""]",down_orange.png,down,,,,,,,,left,left_blue.png,down_orange.png,down,left,down,61327318da83edb47b6f9525,2021-09-11_17h32.32.995,arrow_simon_vert,2021.1.2,MacIntel,59.97361161,,,,,,,,,,,,,,,,,,,,,down,1,1.6851,22,TRUE,FALSE,5,1,21,2,1,,,,,,,
,,,,,,0,1.543247498,#a3d0fb,"[""0.25"",""0""]",left_blue.png,left,,,,,,,,left,left_blue.png,down_orange.png,down,right,up,61327318da83edb47b6f9525,2021-09-11_17h32.32.995,arrow_simon_vert,2021.1.2,MacIntel,59.97361161,,,,,,,,,,,,,,,,,,,,,left,1,1.5612,23,FALSE,FALSE,5,2,22,3,1,,,,,,,
,,,,,,0,1.746518458,#f3af84,"[""0"",""0.25""]",up_orange.png,up,,,,,,,,right,right_blue.png,up_orange.png,up,right,up,61327318da83edb47b6f9525,2021-09-11_17h32.32.995,arrow_simon_vert,2021.1.2,MacIntel,59.97361161,,,,,,,,,,,,,,,,,,,,,up,1,1.7197,24,TRUE,FALSE,5,3,23,1,1,,,,,,,
,,,,,,0,2.206509552,#a3d0fb,"[""-0.25"",""0""]",left_blue.png,left,,,,,,,,left,left_blue.png,down_orange.png,down,left,down,61327318da83edb47b6f9525,2021-09-11_17h32.32.995,arrow_simon_vert,2021.1.2,MacIntel,59.97361161,,,,,,,,,,,,,,,,,,,,,left,1,1.5858,25,FALSE,FALSE,6,0,24,2,1,,,,,,,
,,,,,,0,1.62662362,#f3af84,"[""0"",""0.25""]",up_orange.png,up,,,,,,,,right,right_blue.png,up_orange.png,up,right,up,61327318da83edb47b6f9525,2021-09-11_17h32.32.995,arrow_simon_vert,2021.1.2,MacIntel,59.97361161,,,,,,,,,,,,,,,,,,,,,up,1,1.7117,26,TRUE,FALSE,6,1,25,1,1,,,,,,,
,,,,,,0,1.991727186,#a3d0fb,"[""-0.25"",""0""]",left_blue.png,left,,,,,,,,left,left_blue.png,down_orange.png,down,left,down,61327318da83edb47b6f9525,2021-09-11_17h32.32.995,arrow_simon_vert,2021.1.2,MacIntel,59.97361161,,,,,,,,,,,,,,,,,,,,,left,1,1.4183,27,FALSE,FALSE,6,2,26,2,1,,,,,,,
,,,,,,0,2.079270138,#f3af84,"[""0"",""0.25""]",down_orange.png,down,,,,,,,,left,left_blue.png,down_orange.png,down,right,up,61327318da83edb47b6f9525,2021-09-11_17h32.32.995,arrow_simon_vert,2021.1.2,MacIntel,59.97361161,,,,,,,,,,,,,,,,,,,,,down,1,1.4855,28,FALSE,FALSE,6,3,27,3,1,,,,,,,
,,,,,,0,1.541635493,#a3d0fb,"[""-0.25"",""0""]",left_blue.png,left,,,,,,,,left,left_blue.png,down_orange.png,down,left,down,61327318da83edb47b6f9525,2021-09-11_17h32.32.995,arrow_simon_vert,2021.1.2,MacIntel,59.97361161,,,,,,,,,,,,,,,,,,,,,left,1,1.7354,29,TRUE,FALSE,7,0,28,2,1,,,,,,,
,,,,,,0,2.351053917,#f3af84,"[""0"",""0.25""]",up_orange.png,up,,,,,,,,right,right_blue.png,up_orange.png,up,right,up,61327318da83edb47b6f9525,2021-09-11_17h32.32.995,arrow_simon_vert,2021.1.2,MacIntel,59.97361161,,,,,,,,,,,,,,,,,,,,,down,0,1.3543,30,FALSE,TRUE,7,1,29,1,1,,,,,,,
,,,,,,1,2.137719699,#a3d0fb,"[""-0.25"",""0""]",right_blue.png,right,,,,,,,,right,right_blue.png,up_orange.png,up,left,down,61327318da83edb47b6f9525,2021-09-11_17h32.32.995,arrow_simon_vert,2021.1.2,MacIntel,59.97361161,,,,,,,,,,,,,,,,,,,,,left,0,1.5683,31,FALSE,FALSE,7,2,30,0,1,,,,,,,
,,,,,,1,1.790793373,#f3af84,"[""0"",""-0.25""]",down_orange.png,down,,,,,,,,left,left_blue.png,down_orange.png,down,left,down,61327318da83edb47b6f9525,2021-09-11_17h32.32.995,arrow_simon_vert,2021.1.2,MacIntel,59.97361161,,,,,,,,,,,,,,,,,,,,,down,1,1.1509,32,FALSE,TRUE,7,3,31,2,1,,,,,,,
,,,,,,0,1.617059011,#a3d0fb,"[""0.25"",""0""]",right_blue.png,right,,,,,,,,right,right_blue.png,up_orange.png,up,right,up,61327318da83edb47b6f9525,2021-09-11_17h32.32.995,arrow_simon_vert,2021.1.2,MacIntel,59.97361161,,,,,,,,,,,,,,,,,,,,,right,1,1.5014,33,FALSE,FALSE,8,0,32,1,1,,,,,,,
,,,,,,0,1.618020373,#f3af84,"[""0"",""-0.25""]",down_orange.png,down,,,,,,,,left,left_blue.png,down_orange.png,down,left,down,61327318da83edb47b6f9525,2021-09-11_17h32.32.995,arrow_simon_vert,2021.1.2,MacIntel,59.97361161,,,,,,,,,,,,,,,,,,,,,down,1,1.3677,34,FALSE,TRUE,8,1,33,2,1,,,,,,,
,,,,,,0,1.554583663,#a3d0fb,"[""0.25"",""0""]",right_blue.png,right,,,,,,,,right,right_blue.png,up_orange.png,up,right,up,61327318da83edb47b6f9525,2021-09-11_17h32.32.995,arrow_simon_vert,2021.1.2,MacIntel,59.97361161,,,,,,,,,,,,,,,,,,,,,right,1,1.8455,35,TRUE,FALSE,8,2,34,1,1,,,,,,,
,,,,,,0,1.513985366,#f3af84,"[""0"",""-0.25""]",up_orange.png,up,,,,,,,,right,right_blue.png,up_orange.png,up,left,down,61327318da83edb47b6f9525,2021-09-11_17h32.32.995,arrow_simon_vert,2021.1.2,MacIntel,59.97361161,,,,,,,,,,,,,,,,,,,,,up,1,1.4545,36,FALSE,FALSE,8,3,35,0,1,,,,,,,
,,,,,,0,1.966436003,#a3d0fb,"[""0.25"",""0""]",left_blue.png,left,,,,,,,,left,left_blue.png,down_orange.png,down,right,up,61327318da83edb47b6f9525,2021-09-11_17h32.32.995,arrow_simon_vert,2021.1.2,MacIntel,59.97361161,,,,,,,,,,,,,,,,,,,,,left,1,1.6029,37,TRUE,FALSE,9,0,36,3,1,,,,,,,
,,,,,,0,2.254013799,#f3af84,"[""0"",""0.25""]",up_orange.png,up,,,,,,,,right,right_blue.png,up_orange.png,up,right,up,61327318da83edb47b6f9525,2021-09-11_17h32.32.995,arrow_simon_vert,2021.1.2,MacIntel,59.97361161,,,,,,,,,,,,,,,,,,,,,up,1,1.6028,38,TRUE,FALSE,9,1,37,1,1,,,,,,,
,,,,,,0,2.220923353,#a3d0fb,"[""-0.25"",""0""]",right_blue.png,right,,,,,,,,right,right_blue.png,up_orange.png,up,left,down,61327318da83edb47b6f9525,2021-09-11_17h32.32.995,arrow_simon_vert,2021.1.2,MacIntel,59.97361161,,,,,,,,,,,,,,,,,,,,,right,1,1.6177,39,TRUE,FALSE,9,2,38,0,1,,,,,,,
,,,,,,0,2.257262986,#f3af84,"[""0"",""0.25""]",up_orange.png,up,,,,,,,,right,right_blue.png,up_orange.png,up,right,up,61327318da83edb47b6f9525,2021-09-11_17h32.32.995,arrow_simon_vert,2021.1.2,MacIntel,59.97361161,,,,,,,,,,,,,,,,,,,,,up,1,1.6354,40,TRUE,FALSE,9,3,39,1,1,,,,,,,
,,,,,,0,1.821726663,#a3d0fb,"[""0.25"",""0""]",left_blue.png,left,,,,,,,,left,left_blue.png,down_orange.png,down,right,up,61327318da83edb47b6f9525,2021-09-11_17h32.32.995,arrow_simon_vert,2021.1.2,MacIntel,59.97361161,,,,,,,,,,,,,,,,,,,,,left,1,1.3625,41,FALSE,TRUE,10,0,40,3,1,,,,,,,
,,,,,,0,1.71770247,#f3af84,"[""0"",""0.25""]",down_orange.png,down,,,,,,,,left,left_blue.png,down_orange.png,down,right,up,61327318da83edb47b6f9525,2021-09-11_17h32.32.995,arrow_simon_vert,2021.1.2,MacIntel,59.97361161,,,,,,,,,,,,,,,,,,,,,down,1,1.6611,42,TRUE,FALSE,10,1,41,3,1,,,,,,,
,,,,,,0,1.978457617,#a3d0fb,"[""0.25"",""0""]",left_blue.png,left,,,,,,,,left,left_blue.png,down_orange.png,down,right,up,61327318da83edb47b6f9525,2021-09-11_17h32.32.995,arrow_simon_vert,2021.1.2,MacIntel,59.97361161,,,,,,,,,,,,,,,,,,,,,left,1,1.3352,43,FALSE,TRUE,10,2,42,3,1,,,,,,,
,,,,,,0,1.997561144,#f3af84,"[""0"",""-0.25""]",up_orange.png,up,,,,,,,,right,right_blue.png,up_orange.png,up,left,down,61327318da83edb47b6f9525,2021-09-11_17h32.32.995,arrow_simon_vert,2021.1.2,MacIntel,59.97361161,,,,,,,,,,,,,,,,,,,,,up,1,1.5846,44,FALSE,FALSE,10,3,43,0,1,,,,,,,
,,,,,,0,1.854664613,#a3d0fb,"[""-0.25"",""0""]",right_blue.png,right,,,,,,,,right,right_blue.png,up_orange.png,up,left,down,61327318da83edb47b6f9525,2021-09-11_17h32.32.995,arrow_simon_vert,2021.1.2,MacIntel,59.97361161,,,,,,,,,,,,,,,,,,,,,right,1,1.2852,45,FALSE,TRUE,11,0,44,0,1,,,,,,,
,,,,,,0,1.775277783,#f3af84,"[""0"",""0.25""]",up_orange.png,up,,,,,,,,right,right_blue.png,up_orange.png,up,right,up,61327318da83edb47b6f9525,2021-09-11_17h32.32.995,arrow_simon_vert,2021.1.2,MacIntel,59.97361161,,,,,,,,,,,,,,,,,,,,,up,1,1.5635,46,FALSE,FALSE,11,1,45,1,1,,,,,,,
,,,,,,0,2.045978149,#a3d0fb,"[""-0.25"",""0""]",right_blue.png,right,,,,,,,,right,right_blue.png,up_orange.png,up,left,down,61327318da83edb47b6f9525,2021-09-11_17h32.32.995,arrow_simon_vert,2021.1.2,MacIntel,59.97361161,,,,,,,,,,,,,,,,,,,,,right,1,1.765,47,TRUE,FALSE,11,2,46,0,1,,,,,,,
,,,,,,0,1.780940174,#f3af84,"[""0"",""-0.25""]",up_orange.png,up,,,,,,,,right,right_blue.png,up_orange.png,up,left,down,61327318da83edb47b6f9525,2021-09-11_17h32.32.995,arrow_simon_vert,2021.1.2,MacIntel,59.97361161,,,,,,,,,,,,,,,,,,,,,up,1,1.5348,48,FALSE,FALSE,11,3,47,0,1,,,,,,,
,,,,,,1,2.020733884,#a3d0fb,"[""0.25"",""0""]",left_blue.png,left,,,,,,,,left,left_blue.png,down_orange.png,down,right,up,61327318da83edb47b6f9525,2021-09-11_17h32.32.995,arrow_simon_vert,2021.1.2,MacIntel,59.97361161,,,,,,,,,,,,,,,,,,,,,up,0,1.4146,49,FALSE,FALSE,12,0,48,3,1,,,,,,,
,,,,,,0,1.687366103,#f3af84,"[""0"",""-0.25""]",up_orange.png,up,,,,,,,,right,right_blue.png,up_orange.png,up,left,down,61327318da83edb47b6f9525,2021-09-11_17h32.32.995,arrow_simon_vert,2021.1.2,MacIntel,59.97361161,,,,,,,,,,,,,,,,,,,,,up,1,1.4707,50,FALSE,FALSE,12,1,49,0,1,,,,,,,
,,,,,,0,1.726406988,#a3d0fb,"[""-0.25"",""0""]",left_blue.png,left,,,,,,,,left,left_blue.png,down_orange.png,down,left,down,61327318da83edb47b6f9525,2021-09-11_17h32.32.995,arrow_simon_vert,2021.1.2,MacIntel,59.97361161,,,,,,,,,,,,,,,,,,,,,left,1,1.1182,51,FALSE,TRUE,12,2,50,2,1,,,,,,,
,,,,,,0,1.99618591,#f3af84,"[""0"",""-0.25""]",up_orange.png,up,,,,,,,,right,right_blue.png,up_orange.png,up,left,down,61327318da83edb47b6f9525,2021-09-11_17h32.32.995,arrow_simon_vert,2021.1.2,MacIntel,59.97361161,,,,,,,,,,,,,,,,,,,,,up,1,1.5851,52,FALSE,FALSE,12,3,51,0,1,,,,,,,
,,,,,,0,2.212270998,#a3d0fb,"[""0.25"",""0""]",left_blue.png,left,,,,,,,,left,left_blue.png,down_orange.png,down,right,up,61327318da83edb47b6f9525,2021-09-11_17h32.32.995,arrow_simon_vert,2021.1.2,MacIntel,59.97361161,,,,,,,,,,,,,,,,,,,,,left,1,1.6512,53,TRUE,FALSE,13,0,52,3,1,,,,,,,
,,,,,,0,1.720712509,#f3af84,"[""0"",""-0.25""]",up_orange.png,up,,,,,,,,right,right_blue.png,up_orange.png,up,left,down,61327318da83edb47b6f9525,2021-09-11_17h32.32.995,arrow_simon_vert,2021.1.2,MacIntel,59.97361161,,,,,,,,,,,,,,,,,,,,,up,1,1.7008,54,TRUE,FALSE,13,1,53,0,1,,,,,,,
,,,,,,0,2.394742756,#a3d0fb,"[""-0.25"",""0""]",right_blue.png,right,,,,,,,,right,right_blue.png,up_orange.png,up,left,down,61327318da83edb47b6f9525,2021-09-11_17h32.32.995,arrow_simon_vert,2021.1.2,MacIntel,59.97361161,,,,,,,,,,,,,,,,,,,,,right,1,1.8018,55,TRUE,FALSE,13,2,54,0,1,,,,,,,
,,,,,,0,2.302699206,#f3af84,"[""0"",""0.25""]",up_orange.png,up,,,,,,,,right,right_blue.png,up_orange.png,up,right,up,61327318da83edb47b6f9525,2021-09-11_17h32.32.995,arrow_simon_vert,2021.1.2,MacIntel,59.97361161,,,,,,,,,,,,,,,,,,,,,up,1,1.7516,56,TRUE,FALSE,13,3,55,1,1,,,,,,,
,,,,,,0,1.784330587,#a3d0fb,"[""-0.25"",""0""]",left_blue.png,left,,,,,,,,left,left_blue.png,down_orange.png,down,left,down,61327318da83edb47b6f9525,2021-09-11_17h32.32.995,arrow_simon_vert,2021.1.2,MacIntel,59.97361161,,,,,,,,,,,,,,,,,,,,,left,1,1.3202,57,FALSE,TRUE,14,0,56,2,1,,,,,,,
,,,,,,0,2.192704492,#f3af84,"[""0"",""-0.25""]",up_orange.png,up,,,,,,,,right,right_blue.png,up_orange.png,up,left,down,61327318da83edb47b6f9525,2021-09-11_17h32.32.995,arrow_simon_vert,2021.1.2,MacIntel,59.97361161,,,,,,,,,,,,,,,,,,,,,up,1,1.7681,58,TRUE,FALSE,14,1,57,0,1,,,,,,,
,,,,,,0,2.14247602,#a3d0fb,"[""0.25"",""0""]",right_blue.png,right,,,,,,,,right,right_blue.png,up_orange.png,up,right,up,61327318da83edb47b6f9525,2021-09-11_17h32.32.995,arrow_simon_vert,2021.1.2,MacIntel,59.97361161,,,,,,,,,,,,,,,,,,,,,right,1,1.4712,59,FALSE,FALSE,14,2,58,1,1,,,,,,,
,,,,,,0,1.619364459,#f3af84,"[""0"",""-0.25""]",down_orange.png,down,,,,,,,,left,left_blue.png,down_orange.png,down,left,down,61327318da83edb47b6f9525,2021-09-11_17h32.32.995,arrow_simon_vert,2021.1.2,MacIntel,59.97361161,,,,,,,,,,,,,,,,,,,,,down,1,1.5897,60,FALSE,FALSE,14,3,59,2,1,,,,,,,
,,,,,,,,,,,,,,,,,,,,,,,,,61327318da83edb47b6f9525,2021-09-11_17h32.32.995,arrow_simon_vert,2021.1.2,MacIntel,59.97361161,,,,,,,,,,,,,,,,,,,,,,,,,,,,,,,,space,50.3316,1,0,1,0,1
,,,,,,0,2.236336847,#a3d0fb,"[""-0.25"",""0""]",left_blue.png,left,,,,,,,,left,left_blue.png,down_orange.png,down,left,down,61327318da83edb47b6f9525,2021-09-11_17h32.32.995,arrow_simon_vert,2021.1.2,MacIntel,59.97361161,,,,,,,,,,,,,,,,,,,,,left,1,1.502,1,FALSE,FALSE,0,0,0,2,1,,,,,,,
,,,,,,0,1.966750183,#f3af84,"[""0"",""0.25""]",down_orange.png,down,,,,,,,,left,left_blue.png,down_orange.png,down,right,up,61327318da83edb47b6f9525,2021-09-11_17h32.32.995,arrow_simon_vert,2021.1.2,MacIntel,59.97361161,,,,,,,,,,,,,,,,,,,,,down,1,1.6026,2,TRUE,FALSE,0,1,1,3,1,,,,,,,
,,,,,,0,2.008980304,#a3d0fb,"[""0.25"",""0""]",right_blue.png,right,,,,,,,,right,right_blue.png,up_orange.png,up,right,up,61327318da83edb47b6f9525,2021-09-11_17h32.32.995,arrow_simon_vert,2021.1.2,MacIntel,59.97361161,,,,,,,,,,,,,,,,,,,,,right,1,1.4971,3,FALSE,FALSE,0,2,2,1,1,,,,,,,
,,,,,,1,2.13356219,#f3af84,"[""0"",""-0.25""]",down_orange.png,down,,,,,,,,left,left_blue.png,down_orange.png,down,left,down,61327318da83edb47b6f9525,2021-09-11_17h32.32.995,arrow_simon_vert,2021.1.2,MacIntel,59.97361161,,,,,,,,,,,,,,,,,,,,,left,0,1.5254,4,FALSE,FALSE,0,3,3,2,1,,,,,,,
,,,,,,1,2.396759906,#a3d0fb,"[""-0.25"",""0""]",left_blue.png,left,,,,,,,,left,left_blue.png,down_orange.png,down,left,down,61327318da83edb47b6f9525,2021-09-11_17h32.32.995,arrow_simon_vert,2021.1.2,MacIntel,59.97361161,,,,,,,,,,,,,,,,,,,,,left,1,1.7451,5,TRUE,FALSE,1,0,4,2,1,,,,,,,
,,,,,,1,1.919220516,#f3af84,"[""0"",""-0.25""]",down_orange.png,down,,,,,,,,left,left_blue.png,down_orange.png,down,left,down,61327318da83edb47b6f9525,2021-09-11_17h32.32.995,arrow_simon_vert,2021.1.2,MacIntel,59.97361161,,,,,,,,,,,,,,,,,,,,,down,1,1.3034,6,FALSE,TRUE,1,1,5,2,1,,,,,,,
,,,,,,1,2.281270881,#a3d0fb,"[""-0.25"",""0""]",right_blue.png,right,,,,,,,,right,right_blue.png,up_orange.png,up,left,down,61327318da83edb47b6f9525,2021-09-11_17h32.32.995,arrow_simon_vert,2021.1.2,MacIntel,59.97361161,,,,,,,,,,,,,,,,,,,,,right,1,1.6076,7,TRUE,FALSE,1,2,6,0,1,,,,,,,
,,,,,,0,1.509010923,#f3af84,"[""0"",""-0.25""]",down_orange.png,down,,,,,,,,left,left_blue.png,down_orange.png,down,left,down,61327318da83edb47b6f9525,2021-09-11_17h32.32.995,arrow_simon_vert,2021.1.2,MacIntel,59.97361161,,,,,,,,,,,,,,,,,,,,,down,1,1.5844,8,FALSE,FALSE,1,3,7,2,1,,,,,,,
,,,,,,0,2.332506472,#a3d0fb,"[""0.25"",""0""]",right_blue.png,right,,,,,,,,right,right_blue.png,up_orange.png,up,right,up,61327318da83edb47b6f9525,2021-09-11_17h32.32.995,arrow_simon_vert,2021.1.2,MacIntel,59.97361161,,,,,,,,,,,,,,,,,,,,,right,1,1.7831,9,TRUE,FALSE,2,0,8,1,1,,,,,,,
,,,,,,0,1.851361157,#f3af84,"[""0"",""-0.25""]",up_orange.png,up,,,,,,,,right,right_blue.png,up_orange.png,up,left,down,61327318da83edb47b6f9525,2021-09-11_17h32.32.995,arrow_simon_vert,2021.1.2,MacIntel,59.97361161,,,,,,,,,,,,,,,,,,,,,up,1,1.3511,10,FALSE,TRUE,2,1,9,0,1,,,,,,,
,,,,,,0,2.095669961,#a3d0fb,"[""-0.25"",""0""]",right_blue.png,right,,,,,,,,right,right_blue.png,up_orange.png,up,left,down,61327318da83edb47b6f9525,2021-09-11_17h32.32.995,arrow_simon_vert,2021.1.2,MacIntel,59.97361161,,,,,,,,,,,,,,,,,,,,,right,1,1.4848,11,FALSE,FALSE,2,2,10,0,1,,,,,,,
,,,,,,0,2.264383951,#f3af84,"[""0"",""-0.25""]",down_orange.png,down,,,,,,,,left,left_blue.png,down_orange.png,down,left,down,61327318da83edb47b6f9525,2021-09-11_17h32.32.995,arrow_simon_vert,2021.1.2,MacIntel,59.97361161,,,,,,,,,,,,,,,,,,,,,down,1,1.7342,12,TRUE,FALSE,2,3,11,2,1,,,,,,,
,,,,,,0,2.281983292,#a3d0fb,"[""0.25"",""0""]",right_blue.png,right,,,,,,,,right,right_blue.png,up_orange.png,up,right,up,61327318da83edb47b6f9525,2021-09-11_17h32.32.995,arrow_simon_vert,2021.1.2,MacIntel,59.97361161,,,,,,,,,,,,,,,,,,,,,right,1,1.6017,13,TRUE,FALSE,3,0,12,1,1,,,,,,,
,,,,,,0,2.069123834,#f3af84,"[""0"",""0.25""]",down_orange.png,down,,,,,,,,left,left_blue.png,down_orange.png,down,right,up,61327318da83edb47b6f9525,2021-09-11_17h32.32.995,arrow_simon_vert,2021.1.2,MacIntel,59.97361161,,,,,,,,,,,,,,,,,,,,,down,1,1.7209,14,TRUE,FALSE,3,1,13,3,1,,,,,,,
,,,,,,0,1.735814635,#a3d0fb,"[""0.25"",""0""]",left_blue.png,left,,,,,,,,left,left_blue.png,down_orange.png,down,right,up,61327318da83edb47b6f9525,2021-09-11_17h32.32.995,arrow_simon_vert,2021.1.2,MacIntel,59.97361161,,,,,,,,,,,,,,,,,,,,,left,1,1.5945,15,FALSE,FALSE,3,2,14,3,1,,,,,,,
,,,,,,0,1.615810848,#f3af84,"[""0"",""0.25""]",down_orange.png,down,,,,,,,,left,left_blue.png,down_orange.png,down,right,up,61327318da83edb47b6f9525,2021-09-11_17h32.32.995,arrow_simon_vert,2021.1.2,MacIntel,59.97361161,,,,,,,,,,,,,,,,,,,,,down,1,1.8026,16,TRUE,FALSE,3,3,15,3,1,,,,,,,
,,,,,,0,1.654378004,#a3d0fb,"[""0.25"",""0""]",left_blue.png,left,,,,,,,,left,left_blue.png,down_orange.png,down,right,up,61327318da83edb47b6f9525,2021-09-11_17h32.32.995,arrow_simon_vert,2021.1.2,MacIntel,59.97361161,,,,,,,,,,,,,,,,,,,,,left,1,1.3337,17,FALSE,TRUE,4,0,16,3,1,,,,,,,
,,,,,,0,1.725869576,#f3af84,"[""0"",""0.25""]",up_orange.png,up,,,,,,,,right,right_blue.png,up_orange.png,up,right,up,61327318da83edb47b6f9525,2021-09-11_17h32.32.995,arrow_simon_vert,2021.1.2,MacIntel,59.97361161,,,,,,,,,,,,,,,,,,,,,up,1,1.3873,18,FALSE,TRUE,4,1,17,1,1,,,,,,,
,,,,,,0,2.001987179,#a3d0fb,"[""0.25"",""0""]",left_blue.png,left,,,,,,,,left,left_blue.png,down_orange.png,down,right,up,61327318da83edb47b6f9525,2021-09-11_17h32.32.995,arrow_simon_vert,2021.1.2,MacIntel,59.97361161,,,,,,,,,,,,,,,,,,,,,left,1,1.435,19,FALSE,FALSE,4,2,18,3,1,,,,,,,
,,,,,,0,2.418608912,#f3af84,"[""0"",""0.25""]",down_orange.png,down,,,,,,,,left,left_blue.png,down_orange.png,down,right,up,61327318da83edb47b6f9525,2021-09-11_17h32.32.995,arrow_simon_vert,2021.1.2,MacIntel,59.97361161,,,,,,,,,,,,,,,,,,,,,down,1,2.2017,20,TRUE,FALSE,4,3,19,3,1,,,,,,,
,,,,,,0,2.247312865,#a3d0fb,"[""-0.25"",""0""]",left_blue.png,left,,,,,,,,left,left_blue.png,down_orange.png,down,left,down,61327318da83edb47b6f9525,2021-09-11_17h32.32.995,arrow_simon_vert,2021.1.2,MacIntel,59.97361161,,,,,,,,,,,,,,,,,,,,,left,1,1.5678,21,FALSE,FALSE,5,0,20,2,1,,,,,,,
,,,,,,0,2.442595324,#f3af84,"[""0"",""0.25""]",down_orange.png,down,,,,,,,,left,left_blue.png,down_orange.png,down,right,up,61327318da83edb47b6f9525,2021-09-11_17h32.32.995,arrow_simon_vert,2021.1.2,MacIntel,59.97361161,,,,,,,,,,,,,,,,,,,,,down,1,1.9851,22,TRUE,FALSE,5,1,21,3,1,,,,,,,
,,,,,,0,1.756931866,#a3d0fb,"[""-0.25"",""0""]",left_blue.png,left,,,,,,,,left,left_blue.png,down_orange.png,down,left,down,61327318da83edb47b6f9525,2021-09-11_17h32.32.995,arrow_simon_vert,2021.1.2,MacIntel,59.97361161,,,,,,,,,,,,,,,,,,,,,left,1,1.1026,23,FALSE,TRUE,5,2,22,2,1,,,,,,,
,,,,,,0,2.229931771,#f3af84,"[""0"",""0.25""]",up_orange.png,up,,,,,,,,right,right_blue.png,up_orange.png,up,right,up,61327318da83edb47b6f9525,2021-09-11_17h32.32.995,arrow_simon_vert,2021.1.2,MacIntel,59.97361161,,,,,,,,,,,,,,,,,,,,,up,1,1.893,24,TRUE,FALSE,5,3,23,1,1,,,,,,,
,,,,,,0,2.131930107,#a3d0fb,"[""0.25"",""0""]",left_blue.png,left,,,,,,,,left,left_blue.png,down_orange.png,down,right,up,61327318da83edb47b6f9525,2021-09-11_17h32.32.995,arrow_simon_vert,2021.1.2,MacIntel,59.97361161,,,,,,,,,,,,,,,,,,,,,left,1,1.5359,25,FALSE,FALSE,6,0,24,3,1,,,,,,,
,,,,,,0,1.501385669,#f3af84,"[""0"",""-0.25""]",up_orange.png,up,,,,,,,,right,right_blue.png,up_orange.png,up,left,down,61327318da83edb47b6f9525,2021-09-11_17h32.32.995,arrow_simon_vert,2021.1.2,MacIntel,59.97361161,,,,,,,,,,,,,,,,,,,,,up,1,1.3348,26,FALSE,TRUE,6,1,25,0,1,,,,,,,
,,,,,,0,1.773714007,#a3d0fb,"[""-0.25"",""0""]",right_blue.png,right,,,,,,,,right,right_blue.png,up_orange.png,up,left,down,61327318da83edb47b6f9525,2021-09-11_17h32.32.995,arrow_simon_vert,2021.1.2,MacIntel,59.97361161,,,,,,,,,,,,,,,,,,,,,right,1,1.4699,27,FALSE,FALSE,6,2,26,0,1,,,,,,,
,,,,,,0,1.538914815,#f3af84,"[""0"",""0.25""]",up_orange.png,up,,,,,,,,right,right_blue.png,up_orange.png,up,right,up,61327318da83edb47b6f9525,2021-09-11_17h32.32.995,arrow_simon_vert,2021.1.2,MacIntel,59.97361161,,,,,,,,,,,,,,,,,,,,,up,1,1.235,28,FALSE,TRUE,6,3,27,1,1,,,,,,,
,,,,,,0,1.588516574,#a3d0fb,"[""-0.25"",""0""]",left_blue.png,left,,,,,,,,left,left_blue.png,down_orange.png,down,left,down,61327318da83edb47b6f9525,2021-09-11_17h32.32.995,arrow_simon_vert,2021.1.2,MacIntel,59.97361161,,,,,,,,,,,,,,,,,,,,,left,1,1.7029,29,TRUE,FALSE,7,0,28,2,1,,,,,,,
,,,,,,0,1.749767182,#f3af84,"[""0"",""0.25""]",up_orange.png,up,,,,,,,,right,right_blue.png,up_orange.png,up,right,up,61327318da83edb47b6f9525,2021-09-11_17h32.32.995,arrow_simon_vert,2021.1.2,MacIntel,59.97361161,,,,,,,,,,,,,,,,,,,,,up,1,1.496,30,FALSE,FALSE,7,1,29,1,1,,,,,,,
,,,,,,0,1.932712803,#a3d0fb,"[""-0.25"",""0""]",right_blue.png,right,,,,,,,,right,right_blue.png,up_orange.png,up,left,down,61327318da83edb47b6f9525,2021-09-11_17h32.32.995,arrow_simon_vert,2021.1.2,MacIntel,59.97361161,,,,,,,,,,,,,,,,,,,,,right,1,1.4858,31,FALSE,FALSE,7,2,30,0,1,,,,,,,
,,,,,,0,2.237449533,#f3af84,"[""0"",""0.25""]",up_orange.png,up,,,,,,,,right,right_blue.png,up_orange.png,up,right,up,61327318da83edb47b6f9525,2021-09-11_17h32.32.995,arrow_simon_vert,2021.1.2,MacIntel,59.97361161,,,,,,,,,,,,,,,,,,,,,up,1,1.6359,32,TRUE,FALSE,7,3,31,1,1,,,,,,,
,,,,,,0,2.373352299,#a3d0fb,"[""0.25"",""0""]",right_blue.png,right,,,,,,,,right,right_blue.png,up_orange.png,up,right,up,61327318da83edb47b6f9525,2021-09-11_17h32.32.995,arrow_simon_vert,2021.1.2,MacIntel,59.97361161,,,,,,,,,,,,,,,,,,,,,right,1,1.6851,33,TRUE,FALSE,8,0,32,1,1,,,,,,,
,,,,,,0,1.94052049,#f3af84,"[""0"",""0.25""]",down_orange.png,down,,,,,,,,left,left_blue.png,down_orange.png,down,right,up,61327318da83edb47b6f9525,2021-09-11_17h32.32.995,arrow_simon_vert,2021.1.2,MacIntel,59.97361161,,,,,,,,,,,,,,,,,,,,,down,1,1.6765,34,TRUE,FALSE,8,1,33,3,1,,,,,,,
,,,,,,0,1.748830578,#a3d0fb,"[""-0.25"",""0""]",right_blue.png,right,,,,,,,,right,right_blue.png,up_orange.png,up,left,down,61327318da83edb47b6f9525,2021-09-11_17h32.32.995,arrow_simon_vert,2021.1.2,MacIntel,59.97361161,,,,,,,,,,,,,,,,,,,,,right,1,1.301,35,FALSE,TRUE,8,2,34,0,1,,,,,,,
,,,,,,0,1.845317225,#f3af84,"[""0"",""0.25""]",down_orange.png,down,,,,,,,,left,left_blue.png,down_orange.png,down,right,up,61327318da83edb47b6f9525,2021-09-11_17h32.32.995,arrow_simon_vert,2021.1.2,MacIntel,59.97361161,,,,,,,,,,,,,,,,,,,,,down,1,1.7009,36,TRUE,FALSE,8,3,35,3,1,,,,,,,
,,,,,,0,1.842131882,#a3d0fb,"[""0.25"",""0""]",right_blue.png,right,,,,,,,,right,right_blue.png,up_orange.png,up,right,up,61327318da83edb47b6f9525,2021-09-11_17h32.32.995,arrow_simon_vert,2021.1.2,MacIntel,59.97361161,,,,,,,,,,,,,,,,,,,,,right,1,1.3007,37,FALSE,TRUE,9,0,36,1,1,,,,,,,
,,,,,,0,1.907010782,#f3af84,"[""0"",""0.25""]",down_orange.png,down,,,,,,,,left,left_blue.png,down_orange.png,down,right,up,61327318da83edb47b6f9525,2021-09-11_17h32.32.995,arrow_simon_vert,2021.1.2,MacIntel,59.97361161,,,,,,,,,,,,,,,,,,,,,down,1,1.7518,38,TRUE,FALSE,9,1,37,3,1,,,,,,,
,,,,,,0,1.583129779,#a3d0fb,"[""0.25"",""0""]",left_blue.png,left,,,,,,,,left,left_blue.png,down_orange.png,down,right,up,61327318da83edb47b6f9525,2021-09-11_17h32.32.995,arrow_simon_vert,2021.1.2,MacIntel,59.97361161,,,,,,,,,,,,,,,,,,,,,left,1,1.0203,39,FALSE,TRUE,9,2,38,3,1,,,,,,,
,,,,,,0,1.672198953,#f3af84,"[""0"",""-0.25""]",down_orange.png,down,,,,,,,,left,left_blue.png,down_orange.png,down,left,down,61327318da83edb47b6f9525,2021-09-11_17h32.32.995,arrow_simon_vert,2021.1.2,MacIntel,59.97361161,,,,,,,,,,,,,,,,,,,,,down,1,1.1348,40,FALSE,TRUE,9,3,39,2,1,,,,,,,
,,,,,,0,1.516583102,#a3d0fb,"[""0.25"",""0""]",left_blue.png,left,,,,,,,,left,left_blue.png,down_orange.png,down,right,up,61327318da83edb47b6f9525,2021-09-11_17h32.32.995,arrow_simon_vert,2021.1.2,MacIntel,59.97361161,,,,,,,,,,,,,,,,,,,,,left,1,1.4679,41,FALSE,FALSE,10,0,40,3,1,,,,,,,
,,,,,,0,2.028040021,#f3af84,"[""0"",""-0.25""]",up_orange.png,up,,,,,,,,right,right_blue.png,up_orange.png,up,left,down,61327318da83edb47b6f9525,2021-09-11_17h32.32.995,arrow_simon_vert,2021.1.2,MacIntel,59.97361161,,,,,,,,,,,,,,,,,,,,,up,1,1.8187,42,TRUE,FALSE,10,1,41,0,1,,,,,,,
,,,,,,0,1.579888578,#a3d0fb,"[""-0.25"",""0""]",right_blue.png,right,,,,,,,,right,right_blue.png,up_orange.png,up,left,down,61327318da83edb47b6f9525,2021-09-11_17h32.32.995,arrow_simon_vert,2021.1.2,MacIntel,59.97361161,,,,,,,,,,,,,,,,,,,,,right,1,1.2187,43,FALSE,TRUE,10,2,42,0,1,,,,,,,
,,,,,,1,2.25814825,#f3af84,"[""0"",""-0.25""]",down_orange.png,down,,,,,,,,left,left_blue.png,down_orange.png,down,left,down,61327318da83edb47b6f9525,2021-09-11_17h32.32.995,arrow_simon_vert,2021.1.2,MacIntel,59.97361161,,,,,,,,,,,,,,,,,,,,,up,0,1.5282,44,FALSE,FALSE,10,3,43,2,1,,,,,,,
,,,,,,1,2.241712398,#a3d0fb,"[""0.25"",""0""]",right_blue.png,right,,,,,,,,right,right_blue.png,up_orange.png,up,right,up,61327318da83edb47b6f9525,2021-09-11_17h32.32.995,arrow_simon_vert,2021.1.2,MacIntel,59.97361161,,,,,,,,,,,,,,,,,,,,,left,0,1.5192,45,FALSE,FALSE,11,0,44,1,1,,,,,,,
,,,,,,1,1.868600187,#f3af84,"[""0"",""-0.25""]",up_orange.png,up,,,,,,,,right,right_blue.png,up_orange.png,up,left,down,61327318da83edb47b6f9525,2021-09-11_17h32.32.995,arrow_simon_vert,2021.1.2,MacIntel,59.97361161,,,,,,,,,,,,,,,,,,,,,up,1,1.6604,46,TRUE,FALSE,11,1,45,0,1,,,,,,,
,,,,,,0,2.176991266,#a3d0fb,"[""-0.25"",""0""]",right_blue.png,right,,,,,,,,right,right_blue.png,up_orange.png,up,left,down,61327318da83edb47b6f9525,2021-09-11_17h32.32.995,arrow_simon_vert,2021.1.2,MacIntel,59.97361161,,,,,,,,,,,,,,,,,,,,,right,1,1.4599,47,FALSE,FALSE,11,2,46,0,1,,,,,,,
,,,,,,0,2.104804841,#f3af84,"[""0"",""-0.25""]",down_orange.png,down,,,,,,,,left,left_blue.png,down_orange.png,down,left,down,61327318da83edb47b6f9525,2021-09-11_17h32.32.995,arrow_simon_vert,2021.1.2,MacIntel,59.97361161,,,,,,,,,,,,,,,,,,,,,down,1,1.5858,48,FALSE,FALSE,11,3,47,2,1,,,,,,,
,,,,,,0,1.909625483,#a3d0fb,"[""0.25"",""0""]",right_blue.png,right,,,,,,,,right,right_blue.png,up_orange.png,up,right,up,61327318da83edb47b6f9525,2021-09-11_17h32.32.995,arrow_simon_vert,2021.1.2,MacIntel,59.97361161,,,,,,,,,,,,,,,,,,,,,right,1,1.3015,49,FALSE,TRUE,12,0,48,1,1,,,,,,,
,,,,,,0,2.112038106,#f3af84,"[""0"",""-0.25""]",up_orange.png,up,,,,,,,,right,right_blue.png,up_orange.png,up,left,down,61327318da83edb47b6f9525,2021-09-11_17h32.32.995,arrow_simon_vert,2021.1.2,MacIntel,59.97361161,,,,,,,,,,,,,,,,,,,,,up,1,1.4768,50,FALSE,FALSE,12,1,49,0,1,,,,,,,
,,,,,,0,2.162688516,#a3d0fb,"[""-0.25"",""0""]",right_blue.png,right,,,,,,,,right,right_blue.png,up_orange.png,up,left,down,61327318da83edb47b6f9525,2021-09-11_17h32.32.995,arrow_simon_vert,2021.1.2,MacIntel,59.97361161,,,,,,,,,,,,,,,,,,,,,right,1,1.5359,51,FALSE,FALSE,12,2,50,0,1,,,,,,,
,,,,,,0,2.463448925,#f3af84,"[""0"",""-0.25""]",down_orange.png,down,,,,,,,,left,left_blue.png,down_orange.png,down,left,down,61327318da83edb47b6f9525,2021-09-11_17h32.32.995,arrow_simon_vert,2021.1.2,MacIntel,59.97361161,,,,,,,,,,,,,,,,,,,,,down,1,1.7453,52,TRUE,FALSE,12,3,51,2,1,,,,,,,
,,,,,,0,2.344056551,#a3d0fb,"[""-0.25"",""0""]",right_blue.png,right,,,,,,,,right,right_blue.png,up_orange.png,up,left,down,61327318da83edb47b6f9525,2021-09-11_17h32.32.995,arrow_simon_vert,2021.1.2,MacIntel,59.97361161,,,,,,,,,,,,,,,,,,,,,right,1,2.1541,53,TRUE,FALSE,13,0,52,0,1,,,,,,,
,,,,,,0,2.247786042,#f3af84,"[""0"",""-0.25""]",up_orange.png,up,,,,,,,,right,right_blue.png,up_orange.png,up,left,down,61327318da83edb47b6f9525,2021-09-11_17h32.32.995,arrow_simon_vert,2021.1.2,MacIntel,59.97361161,,,,,,,,,,,,,,,,,,,,,up,1,1.9348,54,TRUE,FALSE,13,1,53,0,1,,,,,,,
,,,,,,0,1.752336282,#a3d0fb,"[""0.25"",""0""]",left_blue.png,left,,,,,,,,left,left_blue.png,down_orange.png,down,right,up,61327318da83edb47b6f9525,2021-09-11_17h32.32.995,arrow_simon_vert,2021.1.2,MacIntel,59.97361161,,,,,,,,,,,,,,,,,,,,,left,1,1.2924,55,FALSE,TRUE,13,2,54,3,1,,,,,,,
,,,,,,0,2.104163734,#f3af84,"[""0"",""0.25""]",up_orange.png,up,,,,,,,,right,right_blue.png,up_orange.png,up,right,up,61327318da83edb47b6f9525,2021-09-11_17h32.32.995,arrow_simon_vert,2021.1.2,MacIntel,59.97361161,,,,,,,,,,,,,,,,,,,,,up,1,1.5027,56,FALSE,FALSE,13,3,55,1,1,,,,,,,
,,,,,,0,2.173588003,#a3d0fb,"[""0.25"",""0""]",right_blue.png,right,,,,,,,,right,right_blue.png,up_orange.png,up,right,up,61327318da83edb47b6f9525,2021-09-11_17h32.32.995,arrow_simon_vert,2021.1.2,MacIntel,59.97361161,,,,,,,,,,,,,,,,,,,,,right,1,1.5844,57,FALSE,FALSE,14,0,56,1,1,,,,,,,
,,,,,,0,1.861267637,#f3af84,"[""0"",""0.25""]",up_orange.png,up,,,,,,,,right,right_blue.png,up_orange.png,up,right,up,61327318da83edb47b6f9525,2021-09-11_17h32.32.995,arrow_simon_vert,2021.1.2,MacIntel,59.97361161,,,,,,,,,,,,,,,,,,,,,up,1,1.601,58,TRUE,FALSE,14,1,57,1,1,,,,,,,
,,,,,,0,1.524564662,#a3d0fb,"[""-0.25"",""0""]",left_blue.png,left,,,,,,,,left,left_blue.png,down_orange.png,down,left,down,61327318da83edb47b6f9525,2021-09-11_17h32.32.995,arrow_simon_vert,2021.1.2,MacIntel,59.97361161,,,,,,,,,,,,,,,,,,,,,left,1,1.068,59,FALSE,TRUE,14,2,58,2,1,,,,,,,
,,,,,,0,1.52635839,#f3af84,"[""0"",""-0.25""]",down_orange.png,down,,,,,,,,left,left_blue.png,down_orange.png,down,left,down,61327318da83edb47b6f9525,2021-09-11_17h32.32.995,arrow_simon_vert,2021.1.2,MacIntel,59.97361161,,,,,,,,,,,,,,,,,,,,,down,1,1.5525,60,FALSE,FALSE,14,3,59,2,1,,,,,,,
,,,,,,,,,,,,,,,,,,,,,,,,,61327318da83edb47b6f9525,2021-09-11_17h32.32.995,arrow_simon_vert,2021.1.2,MacIntel,59.97361161,,,,,,,,,,,,,,,,,,,,,,,,,,,,,,,,space,10.9378,2,0,2,0,1
,,,,,,0,1.652854372,#a3d0fb,"[""0.25"",""0""]",left_blue.png,left,,,,,,,,left,left_blue.png,down_orange.png,down,right,up,61327318da83edb47b6f9525,2021-09-11_17h32.32.995,arrow_simon_vert,2021.1.2,MacIntel,59.97361161,,,,,,,,,,,,,,,,,,,,,left,1,1.0182,1,FALSE,TRUE,0,0,0,3,1,,,,,,,
,,,,,,0,2.105284583,#f3af84,"[""0"",""0.25""]",up_orange.png,up,,,,,,,,right,right_blue.png,up_orange.png,up,right,up,61327318da83edb47b6f9525,2021-09-11_17h32.32.995,arrow_simon_vert,2021.1.2,MacIntel,59.97361161,,,,,,,,,,,,,,,,,,,,,up,1,1.5523,2,FALSE,FALSE,0,1,1,1,1,,,,,,,
,,,,,,0,1.569911427,#a3d0fb,"[""-0.25"",""0""]",right_blue.png,right,,,,,,,,right,right_blue.png,up_orange.png,up,left,down,61327318da83edb47b6f9525,2021-09-11_17h32.32.995,arrow_simon_vert,2021.1.2,MacIntel,59.97361161,,,,,,,,,,,,,,,,,,,,,right,1,1.5609,3,FALSE,FALSE,0,2,2,0,1,,,,,,,
,,,,,,0,2.045393184,#f3af84,"[""0"",""0.25""]",down_orange.png,down,,,,,,,,left,left_blue.png,down_orange.png,down,right,up,61327318da83edb47b6f9525,2021-09-11_17h32.32.995,arrow_simon_vert,2021.1.2,MacIntel,59.97361161,,,,,,,,,,,,,,,,,,,,,down,1,1.5011,4,FALSE,FALSE,0,3,3,3,1,,,,,,,
,,,,,,0,2.075956674,#a3d0fb,"[""-0.25"",""0""]",left_blue.png,left,,,,,,,,left,left_blue.png,down_orange.png,down,left,down,61327318da83edb47b6f9525,2021-09-11_17h32.32.995,arrow_simon_vert,2021.1.2,MacIntel,59.97361161,,,,,,,,,,,,,,,,,,,,,left,1,1.4504,5,FALSE,FALSE,1,0,4,2,1,,,,,,,
,,,,,,0,1.833339687,#f3af84,"[""0"",""-0.25""]",down_orange.png,down,,,,,,,,left,left_blue.png,down_orange.png,down,left,down,61327318da83edb47b6f9525,2021-09-11_17h32.32.995,arrow_simon_vert,2021.1.2,MacIntel,59.97361161,,,,,,,,,,,,,,,,,,,,,down,1,1.2342,6,FALSE,TRUE,1,1,5,2,1,,,,,,,
,,,,,,1,2.261323081,#a3d0fb,"[""0.25"",""0""]",left_blue.png,left,,,,,,,,left,left_blue.png,down_orange.png,down,right,up,61327318da83edb47b6f9525,2021-09-11_17h32.32.995,arrow_simon_vert,2021.1.2,MacIntel,59.97361161,,,,,,,,,,,,,,,,,,,,,right,0,1.5188,7,FALSE,FALSE,1,2,6,3,1,,,,,,,
,,,,,,1,1.949670574,#f3af84,"[""0"",""-0.25""]",up_orange.png,up,,,,,,,,right,right_blue.png,up_orange.png,up,left,down,61327318da83edb47b6f9525,2021-09-11_17h32.32.995,arrow_simon_vert,2021.1.2,MacIntel,59.97361161,,,,,,,,,,,,,,,,,,,,,up,1,1.835,8,TRUE,FALSE,1,3,7,0,1,,,,,,,
,,,,,,0,1.581655302,#a3d0fb,"[""0.25"",""0""]",right_blue.png,right,,,,,,,,right,right_blue.png,up_orange.png,up,right,up,61327318da83edb47b6f9525,2021-09-11_17h32.32.995,arrow_simon_vert,2021.1.2,MacIntel,59.97361161,,,,,,,,,,,,,,,,,,,,,right,1,1.4518,9,FALSE,FALSE,2,0,8,1,1,,,,,,,
,,,,,,0,1.862133086,#f3af84,"[""0"",""-0.25""]",up_orange.png,up,,,,,,,,right,right_blue.png,up_orange.png,up,left,down,61327318da83edb47b6f9525,2021-09-11_17h32.32.995,arrow_simon_vert,2021.1.2,MacIntel,59.97361161,,,,,,,,,,,,,,,,,,,,,up,1,1.5851,10,FALSE,FALSE,2,1,9,0,1,,,,,,,
,,,,,,0,2.276797821,#a3d0fb,"[""-0.25"",""0""]",right_blue.png,right,,,,,,,,right,right_blue.png,up_orange.png,up,left,down,61327318da83edb47b6f9525,2021-09-11_17h32.32.995,arrow_simon_vert,2021.1.2,MacIntel,59.97361161,,,,,,,,,,,,,,,,,,,,,right,1,1.6957,11,TRUE,FALSE,2,2,10,0,1,,,,,,,
