instruct_resp_simon.keys,instruct_resp_simon.corr,instruct_resp_simon.rt,trial_resp_simon.keys,trial_resp_simon.corr,trial_resp_simon.rt,kerr,target_onset,target_color,target_pos,target_file,target_resp,trials_train_simon.thisRepN,trials_train_simon.thisTrialN,trials_train_simon.thisN,trials_train_simon.thisIndex,trials_train_simon.ran,odd_target_pos,even_target_pos,odd_target_resp,odd_target_file,even_target_file,even_target_resp,odd_target_side,even_target_side,participant,date,expName,psychopyVersion,OS,frameRate,train_block_note_resp.keys,train_block_note_resp.rt,blocks_train.thisRepN,blocks_train.thisTrialN,blocks_train.thisN,blocks_train.thisIndex,blocks_train.ran,instruct_resp_timing.keys,instruct_resp_timing.corr,instruct_resp_timing.rt,trial_resp_timing.keys,trial_resp_timing.rt,trials_train_timing.thisRepN,trials_train_timing.thisTrialN,trials_train_timing.thisN,trials_train_timing.thisIndex,trials_train_timing.ran,instruct_resp.keys,instruct_resp.corr,instruct_resp.rt,trial_resp.keys,trial_resp.corr,trial_resp.rt,trial_num,too_slow,too_soon,trials.thisRepN,trials.thisTrialN,trials.thisN,trials.thisIndex,trials.ran,block_note_resp.keys,block_note_resp.rt,blocks.thisRepN,blocks.thisTrialN,blocks.thisN,blocks.thisIndex,blocks.ran
space,0,161.7612,left,0,8.1093,1,0.257231867,#a3d0fb,"[""-0.25"",""0""]",right_blue.png,right,0,0,0,0,1,,,right,right_blue.png,up_orange.png,up,left,down,61359d9dd228a87d0c8b53b4,2021-09-07_21h17.46.276,arrow_simon_vert,2021.1.2,Win32,58.45902023,,,,,,,,,,,,,,,,,,,,,,,,,,,,,,,,,,,,,,
,,,down,1,2.1638,0,0.973430849,#f3af84,"[""0"",""0.25""]",down_orange.png,down,0,1,1,3,1,,,left,left_blue.png,down_orange.png,down,right,up,61359d9dd228a87d0c8b53b4,2021-09-07_21h17.46.276,arrow_simon_vert,2021.1.2,Win32,58.45902023,,,,,,,,,,,,,,,,,,,,,,,,,,,,,,,,,,,,,,
,,,right,1,1.8148,0,0.676951636,#a3d0fb,"[""-0.25"",""0""]",right_blue.png,right,0,2,2,0,1,,,right,right_blue.png,up_orange.png,up,left,down,61359d9dd228a87d0c8b53b4,2021-09-07_21h17.46.276,arrow_simon_vert,2021.1.2,Win32,58.45902023,,,,,,,,,,,,,,,,,,,,,,,,,,,,,,,,,,,,,,
,,,down,1,1.7442,0,0.429395818,#f3af84,"[""0"",""-0.25""]",down_orange.png,down,0,3,3,2,1,,,left,left_blue.png,down_orange.png,down,left,down,61359d9dd228a87d0c8b53b4,2021-09-07_21h17.46.276,arrow_simon_vert,2021.1.2,Win32,58.45902023,,,,,,,,,,,,,,,,,,,,,,,,,,,,,,,,,,,,,,
,,,right,1,3.0135,0,0.889710359,#a3d0fb,"[""0.25"",""0""]",right_blue.png,right,1,0,4,1,1,,,right,right_blue.png,up_orange.png,up,right,up,61359d9dd228a87d0c8b53b4,2021-09-07_21h17.46.276,arrow_simon_vert,2021.1.2,Win32,58.45902023,,,,,,,,,,,,,,,,,,,,,,,,,,,,,,,,,,,,,,
,,,up,1,1.7749,0,0.911776201,#f3af84,"[""0"",""-0.25""]",up_orange.png,up,1,1,5,0,1,,,right,right_blue.png,up_orange.png,up,left,down,61359d9dd228a87d0c8b53b4,2021-09-07_21h17.46.276,arrow_simon_vert,2021.1.2,Win32,58.45902023,,,,,,,,,,,,,,,,,,,,,,,,,,,,,,,,,,,,,,
,,,right,0,1.5504,1,0.608024826,#a3d0fb,"[""-0.25"",""0""]",left_blue.png,left,1,2,6,2,1,,,left,left_blue.png,down_orange.png,down,left,down,61359d9dd228a87d0c8b53b4,2021-09-07_21h17.46.276,arrow_simon_vert,2021.1.2,Win32,58.45902023,,,,,,,,,,,,,,,,,,,,,,,,,,,,,,,,,,,,,,
,,,down,1,2.1624,0,0.675238945,#f3af84,"[""0"",""0.25""]",down_orange.png,down,1,3,7,3,1,,,left,left_blue.png,down_orange.png,down,right,up,61359d9dd228a87d0c8b53b4,2021-09-07_21h17.46.276,arrow_simon_vert,2021.1.2,Win32,58.45902023,,,,,,,,,,,,,,,,,,,,,,,,,,,,,,,,,,,,,,
,,,right,0,1.1647,1,0.107416812,#a3d0fb,"[""-0.25"",""0""]",left_blue.png,left,2,0,8,2,1,,,left,left_blue.png,down_orange.png,down,left,down,61359d9dd228a87d0c8b53b4,2021-09-07_21h17.46.276,arrow_simon_vert,2021.1.2,Win32,58.45902023,,,,,,,,,,,,,,,,,,,,,,,,,,,,,,,,,,,,,,
,,,up,1,1.9466,0,0.672913208,#f3af84,"[""0"",""0.25""]",up_orange.png,up,2,1,9,1,1,,,right,right_blue.png,up_orange.png,up,right,up,61359d9dd228a87d0c8b53b4,2021-09-07_21h17.46.276,arrow_simon_vert,2021.1.2,Win32,58.45902023,,,,,,,,,,,,,,,,,,,,,,,,,,,,,,,,,,,,,,
,,,left,1,1.4367,0,0.216576741,#a3d0fb,"[""-0.25"",""0""]",left_blue.png,left,2,2,10,2,1,,,left,left_blue.png,down_orange.png,down,left,down,61359d9dd228a87d0c8b53b4,2021-09-07_21h17.46.276,arrow_simon_vert,2021.1.2,Win32,58.45902023,,,,,,,,,,,,,,,,,,,,,,,,,,,,,,,,,,,,,,
,,,up,1,1.5787,0,0.354755733,#f3af84,"[""0"",""-0.25""]",up_orange.png,up,2,3,11,0,1,,,right,right_blue.png,up_orange.png,up,left,down,61359d9dd228a87d0c8b53b4,2021-09-07_21h17.46.276,arrow_simon_vert,2021.1.2,Win32,58.45902023,,,,,,,,,,,,,,,,,,,,,,,,,,,,,,,,,,,,,,
,,,left,1,1.5143,0,0.715344678,#a3d0fb,"[""-0.25"",""0""]",left_blue.png,left,3,0,12,2,1,,,left,left_blue.png,down_orange.png,down,left,down,61359d9dd228a87d0c8b53b4,2021-09-07_21h17.46.276,arrow_simon_vert,2021.1.2,Win32,58.45902023,,,,,,,,,,,,,,,,,,,,,,,,,,,,,,,,,,,,,,
,,,down,1,1.854,0,0.649807869,#f3af84,"[""0"",""-0.25""]",down_orange.png,down,3,1,13,2,1,,,left,left_blue.png,down_orange.png,down,left,down,61359d9dd228a87d0c8b53b4,2021-09-07_21h17.46.276,arrow_simon_vert,2021.1.2,Win32,58.45902023,,,,,,,,,,,,,,,,,,,,,,,,,,,,,,,,,,,,,,
,,,right,1,1.5618,0,0.548439398,#a3d0fb,"[""0.25"",""0""]",right_blue.png,right,3,2,14,1,1,,,right,right_blue.png,up_orange.png,up,right,up,61359d9dd228a87d0c8b53b4,2021-09-07_21h17.46.276,arrow_simon_vert,2021.1.2,Win32,58.45902023,,,,,,,,,,,,,,,,,,,,,,,,,,,,,,,,,,,,,,
,,,down,1,1.7474,0,0.81497949,#f3af84,"[""0"",""0.25""]",down_orange.png,down,3,3,15,3,1,,,left,left_blue.png,down_orange.png,down,right,up,61359d9dd228a87d0c8b53b4,2021-09-07_21h17.46.276,arrow_simon_vert,2021.1.2,Win32,58.45902023,,,,,,,,,,,,,,,,,,,,,,,,,,,,,,,,,,,,,,
,,,right,1,1.9794,0,0.800820053,#a3d0fb,"[""-0.25"",""0""]",right_blue.png,right,4,0,16,0,1,,,right,right_blue.png,up_orange.png,up,left,down,61359d9dd228a87d0c8b53b4,2021-09-07_21h17.46.276,arrow_simon_vert,2021.1.2,Win32,58.45902023,,,,,,,,,,,,,,,,,,,,,,,,,,,,,,,,,,,,,,
,,,up,1,1.5316,0,0.595031502,#f3af84,"[""0"",""-0.25""]",up_orange.png,up,4,1,17,0,1,,,right,right_blue.png,up_orange.png,up,left,down,61359d9dd228a87d0c8b53b4,2021-09-07_21h17.46.276,arrow_simon_vert,2021.1.2,Win32,58.45902023,,,,,,,,,,,,,,,,,,,,,,,,,,,,,,,,,,,,,,
,,,left,1,2.0084,0,0.986832415,#a3d0fb,"[""0.25"",""0""]",left_blue.png,left,4,2,18,3,1,,,left,left_blue.png,down_orange.png,down,right,up,61359d9dd228a87d0c8b53b4,2021-09-07_21h17.46.276,arrow_simon_vert,2021.1.2,Win32,58.45902023,,,,,,,,,,,,,,,,,,,,,,,,,,,,,,,,,,,,,,
,,,down,1,1.3233,0,0.286913062,#f3af84,"[""0"",""-0.25""]",down_orange.png,down,4,3,19,2,1,,,left,left_blue.png,down_orange.png,down,left,down,61359d9dd228a87d0c8b53b4,2021-09-07_21h17.46.276,arrow_simon_vert,2021.1.2,Win32,58.45902023,,,,,,,,,,,,,,,,,,,,,,,,,,,,,,,,,,,,,,
,,,left,1,1.0115,0,0.211584674,#a3d0fb,"[""0.25"",""0""]",left_blue.png,left,5,0,20,3,1,,,left,left_blue.png,down_orange.png,down,right,up,61359d9dd228a87d0c8b53b4,2021-09-07_21h17.46.276,arrow_simon_vert,2021.1.2,Win32,58.45902023,,,,,,,,,,,,,,,,,,,,,,,,,,,,,,,,,,,,,,
,,,down,1,2.0088,0,0.801584957,#f3af84,"[""0"",""-0.25""]",down_orange.png,down,5,1,21,2,1,,,left,left_blue.png,down_orange.png,down,left,down,61359d9dd228a87d0c8b53b4,2021-09-07_21h17.46.276,arrow_simon_vert,2021.1.2,Win32,58.45902023,,,,,,,,,,,,,,,,,,,,,,,,,,,,,,,,,,,,,,
,,,left,1,0.9471,0,0.034254226,#a3d0fb,"[""0.25"",""0""]",left_blue.png,left,5,2,22,3,1,,,left,left_blue.png,down_orange.png,down,right,up,61359d9dd228a87d0c8b53b4,2021-09-07_21h17.46.276,arrow_simon_vert,2021.1.2,Win32,58.45902023,,,,,,,,,,,,,,,,,,,,,,,,,,,,,,,,,,,,,,
,,,up,1,0.9621,0,0.004595212,#f3af84,"[""0"",""0.25""]",up_orange.png,up,5,3,23,1,1,,,right,right_blue.png,up_orange.png,up,right,up,61359d9dd228a87d0c8b53b4,2021-09-07_21h17.46.276,arrow_simon_vert,2021.1.2,Win32,58.45902023,,,,,,,,,,,,,,,,,,,,,,,,,,,,,,,,,,,,,,
,,,left,1,0.8477,0,0.071227358,#a3d0fb,"[""-0.25"",""0""]",left_blue.png,left,6,0,24,2,1,,,left,left_blue.png,down_orange.png,down,left,down,61359d9dd228a87d0c8b53b4,2021-09-07_21h17.46.276,arrow_simon_vert,2021.1.2,Win32,58.45902023,,,,,,,,,,,,,,,,,,,,,,,,,,,,,,,,,,,,,,
,,,down,1,1.4172,0,0.706517979,#f3af84,"[""0"",""0.25""]",down_orange.png,down,6,1,25,3,1,,,left,left_blue.png,down_orange.png,down,right,up,61359d9dd228a87d0c8b53b4,2021-09-07_21h17.46.276,arrow_simon_vert,2021.1.2,Win32,58.45902023,,,,,,,,,,,,,,,,,,,,,,,,,,,,,,,,,,,,,,
,,,right,1,2.7726,0,0.270992838,#a3d0fb,"[""-0.25"",""0""]",right_blue.png,right,6,2,26,0,1,,,right,right_blue.png,up_orange.png,up,left,down,61359d9dd228a87d0c8b53b4,2021-09-07_21h17.46.276,arrow_simon_vert,2021.1.2,Win32,58.45902023,,,,,,,,,,,,,,,,,,,,,,,,,,,,,,,,,,,,,,
,,,down,1,1.4283,0,0.156650088,#f3af84,"[""0"",""-0.25""]",down_orange.png,down,6,3,27,2,1,,,left,left_blue.png,down_orange.png,down,left,down,61359d9dd228a87d0c8b53b4,2021-09-07_21h17.46.276,arrow_simon_vert,2021.1.2,Win32,58.45902023,,,,,,,,,,,,,,,,,,,,,,,,,,,,,,,,,,,,,,
,,,right,1,2.015,0,0.7695924,#a3d0fb,"[""0.25"",""0""]",right_blue.png,right,7,0,28,1,1,,,right,right_blue.png,up_orange.png,up,right,up,61359d9dd228a87d0c8b53b4,2021-09-07_21h17.46.276,arrow_simon_vert,2021.1.2,Win32,58.45902023,,,,,,,,,,,,,,,,,,,,,,,,,,,,,,,,,,,,,,
,,,up,1,1.5383,0,0.378876819,#f3af84,"[""0"",""0.25""]",up_orange.png,up,7,1,29,1,1,,,right,right_blue.png,up_orange.png,up,right,up,61359d9dd228a87d0c8b53b4,2021-09-07_21h17.46.276,arrow_simon_vert,2021.1.2,Win32,58.45902023,,,,,,,,,,,,,,,,,,,,,,,,,,,,,,,,,,,,,,
,,,right,1,1.0769,0,0.227468013,#a3d0fb,"[""0.25"",""0""]",right_blue.png,right,7,2,30,1,1,,,right,right_blue.png,up_orange.png,up,right,up,61359d9dd228a87d0c8b53b4,2021-09-07_21h17.46.276,arrow_simon_vert,2021.1.2,Win32,58.45902023,,,,,,,,,,,,,,,,,,,,,,,,,,,,,,,,,,,,,,
,,,up,1,1.0336,0,0.244004899,#f3af84,"[""0"",""-0.25""]",up_orange.png,up,7,3,31,0,1,,,right,right_blue.png,up_orange.png,up,left,down,61359d9dd228a87d0c8b53b4,2021-09-07_21h17.46.276,arrow_simon_vert,2021.1.2,Win32,58.45902023,,,,,,,,,,,,,,,,,,,,,,,,,,,,,,,,,,,,,,
,,,left,1,1.7003,0,0.500297593,#a3d0fb,"[""0.25"",""0""]",left_blue.png,left,8,0,32,3,1,,,left,left_blue.png,down_orange.png,down,right,up,61359d9dd228a87d0c8b53b4,2021-09-07_21h17.46.276,arrow_simon_vert,2021.1.2,Win32,58.45902023,,,,,,,,,,,,,,,,,,,,,,,,,,,,,,,,,,,,,,
,,,down,1,1.1895,0,0.564383401,#f3af84,"[""0"",""0.25""]",down_orange.png,down,8,1,33,3,1,,,left,left_blue.png,down_orange.png,down,right,up,61359d9dd228a87d0c8b53b4,2021-09-07_21h17.46.276,arrow_simon_vert,2021.1.2,Win32,58.45902023,,,,,,,,,,,,,,,,,,,,,,,,,,,,,,,,,,,,,,
,,,right,1,1.3779,0,0.70428717,#a3d0fb,"[""0.25"",""0""]",right_blue.png,right,8,2,34,1,1,,,right,right_blue.png,up_orange.png,up,right,up,61359d9dd228a87d0c8b53b4,2021-09-07_21h17.46.276,arrow_simon_vert,2021.1.2,Win32,58.45902023,,,,,,,,,,,,,,,,,,,,,,,,,,,,,,,,,,,,,,
,,,up,1,1.5907,0,0.602345454,#f3af84,"[""0"",""-0.25""]",up_orange.png,up,8,3,35,0,1,,,right,right_blue.png,up_orange.png,up,left,down,61359d9dd228a87d0c8b53b4,2021-09-07_21h17.46.276,arrow_simon_vert,2021.1.2,Win32,58.45902023,,,,,,,,,,,,,,,,,,,,,,,,,,,,,,,,,,,,,,
,,,right,1,1.5231,0,0.430131094,#a3d0fb,"[""-0.25"",""0""]",right_blue.png,right,9,0,36,0,1,,,right,right_blue.png,up_orange.png,up,left,down,61359d9dd228a87d0c8b53b4,2021-09-07_21h17.46.276,arrow_simon_vert,2021.1.2,Win32,58.45902023,,,,,,,,,,,,,,,,,,,,,,,,,,,,,,,,,,,,,,
,,,up,1,0.8193,0,0.088789627,#f3af84,"[""0"",""0.25""]",up_orange.png,up,9,1,37,1,1,,,right,right_blue.png,up_orange.png,up,right,up,61359d9dd228a87d0c8b53b4,2021-09-07_21h17.46.276,arrow_simon_vert,2021.1.2,Win32,58.45902023,,,,,,,,,,,,,,,,,,,,,,,,,,,,,,,,,,,,,,
,,,right,1,1.5383,0,0.795986444,#a3d0fb,"[""-0.25"",""0""]",right_blue.png,right,9,2,38,0,1,,,right,right_blue.png,up_orange.png,up,left,down,61359d9dd228a87d0c8b53b4,2021-09-07_21h17.46.276,arrow_simon_vert,2021.1.2,Win32,58.45902023,,,,,,,,,,,,,,,,,,,,,,,,,,,,,,,,,,,,,,
,,,down,1,1.9513,0,0.966837736,#f3af84,"[""0"",""0.25""]",down_orange.png,down,9,3,39,3,1,,,left,left_blue.png,down_orange.png,down,right,up,61359d9dd228a87d0c8b53b4,2021-09-07_21h17.46.276,arrow_simon_vert,2021.1.2,Win32,58.45902023,,,,,,,,,,,,,,,,,,,,,,,,,,,,,,,,,,,,,,
,,,left,1,1.4918,0,0.727188065,#a3d0fb,"[""-0.25"",""0""]",left_blue.png,left,10,0,40,2,1,,,left,left_blue.png,down_orange.png,down,left,down,61359d9dd228a87d0c8b53b4,2021-09-07_21h17.46.276,arrow_simon_vert,2021.1.2,Win32,58.45902023,,,,,,,,,,,,,,,,,,,,,,,,,,,,,,,,,,,,,,
,,,up,1,0.8826,0,0.154516613,#f3af84,"[""0"",""0.25""]",up_orange.png,up,10,1,41,1,1,,,right,right_blue.png,up_orange.png,up,right,up,61359d9dd228a87d0c8b53b4,2021-09-07_21h17.46.276,arrow_simon_vert,2021.1.2,Win32,58.45902023,,,,,,,,,,,,,,,,,,,,,,,,,,,,,,,,,,,,,,
,,,right,1,0.8661,0,0.033954529,#a3d0fb,"[""0.25"",""0""]",right_blue.png,right,10,2,42,1,1,,,right,right_blue.png,up_orange.png,up,right,up,61359d9dd228a87d0c8b53b4,2021-09-07_21h17.46.276,arrow_simon_vert,2021.1.2,Win32,58.45902023,,,,,,,,,,,,,,,,,,,,,,,,,,,,,,,,,,,,,,
,,,down,1,1.5409,0,0.609093143,#f3af84,"[""0"",""0.25""]",down_orange.png,down,10,3,43,3,1,,,left,left_blue.png,down_orange.png,down,right,up,61359d9dd228a87d0c8b53b4,2021-09-07_21h17.46.276,arrow_simon_vert,2021.1.2,Win32,58.45902023,,,,,,,,,,,,,,,,,,,,,,,,,,,,,,,,,,,,,,
,,,left,1,1.5608,0,0.755068078,#a3d0fb,"[""0.25"",""0""]",left_blue.png,left,11,0,44,3,1,,,left,left_blue.png,down_orange.png,down,right,up,61359d9dd228a87d0c8b53b4,2021-09-07_21h17.46.276,arrow_simon_vert,2021.1.2,Win32,58.45902023,,,,,,,,,,,,,,,,,,,,,,,,,,,,,,,,,,,,,,
,,,down,1,1.2386,0,0.118258786,#f3af84,"[""0"",""-0.25""]",down_orange.png,down,11,1,45,2,1,,,left,left_blue.png,down_orange.png,down,left,down,61359d9dd228a87d0c8b53b4,2021-09-07_21h17.46.276,arrow_simon_vert,2021.1.2,Win32,58.45902023,,,,,,,,,,,,,,,,,,,,,,,,,,,,,,,,,,,,,,
,,,left,1,1.7302,0,0.919838567,#a3d0fb,"[""0.25"",""0""]",left_blue.png,left,11,2,46,3,1,,,left,left_blue.png,down_orange.png,down,right,up,61359d9dd228a87d0c8b53b4,2021-09-07_21h17.46.276,arrow_simon_vert,2021.1.2,Win32,58.45902023,,,,,,,,,,,,,,,,,,,,,,,,,,,,,,,,,,,,,,
,,,up,1,1.0816,0,0.199800102,#f3af84,"[""0"",""-0.25""]",up_orange.png,up,11,3,47,0,1,,,right,right_blue.png,up_orange.png,up,left,down,61359d9dd228a87d0c8b53b4,2021-09-07_21h17.46.276,arrow_simon_vert,2021.1.2,Win32,58.45902023,,,,,,,,,,,,,,,,,,,,,,,,,,,,,,,,,,,,,,
,,,left,1,1.0239,0,0.378015012,#a3d0fb,"[""-0.25"",""0""]",left_blue.png,left,12,0,48,2,1,,,left,left_blue.png,down_orange.png,down,left,down,61359d9dd228a87d0c8b53b4,2021-09-07_21h17.46.276,arrow_simon_vert,2021.1.2,Win32,58.45902023,,,,,,,,,,,,,,,,,,,,,,,,,,,,,,,,,,,,,,
,,,up,1,0.9583,0,0.300959487,#f3af84,"[""0"",""0.25""]",up_orange.png,up,12,1,49,1,1,,,right,right_blue.png,up_orange.png,up,right,up,61359d9dd228a87d0c8b53b4,2021-09-07_21h17.46.276,arrow_simon_vert,2021.1.2,Win32,58.45902023,,,,,,,,,,,,,,,,,,,,,,,,,,,,,,,,,,,,,,
,,,right,1,1.0883,0,0.321613077,#a3d0fb,"[""-0.25"",""0""]",right_blue.png,right,12,2,50,0,1,,,right,right_blue.png,up_orange.png,up,left,down,61359d9dd228a87d0c8b53b4,2021-09-07_21h17.46.276,arrow_simon_vert,2021.1.2,Win32,58.45902023,,,,,,,,,,,,,,,,,,,,,,,,,,,,,,,,,,,,,,
,,,down,1,0.9829,0,0.434751662,#f3af84,"[""0"",""-0.25""]",down_orange.png,down,12,3,51,2,1,,,left,left_blue.png,down_orange.png,down,left,down,61359d9dd228a87d0c8b53b4,2021-09-07_21h17.46.276,arrow_simon_vert,2021.1.2,Win32,58.45902023,,,,,,,,,,,,,,,,,,,,,,,,,,,,,,,,,,,,,,
,,,right,1,1.8405,0,0.590863295,#a3d0fb,"[""0.25"",""0""]",right_blue.png,right,13,0,52,1,1,,,right,right_blue.png,up_orange.png,up,right,up,61359d9dd228a87d0c8b53b4,2021-09-07_21h17.46.276,arrow_simon_vert,2021.1.2,Win32,58.45902023,,,,,,,,,,,,,,,,,,,,,,,,,,,,,,,,,,,,,,
,,,up,1,1.2318,0,0.603999509,#f3af84,"[""0"",""0.25""]",up_orange.png,up,13,1,53,1,1,,,right,right_blue.png,up_orange.png,up,right,up,61359d9dd228a87d0c8b53b4,2021-09-07_21h17.46.276,arrow_simon_vert,2021.1.2,Win32,58.45902023,,,,,,,,,,,,,,,,,,,,,,,,,,,,,,,,,,,,,,
,,,left,1,1.1477,0,0.181423554,#a3d0fb,"[""0.25"",""0""]",left_blue.png,left,13,2,54,3,1,,,left,left_blue.png,down_orange.png,down,right,up,61359d9dd228a87d0c8b53b4,2021-09-07_21h17.46.276,arrow_simon_vert,2021.1.2,Win32,58.45902023,,,,,,,,,,,,,,,,,,,,,,,,,,,,,,,,,,,,,,
,,,down,1,1.1563,0,0.385975858,#f3af84,"[""0"",""-0.25""]",down_orange.png,down,13,3,55,2,1,,,left,left_blue.png,down_orange.png,down,left,down,61359d9dd228a87d0c8b53b4,2021-09-07_21h17.46.276,arrow_simon_vert,2021.1.2,Win32,58.45902023,,,,,,,,,,,,,,,,,,,,,,,,,,,,,,,,,,,,,,
,,,right,1,1.7189,0,0.963723832,#a3d0fb,"[""0.25"",""0""]",right_blue.png,right,14,0,56,1,1,,,right,right_blue.png,up_orange.png,up,right,up,61359d9dd228a87d0c8b53b4,2021-09-07_21h17.46.276,arrow_simon_vert,2021.1.2,Win32,58.45902023,,,,,,,,,,,,,,,,,,,,,,,,,,,,,,,,,,,,,,
,,,up,1,1.7507,0,0.871620272,#f3af84,"[""0"",""-0.25""]",up_orange.png,up,14,1,57,0,1,,,right,right_blue.png,up_orange.png,up,left,down,61359d9dd228a87d0c8b53b4,2021-09-07_21h17.46.276,arrow_simon_vert,2021.1.2,Win32,58.45902023,,,,,,,,,,,,,,,,,,,,,,,,,,,,,,,,,,,,,,
,,,left,1,1.6784,0,0.817074473,#a3d0fb,"[""0.25"",""0""]",left_blue.png,left,14,2,58,3,1,,,left,left_blue.png,down_orange.png,down,right,up,61359d9dd228a87d0c8b53b4,2021-09-07_21h17.46.276,arrow_simon_vert,2021.1.2,Win32,58.45902023,,,,,,,,,,,,,,,,,,,,,,,,,,,,,,,,,,,,,,
,,,up,1,1.1691,0,0.375887265,#f3af84,"[""0"",""-0.25""]",up_orange.png,up,14,3,59,0,1,,,right,right_blue.png,up_orange.png,up,left,down,61359d9dd228a87d0c8b53b4,2021-09-07_21h17.46.276,arrow_simon_vert,2021.1.2,Win32,58.45902023,,,,,,,,,,,,,,,,,,,,,,,,,,,,,,,,,,,,,,
,,,,,,,,,,,,,,,,,,,,,,,,,61359d9dd228a87d0c8b53b4,2021-09-07_21h17.46.276,arrow_simon_vert,2021.1.2,Win32,58.45902023,space,23.9309,0,0,0,0,1,,,,,,,,,,,,,,,,,,,,,,,,,,,,,,,
,,,left,1,1.7601,0,0.723883272,#a3d0fb,"[""0.25"",""0""]",left_blue.png,left,0,0,0,3,1,,,left,left_blue.png,down_orange.png,down,right,up,61359d9dd228a87d0c8b53b4,2021-09-07_21h17.46.276,arrow_simon_vert,2021.1.2,Win32,58.45902023,,,,,,,,,,,,,,,,,,,,,,,,,,,,,,,,,,,,,,
,,,down,1,1.3305,0,0.402155898,#f3af84,"[""0"",""0.25""]",down_orange.png,down,0,1,1,3,1,,,left,left_blue.png,down_orange.png,down,right,up,61359d9dd228a87d0c8b53b4,2021-09-07_21h17.46.276,arrow_simon_vert,2021.1.2,Win32,58.45902023,,,,,,,,,,,,,,,,,,,,,,,,,,,,,,,,,,,,,,
,,,right,1,1.2048,0,0.464363802,#a3d0fb,"[""-0.25"",""0""]",right_blue.png,right,0,2,2,0,1,,,right,right_blue.png,up_orange.png,up,left,down,61359d9dd228a87d0c8b53b4,2021-09-07_21h17.46.276,arrow_simon_vert,2021.1.2,Win32,58.45902023,,,,,,,,,,,,,,,,,,,,,,,,,,,,,,,,,,,,,,
,,,down,1,1.4534,0,0.705752762,#f3af84,"[""0"",""-0.25""]",down_orange.png,down,0,3,3,2,1,,,left,left_blue.png,down_orange.png,down,left,down,61359d9dd228a87d0c8b53b4,2021-09-07_21h17.46.276,arrow_simon_vert,2021.1.2,Win32,58.45902023,,,,,,,,,,,,,,,,,,,,,,,,,,,,,,,,,,,,,,
,,,right,1,1.6477,0,0.801052592,#a3d0fb,"[""-0.25"",""0""]",right_blue.png,right,1,0,4,0,1,,,right,right_blue.png,up_orange.png,up,left,down,61359d9dd228a87d0c8b53b4,2021-09-07_21h17.46.276,arrow_simon_vert,2021.1.2,Win32,58.45902023,,,,,,,,,,,,,,,,,,,,,,,,,,,,,,,,,,,,,,
,,,down,1,1.6634,0,0.583266681,#f3af84,"[""0"",""-0.25""]",down_orange.png,down,1,1,5,2,1,,,left,left_blue.png,down_orange.png,down,left,down,61359d9dd228a87d0c8b53b4,2021-09-07_21h17.46.276,arrow_simon_vert,2021.1.2,Win32,58.45902023,,,,,,,,,,,,,,,,,,,,,,,,,,,,,,,,,,,,,,
,,,left,1,1.2152,0,0.429039225,#a3d0fb,"[""-0.25"",""0""]",left_blue.png,left,1,2,6,2,1,,,left,left_blue.png,down_orange.png,down,left,down,61359d9dd228a87d0c8b53b4,2021-09-07_21h17.46.276,arrow_simon_vert,2021.1.2,Win32,58.45902023,,,,,,,,,,,,,,,,,,,,,,,,,,,,,,,,,,,,,,
,,,down,1,1.0179,0,0.434253869,#f3af84,"[""0"",""-0.25""]",down_orange.png,down,1,3,7,2,1,,,left,left_blue.png,down_orange.png,down,left,down,61359d9dd228a87d0c8b53b4,2021-09-07_21h17.46.276,arrow_simon_vert,2021.1.2,Win32,58.45902023,,,,,,,,,,,,,,,,,,,,,,,,,,,,,,,,,,,,,,
,,,right,1,1.2997,0,0.851383718,#a3d0fb,"[""0.25"",""0""]",right_blue.png,right,2,0,8,1,1,,,right,right_blue.png,up_orange.png,up,right,up,61359d9dd228a87d0c8b53b4,2021-09-07_21h17.46.276,arrow_simon_vert,2021.1.2,Win32,58.45902023,,,,,,,,,,,,,,,,,,,,,,,,,,,,,,,,,,,,,,
,,,down,1,1.0475,0,0.175888869,#f3af84,"[""0"",""0.25""]",down_orange.png,down,2,1,9,3,1,,,left,left_blue.png,down_orange.png,down,right,up,61359d9dd228a87d0c8b53b4,2021-09-07_21h17.46.276,arrow_simon_vert,2021.1.2,Win32,58.45902023,,,,,,,,,,,,,,,,,,,,,,,,,,,,,,,,,,,,,,
,,,left,1,1.5949,0,0.871004152,#a3d0fb,"[""-0.25"",""0""]",left_blue.png,left,2,2,10,2,1,,,left,left_blue.png,down_orange.png,down,left,down,61359d9dd228a87d0c8b53b4,2021-09-07_21h17.46.276,arrow_simon_vert,2021.1.2,Win32,58.45902023,,,,,,,,,,,,,,,,,,,,,,,,,,,,,,,,,,,,,,
,,,up,1,1.1618,0,0.28722951,#f3af84,"[""0"",""0.25""]",up_orange.png,up,2,3,11,1,1,,,right,right_blue.png,up_orange.png,up,right,up,61359d9dd228a87d0c8b53b4,2021-09-07_21h17.46.276,arrow_simon_vert,2021.1.2,Win32,58.45902023,,,,,,,,,,,,,,,,,,,,,,,,,,,,,,,,,,,,,,
,,,right,1,1.4638,0,0.986169801,#a3d0fb,"[""0.25"",""0""]",right_blue.png,right,3,0,12,1,1,,,right,right_blue.png,up_orange.png,up,right,up,61359d9dd228a87d0c8b53b4,2021-09-07_21h17.46.276,arrow_simon_vert,2021.1.2,Win32,58.45902023,,,,,,,,,,,,,,,,,,,,,,,,,,,,,,,,,,,,,,
,,,up,1,1.5601,0,0.967624543,#f3af84,"[""0"",""0.25""]",up_orange.png,up,3,1,13,1,1,,,right,right_blue.png,up_orange.png,up,right,up,61359d9dd228a87d0c8b53b4,2021-09-07_21h17.46.276,arrow_simon_vert,2021.1.2,Win32,58.45902023,,,,,,,,,,,,,,,,,,,,,,,,,,,,,,,,,,,,,,
,,,left,1,0.8822,0,0.17845437,#a3d0fb,"[""0.25"",""0""]",left_blue.png,left,3,2,14,3,1,,,left,left_blue.png,down_orange.png,down,right,up,61359d9dd228a87d0c8b53b4,2021-09-07_21h17.46.276,arrow_simon_vert,2021.1.2,Win32,58.45902023,,,,,,,,,,,,,,,,,,,,,,,,,,,,,,,,,,,,,,
,,,up,1,0.7235,0,0.010338377,#f3af84,"[""0"",""-0.25""]",up_orange.png,up,3,3,15,0,1,,,right,right_blue.png,up_orange.png,up,left,down,61359d9dd228a87d0c8b53b4,2021-09-07_21h17.46.276,arrow_simon_vert,2021.1.2,Win32,58.45902023,,,,,,,,,,,,,,,,,,,,,,,,,,,,,,,,,,,,,,
,,,right,1,1.3334,0,0.75215698,#a3d0fb,"[""0.25"",""0""]",right_blue.png,right,4,0,16,1,1,,,right,right_blue.png,up_orange.png,up,right,up,61359d9dd228a87d0c8b53b4,2021-09-07_21h17.46.276,arrow_simon_vert,2021.1.2,Win32,58.45902023,,,,,,,,,,,,,,,,,,,,,,,,,,,,,,,,,,,,,,
,,,up,1,0.8993,0,0.380418838,#f3af84,"[""0"",""0.25""]",up_orange.png,up,4,1,17,1,1,,,right,right_blue.png,up_orange.png,up,right,up,61359d9dd228a87d0c8b53b4,2021-09-07_21h17.46.276,arrow_simon_vert,2021.1.2,Win32,58.45902023,,,,,,,,,,,,,,,,,,,,,,,,,,,,,,,,,,,,,,
,,,left,1,0.6592,0,0.013572231,#a3d0fb,"[""-0.25"",""0""]",left_blue.png,left,4,2,18,2,1,,,left,left_blue.png,down_orange.png,down,left,down,61359d9dd228a87d0c8b53b4,2021-09-07_21h17.46.276,arrow_simon_vert,2021.1.2,Win32,58.45902023,,,,,,,,,,,,,,,,,,,,,,,,,,,,,,,,,,,,,,
,,,down,1,1.1845,0,0.53933316,#f3af84,"[""0"",""0.25""]",down_orange.png,down,4,3,19,3,1,,,left,left_blue.png,down_orange.png,down,right,up,61359d9dd228a87d0c8b53b4,2021-09-07_21h17.46.276,arrow_simon_vert,2021.1.2,Win32,58.45902023,,,,,,,,,,,,,,,,,,,,,,,,,,,,,,,,,,,,,,
,,,left,1,0.6521,0,0.043885237,#a3d0fb,"[""-0.25"",""0""]",left_blue.png,left,5,0,20,2,1,,,left,left_blue.png,down_orange.png,down,left,down,61359d9dd228a87d0c8b53b4,2021-09-07_21h17.46.276,arrow_simon_vert,2021.1.2,Win32,58.45902023,,,,,,,,,,,,,,,,,,,,,,,,,,,,,,,,,,,,,,
,,,down,1,1.3601,0,0.632573895,#f3af84,"[""0"",""-0.25""]",down_orange.png,down,5,1,21,2,1,,,left,left_blue.png,down_orange.png,down,left,down,61359d9dd228a87d0c8b53b4,2021-09-07_21h17.46.276,arrow_simon_vert,2021.1.2,Win32,58.45902023,,,,,,,,,,,,,,,,,,,,,,,,,,,,,,,,,,,,,,
,,,left,1,1.285,0,0.659994926,#a3d0fb,"[""0.25"",""0""]",left_blue.png,left,5,2,22,3,1,,,left,left_blue.png,down_orange.png,down,right,up,61359d9dd228a87d0c8b53b4,2021-09-07_21h17.46.276,arrow_simon_vert,2021.1.2,Win32,58.45902023,,,,,,,,,,,,,,,,,,,,,,,,,,,,,,,,,,,,,,
,,,up,1,0.7885,0,0.079964672,#f3af84,"[""0"",""0.25""]",up_orange.png,up,5,3,23,1,1,,,right,right_blue.png,up_orange.png,up,right,up,61359d9dd228a87d0c8b53b4,2021-09-07_21h17.46.276,arrow_simon_vert,2021.1.2,Win32,58.45902023,,,,,,,,,,,,,,,,,,,,,,,,,,,,,,,,,,,,,,
,,,right,1,1.4788,0,0.859054083,#a3d0fb,"[""-0.25"",""0""]",right_blue.png,right,6,0,24,0,1,,,right,right_blue.png,up_orange.png,up,left,down,61359d9dd228a87d0c8b53b4,2021-09-07_21h17.46.276,arrow_simon_vert,2021.1.2,Win32,58.45902023,,,,,,,,,,,,,,,,,,,,,,,,,,,,,,,,,,,,,,
,,,down,1,1.1079,0,0.558643948,#f3af84,"[""0"",""-0.25""]",down_orange.png,down,6,1,25,2,1,,,left,left_blue.png,down_orange.png,down,left,down,61359d9dd228a87d0c8b53b4,2021-09-07_21h17.46.276,arrow_simon_vert,2021.1.2,Win32,58.45902023,,,,,,,,,,,,,,,,,,,,,,,,,,,,,,,,,,,,,,
,,,left,1,1.1333,0,0.65160668,#a3d0fb,"[""0.25"",""0""]",left_blue.png,left,6,2,26,3,1,,,left,left_blue.png,down_orange.png,down,right,up,61359d9dd228a87d0c8b53b4,2021-09-07_21h17.46.276,arrow_simon_vert,2021.1.2,Win32,58.45902023,,,,,,,,,,,,,,,,,,,,,,,,,,,,,,,,,,,,,,
,,,up,1,1.0172,0,0.33168074,#f3af84,"[""0"",""0.25""]",up_orange.png,up,6,3,27,1,1,,,right,right_blue.png,up_orange.png,up,right,up,61359d9dd228a87d0c8b53b4,2021-09-07_21h17.46.276,arrow_simon_vert,2021.1.2,Win32,58.45902023,,,,,,,,,,,,,,,,,,,,,,,,,,,,,,,,,,,,,,
,,,right,1,0.8845,0,0.296135302,#a3d0fb,"[""-0.25"",""0""]",right_blue.png,right,7,0,28,0,1,,,right,right_blue.png,up_orange.png,up,left,down,61359d9dd228a87d0c8b53b4,2021-09-07_21h17.46.276,arrow_simon_vert,2021.1.2,Win32,58.45902023,,,,,,,,,,,,,,,,,,,,,,,,,,,,,,,,,,,,,,
,,,down,1,1.2697,0,0.658986563,#f3af84,"[""0"",""-0.25""]",down_orange.png,down,7,1,29,2,1,,,left,left_blue.png,down_orange.png,down,left,down,61359d9dd228a87d0c8b53b4,2021-09-07_21h17.46.276,arrow_simon_vert,2021.1.2,Win32,58.45902023,,,,,,,,,,,,,,,,,,,,,,,,,,,,,,,,,,,,,,
,,,right,1,1.0351,0,0.554180076,#a3d0fb,"[""0.25"",""0""]",right_blue.png,right,7,2,30,1,1,,,right,right_blue.png,up_orange.png,up,right,up,61359d9dd228a87d0c8b53b4,2021-09-07_21h17.46.276,arrow_simon_vert,2021.1.2,Win32,58.45902023,,,,,,,,,,,,,,,,,,,,,,,,,,,,,,,,,,,,,,
,,,down,1,0.9846,0,0.288482017,#f3af84,"[""0"",""-0.25""]",down_orange.png,down,7,3,31,2,1,,,left,left_blue.png,down_orange.png,down,left,down,61359d9dd228a87d0c8b53b4,2021-09-07_21h17.46.276,arrow_simon_vert,2021.1.2,Win32,58.45902023,,,,,,,,,,,,,,,,,,,,,,,,,,,,,,,,,,,,,,
,,,right,1,1.3859,0,0.901687258,#a3d0fb,"[""0.25"",""0""]",right_blue.png,right,8,0,32,1,1,,,right,right_blue.png,up_orange.png,up,right,up,61359d9dd228a87d0c8b53b4,2021-09-07_21h17.46.276,arrow_simon_vert,2021.1.2,Win32,58.45902023,,,,,,,,,,,,,,,,,,,,,,,,,,,,,,,,,,,,,,
,,,down,1,1.2075,0,0.619902809,#f3af84,"[""0"",""0.25""]",down_orange.png,down,8,1,33,3,1,,,left,left_blue.png,down_orange.png,down,right,up,61359d9dd228a87d0c8b53b4,2021-09-07_21h17.46.276,arrow_simon_vert,2021.1.2,Win32,58.45902023,,,,,,,,,,,,,,,,,,,,,,,,,,,,,,,,,,,,,,
,,,left,1,0.668,0,0.114560951,#a3d0fb,"[""-0.25"",""0""]",left_blue.png,left,8,2,34,2,1,,,left,left_blue.png,down_orange.png,down,left,down,61359d9dd228a87d0c8b53b4,2021-09-07_21h17.46.276,arrow_simon_vert,2021.1.2,Win32,58.45902023,,,,,,,,,,,,,,,,,,,,,,,,,,,,,,,,,,,,,,
,,,up,1,1.068,0,0.427198428,#f3af84,"[""0"",""-0.25""]",up_orange.png,up,8,3,35,0,1,,,right,right_blue.png,up_orange.png,up,left,down,61359d9dd228a87d0c8b53b4,2021-09-07_21h17.46.276,arrow_simon_vert,2021.1.2,Win32,58.45902023,,,,,,,,,,,,,,,,,,,,,,,,,,,,,,,,,,,,,,
,,,left,1,0.8687,0,0.204162119,#a3d0fb,"[""0.25"",""0""]",left_blue.png,left,9,0,36,3,1,,,left,left_blue.png,down_orange.png,down,right,up,61359d9dd228a87d0c8b53b4,2021-09-07_21h17.46.276,arrow_simon_vert,2021.1.2,Win32,58.45902023,,,,,,,,,,,,,,,,,,,,,,,,,,,,,,,,,,,,,,
,,,up,1,1.2135,0,0.615639703,#f3af84,"[""0"",""-0.25""]",up_orange.png,up,9,1,37,0,1,,,right,right_blue.png,up_orange.png,up,left,down,61359d9dd228a87d0c8b53b4,2021-09-07_21h17.46.276,arrow_simon_vert,2021.1.2,Win32,58.45902023,,,,,,,,,,,,,,,,,,,,,,,,,,,,,,,,,,,,,,
,,,right,1,0.8447,0,0.379107765,#a3d0fb,"[""0.25"",""0""]",right_blue.png,right,9,2,38,1,1,,,right,right_blue.png,up_orange.png,up,right,up,61359d9dd228a87d0c8b53b4,2021-09-07_21h17.46.276,arrow_simon_vert,2021.1.2,Win32,58.45902023,,,,,,,,,,,,,,,,,,,,,,,,,,,,,,,,,,,,,,
,,,down,1,1.4341,0,0.927207978,#f3af84,"[""0"",""-0.25""]",down_orange.png,down,9,3,39,2,1,,,left,left_blue.png,down_orange.png,down,left,down,61359d9dd228a87d0c8b53b4,2021-09-07_21h17.46.276,arrow_simon_vert,2021.1.2,Win32,58.45902023,,,,,,,,,,,,,,,,,,,,,,,,,,,,,,,,,,,,,,
,,,right,1,1.4352,0,0.821757577,#a3d0fb,"[""-0.25"",""0""]",right_blue.png,right,10,0,40,0,1,,,right,right_blue.png,up_orange.png,up,left,down,61359d9dd228a87d0c8b53b4,2021-09-07_21h17.46.276,arrow_simon_vert,2021.1.2,Win32,58.45902023,,,,,,,,,,,,,,,,,,,,,,,,,,,,,,,,,,,,,,
,,,up,1,0.8104,0,0.160484053,#f3af84,"[""0"",""0.25""]",up_orange.png,up,10,1,41,1,1,,,right,right_blue.png,up_orange.png,up,right,up,61359d9dd228a87d0c8b53b4,2021-09-07_21h17.46.276,arrow_simon_vert,2021.1.2,Win32,58.45902023,,,,,,,,,,,,,,,,,,,,,,,,,,,,,,,,,,,,,,
,,,right,1,1.1326,0,0.516280967,#a3d0fb,"[""-0.25"",""0""]",right_blue.png,right,10,2,42,0,1,,,right,right_blue.png,up_orange.png,up,left,down,61359d9dd228a87d0c8b53b4,2021-09-07_21h17.46.276,arrow_simon_vert,2021.1.2,Win32,58.45902023,,,,,,,,,,,,,,,,,,,,,,,,,,,,,,,,,,,,,,
,,,down,1,1.3848,0,0.789280298,#f3af84,"[""0"",""0.25""]",down_orange.png,down,10,3,43,3,1,,,left,left_blue.png,down_orange.png,down,right,up,61359d9dd228a87d0c8b53b4,2021-09-07_21h17.46.276,arrow_simon_vert,2021.1.2,Win32,58.45902023,,,,,,,,,,,,,,,,,,,,,,,,,,,,,,,,,,,,,,
,,,right,1,0.7942,0,0.260512127,#a3d0fb,"[""0.25"",""0""]",right_blue.png,right,11,0,44,1,1,,,right,right_blue.png,up_orange.png,up,right,up,61359d9dd228a87d0c8b53b4,2021-09-07_21h17.46.276,arrow_simon_vert,2021.1.2,Win32,58.45902023,,,,,,,,,,,,,,,,,,,,,,,,,,,,,,,,,,,,,,
,,,up,1,0.8027,0,0.156174772,#f3af84,"[""0"",""-0.25""]",up_orange.png,up,11,1,45,0,1,,,right,right_blue.png,up_orange.png,up,left,down,61359d9dd228a87d0c8b53b4,2021-09-07_21h17.46.276,arrow_simon_vert,2021.1.2,Win32,58.45902023,,,,,,,,,,,,,,,,,,,,,,,,,,,,,,,,,,,,,,
,,,right,1,1.1679,0,0.700932968,#a3d0fb,"[""0.25"",""0""]",right_blue.png,right,11,2,46,1,1,,,right,right_blue.png,up_orange.png,up,right,up,61359d9dd228a87d0c8b53b4,2021-09-07_21h17.46.276,arrow_simon_vert,2021.1.2,Win32,58.45902023,,,,,,,,,,,,,,,,,,,,,,,,,,,,,,,,,,,,,,
,,,up,1,1.4577,0,0.687034275,#f3af84,"[""0"",""-0.25""]",up_orange.png,up,11,3,47,0,1,,,right,right_blue.png,up_orange.png,up,left,down,61359d9dd228a87d0c8b53b4,2021-09-07_21h17.46.276,arrow_simon_vert,2021.1.2,Win32,58.45902023,,,,,,,,,,,,,,,,,,,,,,,,,,,,,,,,,,,,,,
,,,left,1,0.9849,0,0.435848309,#a3d0fb,"[""0.25"",""0""]",left_blue.png,left,12,0,48,3,1,,,left,left_blue.png,down_orange.png,down,right,up,61359d9dd228a87d0c8b53b4,2021-09-07_21h17.46.276,arrow_simon_vert,2021.1.2,Win32,58.45902023,,,,,,,,,,,,,,,,,,,,,,,,,,,,,,,,,,,,,,
,,,down,1,1.2676,0,0.673751097,#f3af84,"[""0"",""0.25""]",down_orange.png,down,12,1,49,3,1,,,left,left_blue.png,down_orange.png,down,right,up,61359d9dd228a87d0c8b53b4,2021-09-07_21h17.46.276,arrow_simon_vert,2021.1.2,Win32,58.45902023,,,,,,,,,,,,,,,,,,,,,,,,,,,,,,,,,,,,,,
,,,right,1,0.7692,0,0.011859495,#a3d0fb,"[""-0.25"",""0""]",right_blue.png,right,12,2,50,0,1,,,right,right_blue.png,up_orange.png,up,left,down,61359d9dd228a87d0c8b53b4,2021-09-07_21h17.46.276,arrow_simon_vert,2021.1.2,Win32,58.45902023,,,,,,,,,,,,,,,,,,,,,,,,,,,,,,,,,,,,,,
,,,up,1,1.4009,0,0.886714377,#f3af84,"[""0"",""-0.25""]",up_orange.png,up,12,3,51,0,1,,,right,right_blue.png,up_orange.png,up,left,down,61359d9dd228a87d0c8b53b4,2021-09-07_21h17.46.276,arrow_simon_vert,2021.1.2,Win32,58.45902023,,,,,,,,,,,,,,,,,,,,,,,,,,,,,,,,,,,,,,
,,,right,1,1.0178,0,0.429537494,#a3d0fb,"[""-0.25"",""0""]",right_blue.png,right,13,0,52,0,1,,,right,right_blue.png,up_orange.png,up,left,down,61359d9dd228a87d0c8b53b4,2021-09-07_21h17.46.276,arrow_simon_vert,2021.1.2,Win32,58.45902023,,,,,,,,,,,,,,,,,,,,,,,,,,,,,,,,,,,,,,
,,,up,1,0.6259,0,0.012070482,#f3af84,"[""0"",""0.25""]",up_orange.png,up,13,1,53,1,1,,,right,right_blue.png,up_orange.png,up,right,up,61359d9dd228a87d0c8b53b4,2021-09-07_21h17.46.276,arrow_simon_vert,2021.1.2,Win32,58.45902023,,,,,,,,,,,,,,,,,,,,,,,,,,,,,,,,,,,,,,
,,,right,1,1.4671,0,0.900045817,#a3d0fb,"[""-0.25"",""0""]",right_blue.png,right,13,2,54,0,1,,,right,right_blue.png,up_orange.png,up,left,down,61359d9dd228a87d0c8b53b4,2021-09-07_21h17.46.276,arrow_simon_vert,2021.1.2,Win32,58.45902023,,,,,,,,,,,,,,,,,,,,,,,,,,,,,,,,,,,,,,
,,,down,1,0.7686,0,0.119453042,#f3af84,"[""0"",""0.25""]",down_orange.png,down,13,3,55,3,1,,,left,left_blue.png,down_orange.png,down,right,up,61359d9dd228a87d0c8b53b4,2021-09-07_21h17.46.276,arrow_simon_vert,2021.1.2,Win32,58.45902023,,,,,,,,,,,,,,,,,,,,,,,,,,,,,,,,,,,,,,
,,,left,1,0.7521,0,0.064023643,#a3d0fb,"[""-0.25"",""0""]",left_blue.png,left,14,0,56,2,1,,,left,left_blue.png,down_orange.png,down,left,down,61359d9dd228a87d0c8b53b4,2021-09-07_21h17.46.276,arrow_simon_vert,2021.1.2,Win32,58.45902023,,,,,,,,,,,,,,,,,,,,,,,,,,,,,,,,,,,,,,
,,,down,1,1.5353,0,0.96436826,#f3af84,"[""0"",""0.25""]",down_orange.png,down,14,1,57,3,1,,,left,left_blue.png,down_orange.png,down,right,up,61359d9dd228a87d0c8b53b4,2021-09-07_21h17.46.276,arrow_simon_vert,2021.1.2,Win32,58.45902023,,,,,,,,,,,,,,,,,,,,,,,,,,,,,,,,,,,,,,
,,,left,1,1.3871,0,0.751532918,#a3d0fb,"[""-0.25"",""0""]",left_blue.png,left,14,2,58,2,1,,,left,left_blue.png,down_orange.png,down,left,down,61359d9dd228a87d0c8b53b4,2021-09-07_21h17.46.276,arrow_simon_vert,2021.1.2,Win32,58.45902023,,,,,,,,,,,,,,,,,,,,,,,,,,,,,,,,,,,,,,
,,,down,1,1.3885,0,0.881087946,#f3af84,"[""0"",""0.25""]",down_orange.png,down,14,3,59,3,1,,,left,left_blue.png,down_orange.png,down,right,up,61359d9dd228a87d0c8b53b4,2021-09-07_21h17.46.276,arrow_simon_vert,2021.1.2,Win32,58.45902023,,,,,,,,,,,,,,,,,,,,,,,,,,,,,,,,,,,,,,
,,,,,,,,,,,,,,,,,,,,,,,,,61359d9dd228a87d0c8b53b4,2021-09-07_21h17.46.276,arrow_simon_vert,2021.1.2,Win32,58.45902023,space,363.5465,1,0,1,0,1,,,,,,,,,,,,,,,,,,,,,,,,,,,,,,,
,,,,,,,,,,,,,,,,,,,,,,,,,61359d9dd228a87d0c8b53b4,2021-09-07_21h17.46.276,arrow_simon_vert,2021.1.2,Win32,58.45902023,,,,,,,,space,0,354.237,left,3.215,0,0,0,0,1,,,,,,,,,,,,,,,,,,,,,
,,,,,,,,,,,,,,,,,,,,,,,,,61359d9dd228a87d0c8b53b4,2021-09-07_21h17.46.276,arrow_simon_vert,2021.1.2,Win32,58.45902023,,,,,,,,,,,up,2.7889,1,0,1,0,1,,,,,,,,,,,,,,,,,,,,,
,,,,,,,,,,,,,,,,,,,,,,,,,61359d9dd228a87d0c8b53b4,2021-09-07_21h17.46.276,arrow_simon_vert,2021.1.2,Win32,58.45902023,,,,,,,,,,,up,2.1847,2,0,2,0,1,,,,,,,,,,,,,,,,,,,,,
,,,,,,,,,,,,,,,,,,,,,,,,,61359d9dd228a87d0c8b53b4,2021-09-07_21h17.46.276,arrow_simon_vert,2021.1.2,Win32,58.45902023,,,,,,,,,,,up,2.8356,3,0,3,0,1,,,,,,,,,,,,,,,,,,,,,
,,,,,,,,,,,,,,,,,,,,,,,,,61359d9dd228a87d0c8b53b4,2021-09-07_21h17.46.276,arrow_simon_vert,2021.1.2,Win32,58.45902023,,,,,,,,,,,right,1.9186,4,0,4,0,1,,,,,,,,,,,,,,,,,,,,,
,,,,,,,,,,,,,,,,,,,,,,,,,61359d9dd228a87d0c8b53b4,2021-09-07_21h17.46.276,arrow_simon_vert,2021.1.2,Win32,58.45902023,,,,,,,,,,,down,1.9852,5,0,5,0,1,,,,,,,,,,,,,,,,,,,,,
,,,,,,,,,,,,,,,,,,,,,,,,,61359d9dd228a87d0c8b53b4,2021-09-07_21h17.46.276,arrow_simon_vert,2021.1.2,Win32,58.45902023,,,,,,,,,,,left,2.2674,6,0,6,0,1,,,,,,,,,,,,,,,,,,,,,
,,,,,,,,,,,,,,,,,,,,,,,,,61359d9dd228a87d0c8b53b4,2021-09-07_21h17.46.276,arrow_simon_vert,2021.1.2,Win32,58.45902023,,,,,,,,,,,up,2.1891,7,0,7,0,1,,,,,,,,,,,,,,,,,,,,,
,,,,,,,,,,,,,,,,,,,,,,,,,61359d9dd228a87d0c8b53b4,2021-09-07_21h17.46.276,arrow_simon_vert,2021.1.2,Win32,58.45902023,,,,,,,,,,,right,2.1529,8,0,8,0,1,,,,,,,,,,,,,,,,,,,,,
,,,,,,,,,,,,,,,,,,,,,,,,,61359d9dd228a87d0c8b53b4,2021-09-07_21h17.46.276,arrow_simon_vert,2021.1.2,Win32,58.45902023,,,,,,,,,,,down,2.3527,9,0,9,0,1,,,,,,,,,,,,,,,,,,,,,
,,,,,,,,,,,,,,,,,,,,,,,,,61359d9dd228a87d0c8b53b4,2021-09-07_21h17.46.276,arrow_simon_vert,2021.1.2,Win32,58.45902023,,,,,,,,,,,left,2.6008,10,0,10,0,1,,,,,,,,,,,,,,,,,,,,,
,,,,,,,,,,,,,,,,,,,,,,,,,61359d9dd228a87d0c8b53b4,2021-09-07_21h17.46.276,arrow_simon_vert,2021.1.2,Win32,58.45902023,,,,,,,,,,,up,2.3671,11,0,11,0,1,,,,,,,,,,,,,,,,,,,,,
,,,,,,,,,,,,,,,,,,,,,,,,,61359d9dd228a87d0c8b53b4,2021-09-07_21h17.46.276,arrow_simon_vert,2021.1.2,Win32,58.45902023,,,,,,,,,,,right,2.4088,12,0,12,0,1,,,,,,,,,,,,,,,,,,,,,
,,,,,,,,,,,,,,,,,,,,,,,,,61359d9dd228a87d0c8b53b4,2021-09-07_21h17.46.276,arrow_simon_vert,2021.1.2,Win32,58.45902023,,,,,,,,,,,down,2.5115,13,0,13,0,1,,,,,,,,,,,,,,,,,,,,,
,,,,,,,,,,,,,,,,,,,,,,,,,61359d9dd228a87d0c8b53b4,2021-09-07_21h17.46.276,arrow_simon_vert,2021.1.2,Win32,58.45902023,,,,,,,,,,,left,2.334,14,0,14,0,1,,,,,,,,,,,,,,,,,,,,,
,,,,,,,,,,,,,,,,,,,,,,,,,61359d9dd228a87d0c8b53b4,2021-09-07_21h17.46.276,arrow_simon_vert,2021.1.2,Win32,58.45902023,,,,,,,,,,,up,2.4397,15,0,15,0,1,,,,,,,,,,,,,,,,,,,,,
,,,,,,,,,,,,,,,,,,,,,,,,,61359d9dd228a87d0c8b53b4,2021-09-07_21h17.46.276,arrow_simon_vert,2021.1.2,Win32,58.45902023,,,,,,,,,,,right,2.484,16,0,16,0,1,,,,,,,,,,,,,,,,,,,,,
,,,,,,,,,,,,,,,,,,,,,,,,,61359d9dd228a87d0c8b53b4,2021-09-07_21h17.46.276,arrow_simon_vert,2021.1.2,Win32,58.45902023,,,,,,,,,,,down,2.4562,17,0,17,0,1,,,,,,,,,,,,,,,,,,,,,
,,,,,,,,,,,,,,,,,,,,,,,,,61359d9dd228a87d0c8b53b4,2021-09-07_21h17.46.276,arrow_simon_vert,2021.1.2,Win32,58.45902023,,,,,,,,,,,left,2.462,18,0,18,0,1,,,,,,,,,,,,,,,,,,,,,
,,,,,,,,,,,,,,,,,,,,,,,,,61359d9dd228a87d0c8b53b4,2021-09-07_21h17.46.276,arrow_simon_vert,2021.1.2,Win32,58.45902023,,,,,,,,,,,up,2.7009,19,0,19,0,1,,,,,,,,,,,,,,,,,,,,,
,,,,,,,,,,,,,,,,,,,,,,,,,61359d9dd228a87d0c8b53b4,2021-09-07_21h17.46.276,arrow_simon_vert,2021.1.2,Win32,58.45902023,,,,,,,,,,,right,2.4342,20,0,20,0,1,,,,,,,,,,,,,,,,,,,,,
,,,,,,,,,,,,,,,,,,,,,,,,,61359d9dd228a87d0c8b53b4,2021-09-07_21h17.46.276,arrow_simon_vert,2021.1.2,Win32,58.45902023,,,,,,,,,,,down,2.4963,21,0,21,0,1,,,,,,,,,,,,,,,,,,,,,
,,,,,,,,,,,,,,,,,,,,,,,,,61359d9dd228a87d0c8b53b4,2021-09-07_21h17.46.276,arrow_simon_vert,2021.1.2,Win32,58.45902023,,,,,,,,,,,left,2.5839,22,0,22,0,1,,,,,,,,,,,,,,,,,,,,,
,,,,,,,,,,,,,,,,,,,,,,,,,61359d9dd228a87d0c8b53b4,2021-09-07_21h17.46.276,arrow_simon_vert,2021.1.2,Win32,58.45902023,,,,,,,,,,,up,2.613,23,0,23,0,1,,,,,,,,,,,,,,,,,,,,,
,,,,,,,,,,,,,,,,,,,,,,,,,61359d9dd228a87d0c8b53b4,2021-09-07_21h17.46.276,arrow_simon_vert,2021.1.2,Win32,58.45902023,,,,,,,,,,,right,2.6012,24,0,24,0,1,,,,,,,,,,,,,,,,,,,,,
,,,,,,,,,,,,,,,,,,,,,,,,,61359d9dd228a87d0c8b53b4,2021-09-07_21h17.46.276,arrow_simon_vert,2021.1.2,Win32,58.45902023,,,,,,,,,,,down,2.112,25,0,25,0,1,,,,,,,,,,,,,,,,,,,,,
,,,,,,,,,,,,,,,,,,,,,,,,,61359d9dd228a87d0c8b53b4,2021-09-07_21h17.46.276,arrow_simon_vert,2021.1.2,Win32,58.45902023,,,,,,,,,,,left,2.4006,26,0,26,0,1,,,,,,,,,,,,,,,,,,,,,
,,,,,,,,,,,,,,,,,,,,,,,,,61359d9dd228a87d0c8b53b4,2021-09-07_21h17.46.276,arrow_simon_vert,2021.1.2,Win32,58.45902023,,,,,,,,,,,up,2.437,27,0,27,0,1,,,,,,,,,,,,,,,,,,,,,
,,,,,,,,,,,,,,,,,,,,,,,,,61359d9dd228a87d0c8b53b4,2021-09-07_21h17.46.276,arrow_simon_vert,2021.1.2,Win32,58.45902023,,,,,,,,,,,right,2.4248,28,0,28,0,1,,,,,,,,,,,,,,,,,,,,,
,,,,,,,,,,,,,,,,,,,,,,,,,61359d9dd228a87d0c8b53b4,2021-09-07_21h17.46.276,arrow_simon_vert,2021.1.2,Win32,58.45902023,,,,,,,,,,,down,2.288,29,0,29,0,1,,,,,,,,,,,,,,,,,,,,,
,,,,,,,,,,,,,,,,,,,,,,,,,61359d9dd228a87d0c8b53b4,2021-09-07_21h17.46.276,arrow_simon_vert,2021.1.2,Win32,58.45902023,,,,,,,,,,,left,2.2784,30,0,30,0,1,,,,,,,,,,,,,,,,,,,,,
,,,,,,,,,,,,,,,,,,,,,,,,,61359d9dd228a87d0c8b53b4,2021-09-07_21h17.46.276,arrow_simon_vert,2021.1.2,Win32,58.45902023,,,,,,,,,,,up,2.239,31,0,31,0,1,,,,,,,,,,,,,,,,,,,,,
,,,,,,,,,,,,,,,,,,,,,,,,,61359d9dd228a87d0c8b53b4,2021-09-07_21h17.46.276,arrow_simon_vert,2021.1.2,Win32,58.45902023,,,,,,,,,,,right,2.3182,32,0,32,0,1,,,,,,,,,,,,,,,,,,,,,
,,,,,,,,,,,,,,,,,,,,,,,,,61359d9dd228a87d0c8b53b4,2021-09-07_21h17.46.276,arrow_simon_vert,2021.1.2,Win32,58.45902023,,,,,,,,,,,down,2.3343,33,0,33,0,1,,,,,,,,,,,,,,,,,,,,,
,,,,,,,,,,,,,,,,,,,,,,,,,61359d9dd228a87d0c8b53b4,2021-09-07_21h17.46.276,arrow_simon_vert,2021.1.2,Win32,58.45902023,,,,,,,,,,,left,2.4191,34,0,34,0,1,,,,,,,,,,,,,,,,,,,,,
,,,,,,,,,,,,,,,,,,,,,,,,,61359d9dd228a87d0c8b53b4,2021-09-07_21h17.46.276,arrow_simon_vert,2021.1.2,Win32,58.45902023,,,,,,,,,,,up,2.3011,35,0,35,0,1,,,,,,,,,,,,,,,,,,,,,
,,,,,,,,,,,,,,,,,,,,,,,,,61359d9dd228a87d0c8b53b4,2021-09-07_21h17.46.276,arrow_simon_vert,2021.1.2,Win32,58.45902023,,,,,,,,,,,right,2.3254,36,0,36,0,1,,,,,,,,,,,,,,,,,,,,,
,,,,,,,,,,,,,,,,,,,,,,,,,61359d9dd228a87d0c8b53b4,2021-09-07_21h17.46.276,arrow_simon_vert,2021.1.2,Win32,58.45902023,,,,,,,,,,,down,2.2766,37,0,37,0,1,,,,,,,,,,,,,,,,,,,,,
,,,,,,,,,,,,,,,,,,,,,,,,,61359d9dd228a87d0c8b53b4,2021-09-07_21h17.46.276,arrow_simon_vert,2021.1.2,Win32,58.45902023,,,,,,,,,,,left,2.3554,38,0,38,0,1,,,,,,,,,,,,,,,,,,,,,
,,,,,,,,,,,,,,,,,,,,,,,,,61359d9dd228a87d0c8b53b4,2021-09-07_21h17.46.276,arrow_simon_vert,2021.1.2,Win32,58.45902023,,,,,,,,,,,up,2.4681,39,0,39,0,1,,,,,,,,,,,,,,,,,,,,,
,,,,,,,,,,,,,,,,,,,,,,,,,61359d9dd228a87d0c8b53b4,2021-09-07_21h17.46.276,arrow_simon_vert,2021.1.2,Win32,58.45902023,,,,,,,,,,,right,2.5516,40,0,40,0,1,,,,,,,,,,,,,,,,,,,,,
,,,,,,,,,,,,,,,,,,,,,,,,,61359d9dd228a87d0c8b53b4,2021-09-07_21h17.46.276,arrow_simon_vert,2021.1.2,Win32,58.45902023,,,,,,,,,,,down,2.586,41,0,41,0,1,,,,,,,,,,,,,,,,,,,,,
,,,,,,,,,,,,,,,,,,,,,,,,,61359d9dd228a87d0c8b53b4,2021-09-07_21h17.46.276,arrow_simon_vert,2021.1.2,Win32,58.45902023,,,,,,,,,,,left,2.5732,42,0,42,0,1,,,,,,,,,,,,,,,,,,,,,
,,,,,,,,,,,,,,,,,,,,,,,,,61359d9dd228a87d0c8b53b4,2021-09-07_21h17.46.276,arrow_simon_vert,2021.1.2,Win32,58.45902023,,,,,,,,,,,up,2.454,43,0,43,0,1,,,,,,,,,,,,,,,,,,,,,
,,,,,,,,,,,,,,,,,,,,,,,,,61359d9dd228a87d0c8b53b4,2021-09-07_21h17.46.276,arrow_simon_vert,2021.1.2,Win32,58.45902023,,,,,,,,,,,right,2.4358,44,0,44,0,1,,,,,,,,,,,,,,,,,,,,,
,,,,,,,,,,,,,,,,,,,,,,,,,61359d9dd228a87d0c8b53b4,2021-09-07_21h17.46.276,arrow_simon_vert,2021.1.2,Win32,58.45902023,,,,,,,,,,,down,2.4278,45,0,45,0,1,,,,,,,,,,,,,,,,,,,,,
,,,,,,,,,,,,,,,,,,,,,,,,,61359d9dd228a87d0c8b53b4,2021-09-07_21h17.46.276,arrow_simon_vert,2021.1.2,Win32,58.45902023,,,,,,,,,,,left,2.3848,46,0,46,0,1,,,,,,,,,,,,,,,,,,,,,
,,,,,,,,,,,,,,,,,,,,,,,,,61359d9dd228a87d0c8b53b4,2021-09-07_21h17.46.276,arrow_simon_vert,2021.1.2,Win32,58.45902023,,,,,,,,,,,up,2.421,47,0,47,0,1,,,,,,,,,,,,,,,,,,,,,
,,,,,,,,,,,,,,,,,,,,,,,,,61359d9dd228a87d0c8b53b4,2021-09-07_21h17.46.276,arrow_simon_vert,2021.1.2,Win32,58.45902023,,,,,,,,,,,right,2.4011,48,0,48,0,1,,,,,,,,,,,,,,,,,,,,,
,,,,,,,,,,,,,,,,,,,,,,,,,61359d9dd228a87d0c8b53b4,2021-09-07_21h17.46.276,arrow_simon_vert,2021.1.2,Win32,58.45902023,,,,,,,,,,,down,2.2834,49,0,49,0,1,,,,,,,,,,,,,,,,,,,,,
,,,,,,,,,,,,,,,,,,,,,,,,,61359d9dd228a87d0c8b53b4,2021-09-07_21h17.46.276,arrow_simon_vert,2021.1.2,Win32,58.45902023,,,,,,,,,,,left,2.3175,50,0,50,0,1,,,,,,,,,,,,,,,,,,,,,
,,,,,,,,,,,,,,,,,,,,,,,,,61359d9dd228a87d0c8b53b4,2021-09-07_21h17.46.276,arrow_simon_vert,2021.1.2,Win32,58.45902023,,,,,,,,,,,up,2.5181,51,0,51,0,1,,,,,,,,,,,,,,,,,,,,,
,,,,,,,,,,,,,,,,,,,,,,,,,61359d9dd228a87d0c8b53b4,2021-09-07_21h17.46.276,arrow_simon_vert,2021.1.2,Win32,58.45902023,,,,,,,,,,,right,2.5347,52,0,52,0,1,,,,,,,,,,,,,,,,,,,,,
,,,,,,,,,,,,,,,,,,,,,,,,,61359d9dd228a87d0c8b53b4,2021-09-07_21h17.46.276,arrow_simon_vert,2021.1.2,Win32,58.45902023,,,,,,,,,,,down,2.2861,53,0,53,0,1,,,,,,,,,,,,,,,,,,,,,
,,,,,,,,,,,,,,,,,,,,,,,,,61359d9dd228a87d0c8b53b4,2021-09-07_21h17.46.276,arrow_simon_vert,2021.1.2,Win32,58.45902023,,,,,,,,,,,left,2.584,54,0,54,0,1,,,,,,,,,,,,,,,,,,,,,
,,,,,,,,,,,,,,,,,,,,,,,,,61359d9dd228a87d0c8b53b4,2021-09-07_21h17.46.276,arrow_simon_vert,2021.1.2,Win32,58.45902023,,,,,,,,,,,up,2.4448,55,0,55,0,1,,,,,,,,,,,,,,,,,,,,,
,,,,,,,,,,,,,,,,,,,,,,,,,61359d9dd228a87d0c8b53b4,2021-09-07_21h17.46.276,arrow_simon_vert,2021.1.2,Win32,58.45902023,,,,,,,,,,,right,2.5341,56,0,56,0,1,,,,,,,,,,,,,,,,,,,,,
,,,,,,,,,,,,,,,,,,,,,,,,,61359d9dd228a87d0c8b53b4,2021-09-07_21h17.46.276,arrow_simon_vert,2021.1.2,Win32,58.45902023,,,,,,,,,,,down,2.36,57,0,57,0,1,,,,,,,,,,,,,,,,,,,,,
,,,,,,,,,,,,,,,,,,,,,,,,,61359d9dd228a87d0c8b53b4,2021-09-07_21h17.46.276,arrow_simon_vert,2021.1.2,Win32,58.45902023,,,,,,,,,,,left,2.6012,58,0,58,0,1,,,,,,,,,,,,,,,,,,,,,
,,,,,,,,,,,,,,,,,,,,,,,,,61359d9dd228a87d0c8b53b4,2021-09-07_21h17.46.276,arrow_simon_vert,2021.1.2,Win32,58.45902023,,,,,,,,,,,up,2.5172,59,0,59,0,1,,,,,,,,,,,,,,,,,,,,,
,,,,,,0,2.009737597,#a3d0fb,"[""0.25"",""0""]",left_blue.png,left,,,,,,,,left,left_blue.png,down_orange.png,down,right,up,61359d9dd228a87d0c8b53b4,2021-09-07_21h17.46.276,arrow_simon_vert,2021.1.2,Win32,58.45902023,,,,,,,,,,,,,,,,,,space,0,65.016,left,1,1.6086,1,TRUE,FALSE,0,0,0,3,1,,,,,,,
,,,,,,0,1.802653369,#f3af84,"[""0"",""-0.25""]",down_orange.png,down,,,,,,,,left,left_blue.png,down_orange.png,down,left,down,61359d9dd228a87d0c8b53b4,2021-09-07_21h17.46.276,arrow_simon_vert,2021.1.2,Win32,58.45902023,,,,,,,,,,,,,,,,,,,,,left,0,1.34,2,FALSE,TRUE,0,1,1,2,1,,,,,,,
,,,,,,0,1.884989987,#a3d0fb,"[""0.25"",""0""]",left_blue.png,left,,,,,,,,left,left_blue.png,down_orange.png,down,right,up,61359d9dd228a87d0c8b53b4,2021-09-07_21h17.46.276,arrow_simon_vert,2021.1.2,Win32,58.45902023,,,,,,,,,,,,,,,,,,,,,left,1,1.4348,3,FALSE,FALSE,0,2,2,3,1,,,,,,,
,,,,,,0,1.977639707,#f3af84,"[""0"",""-0.25""]",down_orange.png,down,,,,,,,,left,left_blue.png,down_orange.png,down,left,down,61359d9dd228a87d0c8b53b4,2021-09-07_21h17.46.276,arrow_simon_vert,2021.1.2,Win32,58.45902023,,,,,,,,,,,,,,,,,,,,,down,1,1.3888,4,FALSE,TRUE,0,3,3,2,1,,,,,,,
,,,,,,0,1.992616024,#a3d0fb,"[""-0.25"",""0""]",left_blue.png,left,,,,,,,,left,left_blue.png,down_orange.png,down,left,down,61359d9dd228a87d0c8b53b4,2021-09-07_21h17.46.276,arrow_simon_vert,2021.1.2,Win32,58.45902023,,,,,,,,,,,,,,,,,,,,,right,0,1.3347,5,FALSE,TRUE,1,0,4,2,1,,,,,,,
,,,,,,0,1.831078214,#f3af84,"[""0"",""-0.25""]",down_orange.png,down,,,,,,,,left,left_blue.png,down_orange.png,down,left,down,61359d9dd228a87d0c8b53b4,2021-09-07_21h17.46.276,arrow_simon_vert,2021.1.2,Win32,58.45902023,,,,,,,,,,,,,,,,,,,,,down,1,1.3758,6,FALSE,TRUE,1,1,5,2,1,,,,,,,
,,,,,,0,1.972425518,#a3d0fb,"[""0.25"",""0""]",left_blue.png,left,,,,,,,,left,left_blue.png,down_orange.png,down,right,up,61359d9dd228a87d0c8b53b4,2021-09-07_21h17.46.276,arrow_simon_vert,2021.1.2,Win32,58.45902023,,,,,,,,,,,,,,,,,,,,,left,1,1.4173,7,FALSE,FALSE,1,2,6,3,1,,,,,,,
,,,,,,0,2.121431177,#f3af84,"[""0"",""-0.25""]",down_orange.png,down,,,,,,,,left,left_blue.png,down_orange.png,down,left,down,61359d9dd228a87d0c8b53b4,2021-09-07_21h17.46.276,arrow_simon_vert,2021.1.2,Win32,58.45902023,,,,,,,,,,,,,,,,,,,,,down,1,1.6007,8,TRUE,FALSE,1,3,7,2,1,,,,,,,
,,,,,,0,1.876567193,#a3d0fb,"[""-0.25"",""0""]",left_blue.png,left,,,,,,,,left,left_blue.png,down_orange.png,down,left,down,61359d9dd228a87d0c8b53b4,2021-09-07_21h17.46.276,arrow_simon_vert,2021.1.2,Win32,58.45902023,,,,,,,,,,,,,,,,,,,,,left,1,1.3727,9,FALSE,TRUE,2,0,8,2,1,,,,,,,
,,,,,,0,2.352028392,#f3af84,"[""0"",""0.25""]",down_orange.png,down,,,,,,,,left,left_blue.png,down_orange.png,down,right,up,61359d9dd228a87d0c8b53b4,2021-09-07_21h17.46.276,arrow_simon_vert,2021.1.2,Win32,58.45902023,,,,,,,,,,,,,,,,,,,,,down,1,1.8014,10,TRUE,FALSE,2,1,9,3,1,,,,,,,
,,,,,,0,1.979905672,#a3d0fb,"[""-0.25"",""0""]",right_blue.png,right,,,,,,,,right,right_blue.png,up_orange.png,up,left,down,61359d9dd228a87d0c8b53b4,2021-09-07_21h17.46.276,arrow_simon_vert,2021.1.2,Win32,58.45902023,,,,,,,,,,,,,,,,,,,,,right,1,1.4868,11,FALSE,FALSE,2,2,10,0,1,,,,,,,
,,,,,,0,2.387520226,#f3af84,"[""0"",""0.25""]",up_orange.png,up,,,,,,,,right,right_blue.png,up_orange.png,up,right,up,61359d9dd228a87d0c8b53b4,2021-09-07_21h17.46.276,arrow_simon_vert,2021.1.2,Win32,58.45902023,,,,,,,,,,,,,,,,,,,,,up,1,1.802,12,TRUE,FALSE,2,3,11,1,1,,,,,,,
,,,,,,0,2.315954969,#a3d0fb,"[""0.25"",""0""]",left_blue.png,left,,,,,,,,left,left_blue.png,down_orange.png,down,right,up,61359d9dd228a87d0c8b53b4,2021-09-07_21h17.46.276,arrow_simon_vert,2021.1.2,Win32,58.45902023,,,,,,,,,,,,,,,,,,,,,left,1,1.7101,13,TRUE,FALSE,3,0,12,3,1,,,,,,,
,,,,,,0,1.609647908,#f3af84,"[""0"",""-0.25""]",up_orange.png,up,,,,,,,,right,right_blue.png,up_orange.png,up,left,down,61359d9dd228a87d0c8b53b4,2021-09-07_21h17.46.276,arrow_simon_vert,2021.1.2,Win32,58.45902023,,,,,,,,,,,,,,,,,,,,,up,1,1.1013,14,FALSE,TRUE,3,1,13,0,1,,,,,,,
,,,,,,0,2.488910275,#a3d0fb,"[""-0.25"",""0""]",left_blue.png,left,,,,,,,,left,left_blue.png,down_orange.png,down,left,down,61359d9dd228a87d0c8b53b4,2021-09-07_21h17.46.276,arrow_simon_vert,2021.1.2,Win32,58.45902023,,,,,,,,,,,,,,,,,,,,,left,1,1.8341,15,TRUE,FALSE,3,2,14,2,1,,,,,,,
,,,,,,0,2.136461367,#f3af84,"[""0"",""0.25""]",up_orange.png,up,,,,,,,,right,right_blue.png,up_orange.png,up,right,up,61359d9dd228a87d0c8b53b4,2021-09-07_21h17.46.276,arrow_simon_vert,2021.1.2,Win32,58.45902023,,,,,,,,,,,,,,,,,,,,,up,1,1.4898,16,FALSE,FALSE,3,3,15,1,1,,,,,,,
,,,,,,0,2.235242131,#a3d0fb,"[""0.25"",""0""]",right_blue.png,right,,,,,,,,right,right_blue.png,up_orange.png,up,right,up,61359d9dd228a87d0c8b53b4,2021-09-07_21h17.46.276,arrow_simon_vert,2021.1.2,Win32,58.45902023,,,,,,,,,,,,,,,,,,,,,right,1,1.5961,17,FALSE,FALSE,4,0,16,1,1,,,,,,,
,,,,,,0,1.51622011,#f3af84,"[""0"",""-0.25""]",up_orange.png,up,,,,,,,,right,right_blue.png,up_orange.png,up,left,down,61359d9dd228a87d0c8b53b4,2021-09-07_21h17.46.276,arrow_simon_vert,2021.1.2,Win32,58.45902023,,,,,,,,,,,,,,,,,,,,,up,1,1.0944,18,FALSE,TRUE,4,1,17,0,1,,,,,,,
,,,,,,0,2.268227712,#a3d0fb,"[""-0.25"",""0""]",right_blue.png,right,,,,,,,,right,right_blue.png,up_orange.png,up,left,down,61359d9dd228a87d0c8b53b4,2021-09-07_21h17.46.276,arrow_simon_vert,2021.1.2,Win32,58.45902023,,,,,,,,,,,,,,,,,,,,,left,0,1.6906,19,TRUE,FALSE,4,2,18,0,1,,,,,,,
,,,,,,0,1.620562016,#f3af84,"[""0"",""-0.25""]",down_orange.png,down,,,,,,,,left,left_blue.png,down_orange.png,down,left,down,61359d9dd228a87d0c8b53b4,2021-09-07_21h17.46.276,arrow_simon_vert,2021.1.2,Win32,58.45902023,,,,,,,,,,,,,,,,,,,,,down,1,1.1244,20,FALSE,TRUE,4,3,19,2,1,,,,,,,
,,,,,,0,1.844181351,#a3d0fb,"[""0.25"",""0""]",right_blue.png,right,,,,,,,,right,right_blue.png,up_orange.png,up,right,up,61359d9dd228a87d0c8b53b4,2021-09-07_21h17.46.276,arrow_simon_vert,2021.1.2,Win32,58.45902023,,,,,,,,,,,,,,,,,,,,,right,1,1.3233,21,FALSE,TRUE,5,0,20,1,1,,,,,,,
,,,,,,0,2.11721057,#f3af84,"[""0"",""0.25""]",up_orange.png,up,,,,,,,,right,right_blue.png,up_orange.png,up,right,up,61359d9dd228a87d0c8b53b4,2021-09-07_21h17.46.276,arrow_simon_vert,2021.1.2,Win32,58.45902023,,,,,,,,,,,,,,,,,,,,,up,1,1.5559,22,FALSE,FALSE,5,1,21,1,1,,,,,,,
,,,,,,0,1.864669553,#a3d0fb,"[""-0.25"",""0""]",right_blue.png,right,,,,,,,,right,right_blue.png,up_orange.png,up,left,down,61359d9dd228a87d0c8b53b4,2021-09-07_21h17.46.276,arrow_simon_vert,2021.1.2,Win32,58.45902023,,,,,,,,,,,,,,,,,,,,,right,1,1.3923,23,FALSE,TRUE,5,2,22,0,1,,,,,,,
,,,,,,0,2.229661188,#f3af84,"[""0"",""-0.25""]",down_orange.png,down,,,,,,,,left,left_blue.png,down_orange.png,down,left,down,61359d9dd228a87d0c8b53b4,2021-09-07_21h17.46.276,arrow_simon_vert,2021.1.2,Win32,58.45902023,,,,,,,,,,,,,,,,,,,,,down,1,1.7348,24,TRUE,FALSE,5,3,23,2,1,,,,,,,
,,,,,,0,2.062409169,#a3d0fb,"[""-0.25"",""0""]",right_blue.png,right,,,,,,,,right,right_blue.png,up_orange.png,up,left,down,61359d9dd228a87d0c8b53b4,2021-09-07_21h17.46.276,arrow_simon_vert,2021.1.2,Win32,58.45902023,,,,,,,,,,,,,,,,,,,,,right,1,1.5083,25,FALSE,FALSE,6,0,24,0,1,,,,,,,
,,,,,,0,1.753127917,#f3af84,"[""0"",""0.25""]",up_orange.png,up,,,,,,,,right,right_blue.png,up_orange.png,up,right,up,61359d9dd228a87d0c8b53b4,2021-09-07_21h17.46.276,arrow_simon_vert,2021.1.2,Win32,58.45902023,,,,,,,,,,,,,,,,,,,,,up,1,1.2677,26,FALSE,TRUE,6,1,25,1,1,,,,,,,
,,,,,,0,2.391337651,#a3d0fb,"[""-0.25"",""0""]",right_blue.png,right,,,,,,,,right,right_blue.png,up_orange.png,up,left,down,61359d9dd228a87d0c8b53b4,2021-09-07_21h17.46.276,arrow_simon_vert,2021.1.2,Win32,58.45902023,,,,,,,,,,,,,,,,,,,,,right,1,1.8351,27,TRUE,FALSE,6,2,26,0,1,,,,,,,
,,,,,,0,1.813517543,#f3af84,"[""0"",""0.25""]",down_orange.png,down,,,,,,,,left,left_blue.png,down_orange.png,down,right,up,61359d9dd228a87d0c8b53b4,2021-09-07_21h17.46.276,arrow_simon_vert,2021.1.2,Win32,58.45902023,,,,,,,,,,,,,,,,,,,,,down,1,1.2789,28,FALSE,TRUE,6,3,27,3,1,,,,,,,
,,,,,,0,1.552375198,#a3d0fb,"[""-0.25"",""0""]",right_blue.png,right,,,,,,,,right,right_blue.png,up_orange.png,up,left,down,61359d9dd228a87d0c8b53b4,2021-09-07_21h17.46.276,arrow_simon_vert,2021.1.2,Win32,58.45902023,,,,,,,,,,,,,,,,,,,,,right,1,1.1014,29,FALSE,TRUE,7,0,28,0,1,,,,,,,
,,,,,,0,1.944574114,#f3af84,"[""0"",""0.25""]",down_orange.png,down,,,,,,,,left,left_blue.png,down_orange.png,down,right,up,61359d9dd228a87d0c8b53b4,2021-09-07_21h17.46.276,arrow_simon_vert,2021.1.2,Win32,58.45902023,,,,,,,,,,,,,,,,,,,,,down,1,1.4869,30,FALSE,FALSE,7,1,29,3,1,,,,,,,
,,,,,,0,2.450517907,#a3d0fb,"[""-0.25"",""0""]",right_blue.png,right,,,,,,,,right,right_blue.png,up_orange.png,up,left,down,61359d9dd228a87d0c8b53b4,2021-09-07_21h17.46.276,arrow_simon_vert,2021.1.2,Win32,58.45902023,,,,,,,,,,,,,,,,,,,,,right,1,1.8701,31,TRUE,FALSE,7,2,30,0,1,,,,,,,
,,,,,,0,1.769050397,#f3af84,"[""0"",""0.25""]",up_orange.png,up,,,,,,,,right,right_blue.png,up_orange.png,up,right,up,61359d9dd228a87d0c8b53b4,2021-09-07_21h17.46.276,arrow_simon_vert,2021.1.2,Win32,58.45902023,,,,,,,,,,,,,,,,,,,,,up,1,1.2592,32,FALSE,TRUE,7,3,31,1,1,,,,,,,
,,,,,,0,2.368436089,#a3d0fb,"[""0.25"",""0""]",left_blue.png,left,,,,,,,,left,left_blue.png,down_orange.png,down,right,up,61359d9dd228a87d0c8b53b4,2021-09-07_21h17.46.276,arrow_simon_vert,2021.1.2,Win32,58.45902023,,,,,,,,,,,,,,,,,,,,,right,0,1.735,33,TRUE,FALSE,8,0,32,3,1,,,,,,,
,,,,,,0,2.361010052,#f3af84,"[""0"",""0.25""]",down_orange.png,down,,,,,,,,left,left_blue.png,down_orange.png,down,right,up,61359d9dd228a87d0c8b53b4,2021-09-07_21h17.46.276,arrow_simon_vert,2021.1.2,Win32,58.45902023,,,,,,,,,,,,,,,,,,,,,up,0,1.8159,34,TRUE,FALSE,8,1,33,3,1,,,,,,,
,,,,,,0,1.93799602,#a3d0fb,"[""-0.25"",""0""]",right_blue.png,right,,,,,,,,right,right_blue.png,up_orange.png,up,left,down,61359d9dd228a87d0c8b53b4,2021-09-07_21h17.46.276,arrow_simon_vert,2021.1.2,Win32,58.45902023,,,,,,,,,,,,,,,,,,,,,right,1,1.4773,35,FALSE,FALSE,8,2,34,0,1,,,,,,,
,,,,,,0,1.628307299,#f3af84,"[""0"",""0.25""]",down_orange.png,down,,,,,,,,left,left_blue.png,down_orange.png,down,right,up,61359d9dd228a87d0c8b53b4,2021-09-07_21h17.46.276,arrow_simon_vert,2021.1.2,Win32,58.45902023,,,,,,,,,,,,,,,,,,,,,down,1,1.1748,36,FALSE,TRUE,8,3,35,3,1,,,,,,,
,,,,,,0,1.834943219,#a3d0fb,"[""0.25"",""0""]",left_blue.png,left,,,,,,,,left,left_blue.png,down_orange.png,down,right,up,61359d9dd228a87d0c8b53b4,2021-09-07_21h17.46.276,arrow_simon_vert,2021.1.2,Win32,58.45902023,,,,,,,,,,,,,,,,,,,,,left,1,1.4283,37,FALSE,FALSE,9,0,36,3,1,,,,,,,
,,,,,,0,2.096202569,#f3af84,"[""0"",""-0.25""]",down_orange.png,down,,,,,,,,left,left_blue.png,down_orange.png,down,left,down,61359d9dd228a87d0c8b53b4,2021-09-07_21h17.46.276,arrow_simon_vert,2021.1.2,Win32,58.45902023,,,,,,,,,,,,,,,,,,,,,down,1,1.5419,38,FALSE,FALSE,9,1,37,2,1,,,,,,,
,,,,,,0,1.797663121,#a3d0fb,"[""-0.25"",""0""]",left_blue.png,left,,,,,,,,left,left_blue.png,down_orange.png,down,left,down,61359d9dd228a87d0c8b53b4,2021-09-07_21h17.46.276,arrow_simon_vert,2021.1.2,Win32,58.45902023,,,,,,,,,,,,,,,,,,,,,left,1,1.4018,39,FALSE,FALSE,9,2,38,2,1,,,,,,,
,,,,,,0,2.106235051,#f3af84,"[""0"",""-0.25""]",up_orange.png,up,,,,,,,,right,right_blue.png,up_orange.png,up,left,down,61359d9dd228a87d0c8b53b4,2021-09-07_21h17.46.276,arrow_simon_vert,2021.1.2,Win32,58.45902023,,,,,,,,,,,,,,,,,,,,,up,1,1.612,40,TRUE,FALSE,9,3,39,0,1,,,,,,,
,,,,,,0,1.635346392,#a3d0fb,"[""0.25"",""0""]",right_blue.png,right,,,,,,,,right,right_blue.png,up_orange.png,up,right,up,61359d9dd228a87d0c8b53b4,2021-09-07_21h17.46.276,arrow_simon_vert,2021.1.2,Win32,58.45902023,,,,,,,,,,,,,,,,,,,,,right,1,1.3604,41,FALSE,TRUE,10,0,40,1,1,,,,,,,
,,,,,,0,2.192266278,#f3af84,"[""0"",""-0.25""]",down_orange.png,down,,,,,,,,left,left_blue.png,down_orange.png,down,left,down,61359d9dd228a87d0c8b53b4,2021-09-07_21h17.46.276,arrow_simon_vert,2021.1.2,Win32,58.45902023,,,,,,,,,,,,,,,,,,,,,down,1,1.6226,42,TRUE,FALSE,10,1,41,2,1,,,,,,,
,,,,,,0,2.344946111,#a3d0fb,"[""0.25"",""0""]",right_blue.png,right,,,,,,,,right,right_blue.png,up_orange.png,up,right,up,61359d9dd228a87d0c8b53b4,2021-09-07_21h17.46.276,arrow_simon_vert,2021.1.2,Win32,58.45902023,,,,,,,,,,,,,,,,,,,,,right,1,1.7416,43,TRUE,FALSE,10,2,42,1,1,,,,,,,
,,,,,,0,2.106577759,#f3af84,"[""0"",""-0.25""]",down_orange.png,down,,,,,,,,left,left_blue.png,down_orange.png,down,left,down,61359d9dd228a87d0c8b53b4,2021-09-07_21h17.46.276,arrow_simon_vert,2021.1.2,Win32,58.45902023,,,,,,,,,,,,,,,,,,,,,down,1,1.642,44,TRUE,FALSE,10,3,43,2,1,,,,,,,
,,,,,,0,1.728522107,#a3d0fb,"[""0.25"",""0""]",right_blue.png,right,,,,,,,,right,right_blue.png,up_orange.png,up,right,up,61359d9dd228a87d0c8b53b4,2021-09-07_21h17.46.276,arrow_simon_vert,2021.1.2,Win32,58.45902023,,,,,,,,,,,,,,,,,,,,,right,1,1.2433,45,FALSE,TRUE,11,0,44,1,1,,,,,,,
,,,,,,0,2.045721382,#f3af84,"[""0"",""0.25""]",down_orange.png,down,,,,,,,,left,left_blue.png,down_orange.png,down,right,up,61359d9dd228a87d0c8b53b4,2021-09-07_21h17.46.276,arrow_simon_vert,2021.1.2,Win32,58.45902023,,,,,,,,,,,,,,,,,,,,,down,1,1.4367,46,FALSE,FALSE,11,1,45,3,1,,,,,,,
,,,,,,0,2.07646039,#a3d0fb,"[""-0.25"",""0""]",left_blue.png,left,,,,,,,,left,left_blue.png,down_orange.png,down,left,down,61359d9dd228a87d0c8b53b4,2021-09-07_21h17.46.276,arrow_simon_vert,2021.1.2,Win32,58.45902023,,,,,,,,,,,,,,,,,,,,,left,1,1.5133,47,FALSE,FALSE,11,2,46,2,1,,,,,,,
,,,,,,0,2.272089196,#f3af84,"[""0"",""0.25""]",up_orange.png,up,,,,,,,,right,right_blue.png,up_orange.png,up,right,up,61359d9dd228a87d0c8b53b4,2021-09-07_21h17.46.276,arrow_simon_vert,2021.1.2,Win32,58.45902023,,,,,,,,,,,,,,,,,,,,,up,1,1.7271,48,TRUE,FALSE,11,3,47,1,1,,,,,,,
,,,,,,0,1.710400736,#a3d0fb,"[""-0.25"",""0""]",right_blue.png,right,,,,,,,,right,right_blue.png,up_orange.png,up,left,down,61359d9dd228a87d0c8b53b4,2021-09-07_21h17.46.276,arrow_simon_vert,2021.1.2,Win32,58.45902023,,,,,,,,,,,,,,,,,,,,,right,1,1.3367,49,FALSE,TRUE,12,0,48,0,1,,,,,,,
,,,,,,0,1.918013924,#f3af84,"[""0"",""-0.25""]",down_orange.png,down,,,,,,,,left,left_blue.png,down_orange.png,down,left,down,61359d9dd228a87d0c8b53b4,2021-09-07_21h17.46.276,arrow_simon_vert,2021.1.2,Win32,58.45902023,,,,,,,,,,,,,,,,,,,,,down,1,1.4244,50,FALSE,FALSE,12,1,49,2,1,,,,,,,
,,,,,,0,1.654154597,#a3d0fb,"[""-0.25"",""0""]",right_blue.png,right,,,,,,,,right,right_blue.png,up_orange.png,up,left,down,61359d9dd228a87d0c8b53b4,2021-09-07_21h17.46.276,arrow_simon_vert,2021.1.2,Win32,58.45902023,,,,,,,,,,,,,,,,,,,,,right,1,1.2182,51,FALSE,TRUE,12,2,50,0,1,,,,,,,
,,,,,,0,1.608529048,#f3af84,"[""0"",""0.25""]",down_orange.png,down,,,,,,,,left,left_blue.png,down_orange.png,down,right,up,61359d9dd228a87d0c8b53b4,2021-09-07_21h17.46.276,arrow_simon_vert,2021.1.2,Win32,58.45902023,,,,,,,,,,,,,,,,,,,,,down,1,1.2511,52,FALSE,TRUE,12,3,51,3,1,,,,,,,
,,,,,,0,1.876587221,#a3d0fb,"[""0.25"",""0""]",left_blue.png,left,,,,,,,,left,left_blue.png,down_orange.png,down,right,up,61359d9dd228a87d0c8b53b4,2021-09-07_21h17.46.276,arrow_simon_vert,2021.1.2,Win32,58.45902023,,,,,,,,,,,,,,,,,,,,,left,1,1.4507,53,FALSE,FALSE,13,0,52,3,1,,,,,,,
,,,,,,0,2.044406648,#f3af84,"[""0"",""0.25""]",up_orange.png,up,,,,,,,,right,right_blue.png,up_orange.png,up,right,up,61359d9dd228a87d0c8b53b4,2021-09-07_21h17.46.276,arrow_simon_vert,2021.1.2,Win32,58.45902023,,,,,,,,,,,,,,,,,,,,,up,1,1.5841,54,FALSE,FALSE,13,1,53,1,1,,,,,,,
,,,,,,0,1.8068316,#a3d0fb,"[""0.25"",""0""]",right_blue.png,right,,,,,,,,right,right_blue.png,up_orange.png,up,right,up,61359d9dd228a87d0c8b53b4,2021-09-07_21h17.46.276,arrow_simon_vert,2021.1.2,Win32,58.45902023,,,,,,,,,,,,,,,,,,,,,right,1,1.3773,55,FALSE,TRUE,13,2,54,1,1,,,,,,,
,,,,,,0,2.002242812,#f3af84,"[""0"",""0.25""]",up_orange.png,up,,,,,,,,right,right_blue.png,up_orange.png,up,right,up,61359d9dd228a87d0c8b53b4,2021-09-07_21h17.46.276,arrow_simon_vert,2021.1.2,Win32,58.45902023,,,,,,,,,,,,,,,,,,,,,up,1,1.4342,56,FALSE,FALSE,13,3,55,1,1,,,,,,,
,,,,,,0,1.595007778,#a3d0fb,"[""0.25"",""0""]",left_blue.png,left,,,,,,,,left,left_blue.png,down_orange.png,down,right,up,61359d9dd228a87d0c8b53b4,2021-09-07_21h17.46.276,arrow_simon_vert,2021.1.2,Win32,58.45902023,,,,,,,,,,,,,,,,,,,,,left,1,1.2065,57,FALSE,TRUE,14,0,56,3,1,,,,,,,
,,,,,,0,2.201822834,#f3af84,"[""0"",""-0.25""]",up_orange.png,up,,,,,,,,right,right_blue.png,up_orange.png,up,left,down,61359d9dd228a87d0c8b53b4,2021-09-07_21h17.46.276,arrow_simon_vert,2021.1.2,Win32,58.45902023,,,,,,,,,,,,,,,,,,,,,up,1,1.6704,58,TRUE,FALSE,14,1,57,0,1,,,,,,,
,,,,,,0,2.087725245,#a3d0fb,"[""0.25"",""0""]",right_blue.png,right,,,,,,,,right,right_blue.png,up_orange.png,up,right,up,61359d9dd228a87d0c8b53b4,2021-09-07_21h17.46.276,arrow_simon_vert,2021.1.2,Win32,58.45902023,,,,,,,,,,,,,,,,,,,,,right,1,1.4867,59,FALSE,FALSE,14,2,58,1,1,,,,,,,
,,,,,,0,1.538050864,#f3af84,"[""0"",""-0.25""]",up_orange.png,up,,,,,,,,right,right_blue.png,up_orange.png,up,left,down,61359d9dd228a87d0c8b53b4,2021-09-07_21h17.46.276,arrow_simon_vert,2021.1.2,Win32,58.45902023,,,,,,,,,,,,,,,,,,,,,up,1,1.2622,60,FALSE,TRUE,14,3,59,0,1,,,,,,,
,,,,,,,,,,,,,,,,,,,,,,,,,61359d9dd228a87d0c8b53b4,2021-09-07_21h17.46.276,arrow_simon_vert,2021.1.2,Win32,58.45902023,,,,,,,,,,,,,,,,,,,,,,,,,,,,,,,,space,441.2924,0,0,0,0,1
,,,,,,0,1.699822324,#a3d0fb,"[""0.25"",""0""]",left_blue.png,left,,,,,,,,left,left_blue.png,down_orange.png,down,right,up,61359d9dd228a87d0c8b53b4,2021-09-07_21h17.46.276,arrow_simon_vert,2021.1.2,Win32,58.45902023,,,,,,,,,,,,,,,,,,,,,left,1,1.263,1,FALSE,TRUE,0,0,0,3,1,,,,,,,
,,,,,,0,2.003459136,#f3af84,"[""0"",""-0.25""]",up_orange.png,up,,,,,,,,right,right_blue.png,up_orange.png,up,left,down,61359d9dd228a87d0c8b53b4,2021-09-07_21h17.46.276,arrow_simon_vert,2021.1.2,Win32,58.45902023,,,,,,,,,,,,,,,,,,,,,up,1,1.5358,2,FALSE,FALSE,0,1,1,0,1,,,,,,,
,,,,,,0,1.583245389,#a3d0fb,"[""-0.25"",""0""]",left_blue.png,left,,,,,,,,left,left_blue.png,down_orange.png,down,left,down,61359d9dd228a87d0c8b53b4,2021-09-07_21h17.46.276,arrow_simon_vert,2021.1.2,Win32,58.45902023,,,,,,,,,,,,,,,,,,,,,left,1,1.252,3,FALSE,TRUE,0,2,2,2,1,,,,,,,
,,,,,,0,2.167151489,#f3af84,"[""0"",""-0.25""]",up_orange.png,up,,,,,,,,right,right_blue.png,up_orange.png,up,left,down,61359d9dd228a87d0c8b53b4,2021-09-07_21h17.46.276,arrow_simon_vert,2021.1.2,Win32,58.45902023,,,,,,,,,,,,,,,,,,,,,down,0,1.6921,4,TRUE,FALSE,0,3,3,0,1,,,,,,,
,,,,,,0,1.545914531,#a3d0fb,"[""0.25"",""0""]",right_blue.png,right,,,,,,,,right,right_blue.png,up_orange.png,up,right,up,61359d9dd228a87d0c8b53b4,2021-09-07_21h17.46.276,arrow_simon_vert,2021.1.2,Win32,58.45902023,,,,,,,,,,,,,,,,,,,,,right,1,1.2587,5,FALSE,TRUE,1,0,4,1,1,,,,,,,
,,,,,,0,2.380211674,#f3af84,"[""0"",""0.25""]",down_orange.png,down,,,,,,,,left,left_blue.png,down_orange.png,down,right,up,61359d9dd228a87d0c8b53b4,2021-09-07_21h17.46.276,arrow_simon_vert,2021.1.2,Win32,58.45902023,,,,,,,,,,,,,,,,,,,,,down,1,1.7683,6,TRUE,FALSE,1,1,5,3,1,,,,,,,
,,,,,,0,1.606826825,#a3d0fb,"[""0.25"",""0""]",right_blue.png,right,,,,,,,,right,right_blue.png,up_orange.png,up,right,up,61359d9dd228a87d0c8b53b4,2021-09-07_21h17.46.276,arrow_simon_vert,2021.1.2,Win32,58.45902023,,,,,,,,,,,,,,,,,,,,,right,1,1.6288,7,TRUE,FALSE,1,2,6,1,1,,,,,,,
,,,,,,0,2.212737247,#f3af84,"[""0"",""0.25""]",up_orange.png,up,,,,,,,,right,right_blue.png,up_orange.png,up,right,up,61359d9dd228a87d0c8b53b4,2021-09-07_21h17.46.276,arrow_simon_vert,2021.1.2,Win32,58.45902023,,,,,,,,,,,,,,,,,,,,,up,1,1.6181,8,TRUE,FALSE,1,3,7,1,1,,,,,,,
,,,,,,0,1.643315718,#a3d0fb,"[""-0.25"",""0""]",right_blue.png,right,,,,,,,,right,right_blue.png,up_orange.png,up,left,down,61359d9dd228a87d0c8b53b4,2021-09-07_21h17.46.276,arrow_simon_vert,2021.1.2,Win32,58.45902023,,,,,,,,,,,,,,,,,,,,,right,1,1.2075,9,FALSE,TRUE,2,0,8,0,1,,,,,,,
,,,,,,0,1.837438374,#f3af84,"[""0"",""0.25""]",down_orange.png,down,,,,,,,,left,left_blue.png,down_orange.png,down,right,up,61359d9dd228a87d0c8b53b4,2021-09-07_21h17.46.276,arrow_simon_vert,2021.1.2,Win32,58.45902023,,,,,,,,,,,,,,,,,,,,,down,1,1.3537,10,FALSE,TRUE,2,1,9,3,1,,,,,,,
,,,,,,0,1.786534717,#a3d0fb,"[""0.25"",""0""]",left_blue.png,left,,,,,,,,left,left_blue.png,down_orange.png,down,right,up,61359d9dd228a87d0c8b53b4,2021-09-07_21h17.46.276,arrow_simon_vert,2021.1.2,Win32,58.45902023,,,,,,,,,,,,,,,,,,,,,left,1,1.2367,11,FALSE,TRUE,2,2,10,3,1,,,,,,,
,,,,,,0,2.488468095,#f3af84,"[""0"",""-0.25""]",down_orange.png,down,,,,,,,,left,left_blue.png,down_orange.png,down,left,down,61359d9dd228a87d0c8b53b4,2021-09-07_21h17.46.276,arrow_simon_vert,2021.1.2,Win32,58.45902023,,,,,,,,,,,,,,,,,,,,,down,1,2.2082,12,TRUE,FALSE,2,3,11,2,1,,,,,,,
,,,,,,0,1.896409984,#a3d0fb,"[""-0.25"",""0""]",left_blue.png,left,,,,,,,,left,left_blue.png,down_orange.png,down,left,down,61359d9dd228a87d0c8b53b4,2021-09-07_21h17.46.276,arrow_simon_vert,2021.1.2,Win32,58.45902023,,,,,,,,,,,,,,,,,,,,,left,1,1.3375,13,FALSE,TRUE,3,0,12,2,1,,,,,,,
,,,,,,0,1.918216104,#f3af84,"[""0"",""0.25""]",up_orange.png,up,,,,,,,,right,right_blue.png,up_orange.png,up,right,up,61359d9dd228a87d0c8b53b4,2021-09-07_21h17.46.276,arrow_simon_vert,2021.1.2,Win32,58.45902023,,,,,,,,,,,,,,,,,,,,,up,1,2.5009,14,TRUE,FALSE,3,1,13,1,1,,,,,,,
,,,,,,0,1.778847074,#a3d0fb,"[""-0.25"",""0""]",right_blue.png,right,,,,,,,,right,right_blue.png,up_orange.png,up,left,down,61359d9dd228a87d0c8b53b4,2021-09-07_21h17.46.276,arrow_simon_vert,2021.1.2,Win32,58.45902023,,,,,,,,,,,,,,,,,,,,,right,1,1.2923,15,FALSE,TRUE,3,2,14,0,1,,,,,,,
,,,,,,0,2.046953694,#f3af84,"[""0"",""0.25""]",down_orange.png,down,,,,,,,,left,left_blue.png,down_orange.png,down,right,up,61359d9dd228a87d0c8b53b4,2021-09-07_21h17.46.276,arrow_simon_vert,2021.1.2,Win32,58.45902023,,,,,,,,,,,,,,,,,,,,,down,1,1.5512,16,FALSE,FALSE,3,3,15,3,1,,,,,,,
,,,,,,0,2.348711767,#a3d0fb,"[""-0.25"",""0""]",left_blue.png,left,,,,,,,,left,left_blue.png,down_orange.png,down,left,down,61359d9dd228a87d0c8b53b4,2021-09-07_21h17.46.276,arrow_simon_vert,2021.1.2,Win32,58.45902023,,,,,,,,,,,,,,,,,,,,,left,1,1.7351,17,TRUE,FALSE,4,0,16,2,1,,,,,,,
,,,,,,0,2.271917834,#f3af84,"[""0"",""-0.25""]",up_orange.png,up,,,,,,,,right,right_blue.png,up_orange.png,up,left,down,61359d9dd228a87d0c8b53b4,2021-09-07_21h17.46.276,arrow_simon_vert,2021.1.2,Win32,58.45902023,,,,,,,,,,,,,,,,,,,,,up,1,1.7344,18,TRUE,FALSE,4,1,17,0,1,,,,,,,
,,,,,,0,2.307678649,#a3d0fb,"[""0.25"",""0""]",right_blue.png,right,,,,,,,,right,right_blue.png,up_orange.png,up,right,up,61359d9dd228a87d0c8b53b4,2021-09-07_21h17.46.276,arrow_simon_vert,2021.1.2,Win32,58.45902023,,,,,,,,,,,,,,,,,,,,,right,1,1.723,19,TRUE,FALSE,4,2,18,1,1,,,,,,,
,,,,,,0,2.273553503,#f3af84,"[""0"",""0.25""]",down_orange.png,down,,,,,,,,left,left_blue.png,down_orange.png,down,right,up,61359d9dd228a87d0c8b53b4,2021-09-07_21h17.46.276,arrow_simon_vert,2021.1.2,Win32,58.45902023,,,,,,,,,,,,,,,,,,,,,up,0,1.6067,20,TRUE,FALSE,4,3,19,3,1,,,,,,,
,,,,,,0,1.780049941,#a3d0fb,"[""0.25"",""0""]",left_blue.png,left,,,,,,,,left,left_blue.png,down_orange.png,down,right,up,61359d9dd228a87d0c8b53b4,2021-09-07_21h17.46.276,arrow_simon_vert,2021.1.2,Win32,58.45902023,,,,,,,,,,,,,,,,,,,,,left,1,1.6513,21,TRUE,FALSE,5,0,20,3,1,,,,,,,
,,,,,,0,2.369994796,#f3af84,"[""0"",""-0.25""]",down_orange.png,down,,,,,,,,left,left_blue.png,down_orange.png,down,left,down,61359d9dd228a87d0c8b53b4,2021-09-07_21h17.46.276,arrow_simon_vert,2021.1.2,Win32,58.45902023,,,,,,,,,,,,,,,,,,,,,down,1,1.9553,22,TRUE,FALSE,5,1,21,2,1,,,,,,,
,,,,,,0,1.930198831,#a3d0fb,"[""0.25"",""0""]",right_blue.png,right,,,,,,,,right,right_blue.png,up_orange.png,up,right,up,61359d9dd228a87d0c8b53b4,2021-09-07_21h17.46.276,arrow_simon_vert,2021.1.2,Win32,58.45902023,,,,,,,,,,,,,,,,,,,,,right,1,1.3415,23,FALSE,TRUE,5,2,22,1,1,,,,,,,
,,,,,,0,1.557715317,#f3af84,"[""0"",""-0.25""]",up_orange.png,up,,,,,,,,right,right_blue.png,up_orange.png,up,left,down,61359d9dd228a87d0c8b53b4,2021-09-07_21h17.46.276,arrow_simon_vert,2021.1.2,Win32,58.45902023,,,,,,,,,,,,,,,,,,,,,up,1,1.1256,24,FALSE,TRUE,5,3,23,0,1,,,,,,,
,,,,,,0,1.728681408,#a3d0fb,"[""0.25"",""0""]",right_blue.png,right,,,,,,,,right,right_blue.png,up_orange.png,up,right,up,61359d9dd228a87d0c8b53b4,2021-09-07_21h17.46.276,arrow_simon_vert,2021.1.2,Win32,58.45902023,,,,,,,,,,,,,,,,,,,,,right,1,1.2782,25,FALSE,TRUE,6,0,24,1,1,,,,,,,
,,,,,,0,2.060117617,#f3af84,"[""0"",""0.25""]",down_orange.png,down,,,,,,,,left,left_blue.png,down_orange.png,down,right,up,61359d9dd228a87d0c8b53b4,2021-09-07_21h17.46.276,arrow_simon_vert,2021.1.2,Win32,58.45902023,,,,,,,,,,,,,,,,,,,,,down,1,1.4736,26,FALSE,FALSE,6,1,25,3,1,,,,,,,
,,,,,,0,2.338728573,#a3d0fb,"[""0.25"",""0""]",right_blue.png,right,,,,,,,,right,right_blue.png,up_orange.png,up,right,up,61359d9dd228a87d0c8b53b4,2021-09-07_21h17.46.276,arrow_simon_vert,2021.1.2,Win32,58.45902023,,,,,,,,,,,,,,,,,,,,,right,1,1.702,27,TRUE,FALSE,6,2,26,1,1,,,,,,,
,,,,,,0,1.512530613,#f3af84,"[""0"",""0.25""]",up_orange.png,up,,,,,,,,right,right_blue.png,up_orange.png,up,right,up,61359d9dd228a87d0c8b53b4,2021-09-07_21h17.46.276,arrow_simon_vert,2021.1.2,Win32,58.45902023,,,,,,,,,,,,,,,,,,,,,up,1,0.9592,28,FALSE,TRUE,6,3,27,1,1,,,,,,,
,,,,,,0,1.74150645,#a3d0fb,"[""0.25"",""0""]",left_blue.png,left,,,,,,,,left,left_blue.png,down_orange.png,down,right,up,61359d9dd228a87d0c8b53b4,2021-09-07_21h17.46.276,arrow_simon_vert,2021.1.2,Win32,58.45902023,,,,,,,,,,,,,,,,,,,,,left,1,1.1582,29,FALSE,TRUE,7,0,28,3,1,,,,,,,
,,,,,,0,1.730211301,#f3af84,"[""0"",""-0.25""]",down_orange.png,down,,,,,,,,left,left_blue.png,down_orange.png,down,left,down,61359d9dd228a87d0c8b53b4,2021-09-07_21h17.46.276,arrow_simon_vert,2021.1.2,Win32,58.45902023,,,,,,,,,,,,,,,,,,,,,down,1,1.3014,30,FALSE,TRUE,7,1,29,2,1,,,,,,,
,,,,,,0,1.601011456,#a3d0fb,"[""-0.25"",""0""]",left_blue.png,left,,,,,,,,left,left_blue.png,down_orange.png,down,left,down,61359d9dd228a87d0c8b53b4,2021-09-07_21h17.46.276,arrow_simon_vert,2021.1.2,Win32,58.45902023,,,,,,,,,,,,,,,,,,,,,left,1,1.4676,31,FALSE,FALSE,7,2,30,2,1,,,,,,,
,,,,,,0,1.898218552,#f3af84,"[""0"",""0.25""]",down_orange.png,down,,,,,,,,left,left_blue.png,down_orange.png,down,right,up,61359d9dd228a87d0c8b53b4,2021-09-07_21h17.46.276,arrow_simon_vert,2021.1.2,Win32,58.45902023,,,,,,,,,,,,,,,,,,,,,down,1,1.4174,32,FALSE,FALSE,7,3,31,3,1,,,,,,,
,,,,,,0,2.417949971,#a3d0fb,"[""-0.25"",""0""]",right_blue.png,right,,,,,,,,right,right_blue.png,up_orange.png,up,left,down,61359d9dd228a87d0c8b53b4,2021-09-07_21h17.46.276,arrow_simon_vert,2021.1.2,Win32,58.45902023,,,,,,,,,,,,,,,,,,,,,right,1,1.6347,33,TRUE,FALSE,8,0,32,0,1,,,,,,,
,,,,,,0,2.05784133,#f3af84,"[""0"",""0.25""]",up_orange.png,up,,,,,,,,right,right_blue.png,up_orange.png,up,right,up,61359d9dd228a87d0c8b53b4,2021-09-07_21h17.46.276,arrow_simon_vert,2021.1.2,Win32,58.45902023,,,,,,,,,,,,,,,,,,,,,up,1,1.4615,34,FALSE,FALSE,8,1,33,1,1,,,,,,,
,,,,,,0,2.396650281,#a3d0fb,"[""0.25"",""0""]",right_blue.png,right,,,,,,,,right,right_blue.png,up_orange.png,up,right,up,61359d9dd228a87d0c8b53b4,2021-09-07_21h17.46.276,arrow_simon_vert,2021.1.2,Win32,58.45902023,,,,,,,,,,,,,,,,,,,,,right,1,1.7513,35,TRUE,FALSE,8,2,34,1,1,,,,,,,
,,,,,,0,2.43013784,#f3af84,"[""0"",""0.25""]",up_orange.png,up,,,,,,,,right,right_blue.png,up_orange.png,up,right,up,61359d9dd228a87d0c8b53b4,2021-09-07_21h17.46.276,arrow_simon_vert,2021.1.2,Win32,58.45902023,,,,,,,,,,,,,,,,,,,,,right,0,1.6513,36,TRUE,FALSE,8,3,35,1,1,,,,,,,
,,,,,,0,1.526439737,#a3d0fb,"[""-0.25"",""0""]",left_blue.png,left,,,,,,,,left,left_blue.png,down_orange.png,down,left,down,61359d9dd228a87d0c8b53b4,2021-09-07_21h17.46.276,arrow_simon_vert,2021.1.2,Win32,58.45902023,,,,,,,,,,,,,,,,,,,,,left,1,1.4292,37,FALSE,FALSE,9,0,36,2,1,,,,,,,
,,,,,,0,1.819816621,#f3af84,"[""0"",""0.25""]",down_orange.png,down,,,,,,,,left,left_blue.png,down_orange.png,down,right,up,61359d9dd228a87d0c8b53b4,2021-09-07_21h17.46.276,arrow_simon_vert,2021.1.2,Win32,58.45902023,,,,,,,,,,,,,,,,,,,,,down,1,1.3845,38,FALSE,TRUE,9,1,37,3,1,,,,,,,
,,,,,,0,1.651359834,#a3d0fb,"[""-0.25"",""0""]",left_blue.png,left,,,,,,,,left,left_blue.png,down_orange.png,down,left,down,61359d9dd228a87d0c8b53b4,2021-09-07_21h17.46.276,arrow_simon_vert,2021.1.2,Win32,58.45902023,,,,,,,,,,,,,,,,,,,,,left,1,1.3344,39,FALSE,TRUE,9,2,38,2,1,,,,,,,
,,,,,,0,2.335636459,#f3af84,"[""0"",""-0.25""]",down_orange.png,down,,,,,,,,left,left_blue.png,down_orange.png,down,left,down,61359d9dd228a87d0c8b53b4,2021-09-07_21h17.46.276,arrow_simon_vert,2021.1.2,Win32,58.45902023,,,,,,,,,,,,,,,,,,,,,down,1,1.7787,40,TRUE,FALSE,9,3,39,2,1,,,,,,,
,,,,,,0,2.269149048,#a3d0fb,"[""-0.25"",""0""]",left_blue.png,left,,,,,,,,left,left_blue.png,down_orange.png,down,left,down,61359d9dd228a87d0c8b53b4,2021-09-07_21h17.46.276,arrow_simon_vert,2021.1.2,Win32,58.45902023,,,,,,,,,,,,,,,,,,,,,left,1,1.6178,41,TRUE,FALSE,10,0,40,2,1,,,,,,,
,,,,,,0,1.738747946,#f3af84,"[""0"",""-0.25""]",up_orange.png,up,,,,,,,,right,right_blue.png,up_orange.png,up,left,down,61359d9dd228a87d0c8b53b4,2021-09-07_21h17.46.276,arrow_simon_vert,2021.1.2,Win32,58.45902023,,,,,,,,,,,,,,,,,,,,,up,1,1.3928,42,FALSE,TRUE,10,1,41,0,1,,,,,,,
,,,,,,0,1.501096799,#a3d0fb,"[""-0.25"",""0""]",right_blue.png,right,,,,,,,,right,right_blue.png,up_orange.png,up,left,down,61359d9dd228a87d0c8b53b4,2021-09-07_21h17.46.276,arrow_simon_vert,2021.1.2,Win32,58.45902023,,,,,,,,,,,,,,,,,,,,,right,1,1.4843,43,FALSE,FALSE,10,2,42,0,1,,,,,,,
,,,,,,0,1.707719881,#f3af84,"[""0"",""-0.25""]",up_orange.png,up,,,,,,,,right,right_blue.png,up_orange.png,up,left,down,61359d9dd228a87d0c8b53b4,2021-09-07_21h17.46.276,arrow_simon_vert,2021.1.2,Win32,58.45902023,,,,,,,,,,,,,,,,,,,,,up,1,1.4193,44,FALSE,FALSE,10,3,43,0,1,,,,,,,
,,,,,,0,1.539953845,#a3d0fb,"[""-0.25"",""0""]",right_blue.png,right,,,,,,,,right,right_blue.png,up_orange.png,up,left,down,61359d9dd228a87d0c8b53b4,2021-09-07_21h17.46.276,arrow_simon_vert,2021.1.2,Win32,58.45902023,,,,,,,,,,,,,,,,,,,,,right,1,2.1941,45,TRUE,FALSE,11,0,44,0,1,,,,,,,
,,,,,,0,1.522935509,#f3af84,"[""0"",""-0.25""]",up_orange.png,up,,,,,,,,right,right_blue.png,up_orange.png,up,left,down,61359d9dd228a87d0c8b53b4,2021-09-07_21h17.46.276,arrow_simon_vert,2021.1.2,Win32,58.45902023,,,,,,,,,,,,,,,,,,,,,up,1,1.5457,46,FALSE,FALSE,11,1,45,0,1,,,,,,,
,,,,,,0,1.554965217,#a3d0fb,"[""-0.25"",""0""]",right_blue.png,right,,,,,,,,right,right_blue.png,up_orange.png,up,left,down,61359d9dd228a87d0c8b53b4,2021-09-07_21h17.46.276,arrow_simon_vert,2021.1.2,Win32,58.45902023,,,,,,,,,,,,,,,,,,,,,right,1,1.4205,47,FALSE,FALSE,11,2,46,0,1,,,,,,,
,,,,,,0,2.305258309,#f3af84,"[""0"",""0.25""]",down_orange.png,down,,,,,,,,left,left_blue.png,down_orange.png,down,right,up,61359d9dd228a87d0c8b53b4,2021-09-07_21h17.46.276,arrow_simon_vert,2021.1.2,Win32,58.45902023,,,,,,,,,,,,,,,,,,,,,down,1,1.7382,48,TRUE,FALSE,11,3,47,3,1,,,,,,,
,,,,,,0,2.493404924,#a3d0fb,"[""0.25"",""0""]",left_blue.png,left,,,,,,,,left,left_blue.png,down_orange.png,down,right,up,61359d9dd228a87d0c8b53b4,2021-09-07_21h17.46.276,arrow_simon_vert,2021.1.2,Win32,58.45902023,,,,,,,,,,,,,,,,,,,,,right,0,1.7632,49,TRUE,FALSE,12,0,48,3,1,,,,,,,
,,,,,,0,1.958413784,#f3af84,"[""0"",""0.25""]",down_orange.png,down,,,,,,,,left,left_blue.png,down_orange.png,down,right,up,61359d9dd228a87d0c8b53b4,2021-09-07_21h17.46.276,arrow_simon_vert,2021.1.2,Win32,58.45902023,,,,,,,,,,,,,,,,,,,,,down,1,1.3907,50,FALSE,TRUE,12,1,49,3,1,,,,,,,
,,,,,,0,1.966217072,#a3d0fb,"[""-0.25"",""0""]",left_blue.png,left,,,,,,,,left,left_blue.png,down_orange.png,down,left,down,61359d9dd228a87d0c8b53b4,2021-09-07_21h17.46.276,arrow_simon_vert,2021.1.2,Win32,58.45902023,,,,,,,,,,,,,,,,,,,,,left,1,1.4844,51,FALSE,FALSE,12,2,50,2,1,,,,,,,
,,,,,,0,2.069278039,#f3af84,"[""0"",""0.25""]",up_orange.png,up,,,,,,,,right,right_blue.png,up_orange.png,up,right,up,61359d9dd228a87d0c8b53b4,2021-09-07_21h17.46.276,arrow_simon_vert,2021.1.2,Win32,58.45902023,,,,,,,,,,,,,,,,,,,,,up,1,1.5467,52,FALSE,FALSE,12,3,51,1,1,,,,,,,
,,,,,,0,2.198084401,#a3d0fb,"[""0.25"",""0""]",right_blue.png,right,,,,,,,,right,right_blue.png,up_orange.png,up,right,up,61359d9dd228a87d0c8b53b4,2021-09-07_21h17.46.276,arrow_simon_vert,2021.1.2,Win32,58.45902023,,,,,,,,,,,,,,,,,,,,,right,1,1.5849,53,FALSE,FALSE,13,0,52,1,1,,,,,,,
,,,,,,0,1.75784946,#f3af84,"[""0"",""-0.25""]",down_orange.png,down,,,,,,,,left,left_blue.png,down_orange.png,down,left,down,61359d9dd228a87d0c8b53b4,2021-09-07_21h17.46.276,arrow_simon_vert,2021.1.2,Win32,58.45902023,,,,,,,,,,,,,,,,,,,,,down,1,1.3867,54,FALSE,TRUE,13,1,53,2,1,,,,,,,
,,,,,,0,1.705885916,#a3d0fb,"[""-0.25"",""0""]",right_blue.png,right,,,,,,,,right,right_blue.png,up_orange.png,up,left,down,61359d9dd228a87d0c8b53b4,2021-09-07_21h17.46.276,arrow_simon_vert,2021.1.2,Win32,58.45902023,,,,,,,,,,,,,,,,,,,,,right,1,1.3111,55,FALSE,TRUE,13,2,54,0,1,,,,,,,
,,,,,,0,1.958646494,#f3af84,"[""0"",""0.25""]",up_orange.png,up,,,,,,,,right,right_blue.png,up_orange.png,up,right,up,61359d9dd228a87d0c8b53b4,2021-09-07_21h17.46.276,arrow_simon_vert,2021.1.2,Win32,58.45902023,,,,,,,,,,,,,,,,,,,,,up,1,1.4393,56,FALSE,FALSE,13,3,55,1,1,,,,,,,
,,,,,,0,2.104693687,#a3d0fb,"[""-0.25"",""0""]",right_blue.png,right,,,,,,,,right,right_blue.png,up_orange.png,up,left,down,61359d9dd228a87d0c8b53b4,2021-09-07_21h17.46.276,arrow_simon_vert,2021.1.2,Win32,58.45902023,,,,,,,,,,,,,,,,,,,,,right,1,1.5677,57,FALSE,FALSE,14,0,56,0,1,,,,,,,
,,,,,,0,1.894308264,#f3af84,"[""0"",""-0.25""]",down_orange.png,down,,,,,,,,left,left_blue.png,down_orange.png,down,left,down,61359d9dd228a87d0c8b53b4,2021-09-07_21h17.46.276,arrow_simon_vert,2021.1.2,Win32,58.45902023,,,,,,,,,,,,,,,,,,,,,down,1,1.4936,58,FALSE,FALSE,14,1,57,2,1,,,,,,,
,,,,,,0,1.509586539,#a3d0fb,"[""-0.25"",""0""]",left_blue.png,left,,,,,,,,left,left_blue.png,down_orange.png,down,left,down,61359d9dd228a87d0c8b53b4,2021-09-07_21h17.46.276,arrow_simon_vert,2021.1.2,Win32,58.45902023,,,,,,,,,,,,,,,,,,,,,left,1,1.4293,59,FALSE,FALSE,14,2,58,2,1,,,,,,,
,,,,,,0,1.935021485,#f3af84,"[""0"",""0.25""]",down_orange.png,down,,,,,,,,left,left_blue.png,down_orange.png,down,right,up,61359d9dd228a87d0c8b53b4,2021-09-07_21h17.46.276,arrow_simon_vert,2021.1.2,Win32,58.45902023,,,,,,,,,,,,,,,,,,,,,down,1,1.4756,60,FALSE,FALSE,14,3,59,3,1,,,,,,,
,,,,,,,,,,,,,,,,,,,,,,,,,61359d9dd228a87d0c8b53b4,2021-09-07_21h17.46.276,arrow_simon_vert,2021.1.2,Win32,58.45902023,,,,,,,,,,,,,,,,,,,,,,,,,,,,,,,,space,49.7458,1,0,1,0,1
,,,,,,0,1.518692968,#a3d0fb,"[""-0.25"",""0""]",right_blue.png,right,,,,,,,,right,right_blue.png,up_orange.png,up,left,down,61359d9dd228a87d0c8b53b4,2021-09-07_21h17.46.276,arrow_simon_vert,2021.1.2,Win32,58.45902023,,,,,,,,,,,,,,,,,,,,,right,1,1.4613,1,FALSE,FALSE,0,0,0,0,1,,,,,,,
,,,,,,0,2.404535549,#f3af84,"[""0"",""-0.25""]",up_orange.png,up,,,,,,,,right,right_blue.png,up_orange.png,up,left,down,61359d9dd228a87d0c8b53b4,2021-09-07_21h17.46.276,arrow_simon_vert,2021.1.2,Win32,58.45902023,,,,,,,,,,,,,,,,,,,,,up,1,2.7442,2,TRUE,FALSE,0,1,1,0,1,,,,,,,
,,,,,,0,1.909529164,#a3d0fb,"[""0.25"",""0""]",right_blue.png,right,,,,,,,,right,right_blue.png,up_orange.png,up,right,up,61359d9dd228a87d0c8b53b4,2021-09-07_21h17.46.276,arrow_simon_vert,2021.1.2,Win32,58.45902023,,,,,,,,,,,,,,,,,,,,,right,1,1.4249,3,FALSE,FALSE,0,2,2,1,1,,,,,,,
,,,,,,0,1.886542793,#f3af84,"[""0"",""0.25""]",up_orange.png,up,,,,,,,,right,right_blue.png,up_orange.png,up,right,up,61359d9dd228a87d0c8b53b4,2021-09-07_21h17.46.276,arrow_simon_vert,2021.1.2,Win32,58.45902023,,,,,,,,,,,,,,,,,,,,,up,1,1.3744,4,FALSE,TRUE,0,3,3,1,1,,,,,,,
,,,,,,0,1.763990657,#a3d0fb,"[""0.25"",""0""]",left_blue.png,left,,,,,,,,left,left_blue.png,down_orange.png,down,right,up,61359d9dd228a87d0c8b53b4,2021-09-07_21h17.46.276,arrow_simon_vert,2021.1.2,Win32,58.45902023,,,,,,,,,,,,,,,,,,,,,left,1,1.3841,5,FALSE,TRUE,1,0,4,3,1,,,,,,,
,,,,,,0,1.865360379,#f3af84,"[""0"",""-0.25""]",down_orange.png,down,,,,,,,,left,left_blue.png,down_orange.png,down,left,down,61359d9dd228a87d0c8b53b4,2021-09-07_21h17.46.276,arrow_simon_vert,2021.1.2,Win32,58.45902023,,,,,,,,,,,,,,,,,,,,,down,1,1.351,6,FALSE,TRUE,1,1,5,2,1,,,,,,,
,,,,,,0,1.590942244,#a3d0fb,"[""0.25"",""0""]",right_blue.png,right,,,,,,,,right,right_blue.png,up_orange.png,up,right,up,61359d9dd228a87d0c8b53b4,2021-09-07_21h17.46.276,arrow_simon_vert,2021.1.2,Win32,58.45902023,,,,,,,,,,,,,,,,,,,,,right,1,1.3432,7,FALSE,TRUE,1,2,6,1,1,,,,,,,
,,,,,,0,2.196603183,#f3af84,"[""0"",""-0.25""]",down_orange.png,down,,,,,,,,left,left_blue.png,down_orange.png,down,left,down,61359d9dd228a87d0c8b53b4,2021-09-07_21h17.46.276,arrow_simon_vert,2021.1.2,Win32,58.45902023,,,,,,,,,,,,,,,,,,,,,down,1,1.9613,8,TRUE,FALSE,1,3,7,2,1,,,,,,,
,,,,,,0,2.415302323,#a3d0fb,"[""0.25"",""0""]",left_blue.png,left,,,,,,,,left,left_blue.png,down_orange.png,down,right,up,61359d9dd228a87d0c8b53b4,2021-09-07_21h17.46.276,arrow_simon_vert,2021.1.2,Win32,58.45902023,,,,,,,,,,,,,,,,,,,,,left,1,1.968,9,TRUE,FALSE,2,0,8,3,1,,,,,,,
,,,,,,0,1.755915716,#f3af84,"[""0"",""-0.25""]",up_orange.png,up,,,,,,,,right,right_blue.png,up_orange.png,up,left,down,61359d9dd228a87d0c8b53b4,2021-09-07_21h17.46.276,arrow_simon_vert,2021.1.2,Win32,58.45902023,,,,,,,,,,,,,,,,,,,,,up,1,1.268,10,FALSE,TRUE,2,1,9,0,1,,,,,,,
,,,,,,0,2.283434384,#a3d0fb,"[""0.25"",""0""]",left_blue.png,left,,,,,,,,left,left_blue.png,down_orange.png,down,right,up,61359d9dd228a87d0c8b53b4,2021-09-07_21h17.46.276,arrow_simon_vert,2021.1.2,Win32,58.45902023,,,,,,,,,,,,,,,,,,,,,left,1,1.7016,11,TRUE,FALSE,2,2,10,3,1,,,,,,,
,,,,,,0,1.687085173,#f3af84,"[""0"",""0.25""]",up_orange.png,up,,,,,,,,right,right_blue.png,up_orange.png,up,right,up,61359d9dd228a87d0c8b53b4,2021-09-07_21h17.46.276,arrow_simon_vert,2021.1.2,Win32,58.45902023,,,,,,,,,,,,,,,,,,,,,up,1,1.246,12,FALSE,TRUE,2,3,11,1,1,,,,,,,
,,,,,,0,2.105368358,#a3d0fb,"[""0.25"",""0""]",right_blue.png,right,,,,,,,,right,right_blue.png,up_orange.png,up,right,up,61359d9dd228a87d0c8b53b4,2021-09-07_21h17.46.276,arrow_simon_vert,2021.1.2,Win32,58.45902023,,,,,,,,,,,,,,,,,,,,,right,1,1.4881,13,FALSE,FALSE,3,0,12,1,1,,,,,,,
,,,,,,0,2.073096541,#f3af84,"[""0"",""0.25""]",down_orange.png,down,,,,,,,,left,left_blue.png,down_orange.png,down,right,up,61359d9dd228a87d0c8b53b4,2021-09-07_21h17.46.276,arrow_simon_vert,2021.1.2,Win32,58.45902023,,,,,,,,,,,,,,,,,,,,,down,1,1.484,14,FALSE,FALSE,3,1,13,3,1,,,,,,,
,,,,,,0,2.129473091,#a3d0fb,"[""-0.25"",""0""]",left_blue.png,left,,,,,,,,left,left_blue.png,down_orange.png,down,left,down,61359d9dd228a87d0c8b53b4,2021-09-07_21h17.46.276,arrow_simon_vert,2021.1.2,Win32,58.45902023,,,,,,,,,,,,,,,,,,,,,left,1,1.5203,15,FALSE,FALSE,3,2,14,2,1,,,,,,,
,,,,,,1,2.41604287,#f3af84,"[""0"",""0.25""]",up_orange.png,up,,,,,,,,right,right_blue.png,up_orange.png,up,right,up,61359d9dd228a87d0c8b53b4,2021-09-07_21h17.46.276,arrow_simon_vert,2021.1.2,Win32,58.45902023,,,,,,,,,,,,,,,,,,,,,right,0,1.5238,16,FALSE,FALSE,3,3,15,1,1,,,,,,,
,,,,,,0,2.052078769,#a3d0fb,"[""-0.25"",""0""]",left_blue.png,left,,,,,,,,left,left_blue.png,down_orange.png,down,left,down,61359d9dd228a87d0c8b53b4,2021-09-07_21h17.46.276,arrow_simon_vert,2021.1.2,Win32,58.45902023,,,,,,,,,,,,,,,,,,,,,left,1,1.5388,17,FALSE,FALSE,4,0,16,2,1,,,,,,,
,,,,,,1,2.405006175,#f3af84,"[""0"",""0.25""]",down_orange.png,down,,,,,,,,left,left_blue.png,down_orange.png,down,right,up,61359d9dd228a87d0c8b53b4,2021-09-07_21h17.46.276,arrow_simon_vert,2021.1.2,Win32,58.45902023,,,,,,,,,,,,,,,,,,,,,up,0,1.5845,18,FALSE,FALSE,4,1,17,3,1,,,,,,,
,,,,,,1,2.174437019,#a3d0fb,"[""0.25"",""0""]",left_blue.png,left,,,,,,,,left,left_blue.png,down_orange.png,down,right,up,61359d9dd228a87d0c8b53b4,2021-09-07_21h17.46.276,arrow_simon_vert,2021.1.2,Win32,58.45902023,,,,,,,,,,,,,,,,,,,,,left,1,1.6552,19,TRUE,FALSE,4,2,18,3,1,,,,,,,
,,,,,,1,2.39845096,#f3af84,"[""0"",""0.25""]",down_orange.png,down,,,,,,,,left,left_blue.png,down_orange.png,down,right,up,61359d9dd228a87d0c8b53b4,2021-09-07_21h17.46.276,arrow_simon_vert,2021.1.2,Win32,58.45902023,,,,,,,,,,,,,,,,,,,,,down,1,1.8076,20,TRUE,FALSE,4,3,19,3,1,,,,,,,
,,,,,,0,1.617978249,#a3d0fb,"[""-0.25"",""0""]",left_blue.png,left,,,,,,,,left,left_blue.png,down_orange.png,down,left,down,61359d9dd228a87d0c8b53b4,2021-09-07_21h17.46.276,arrow_simon_vert,2021.1.2,Win32,58.45902023,,,,,,,,,,,,,,,,,,,,,left,1,1.4235,21,FALSE,FALSE,5,0,20,2,1,,,,,,,
,,,,,,0,2.050261903,#f3af84,"[""0"",""0.25""]",down_orange.png,down,,,,,,,,left,left_blue.png,down_orange.png,down,right,up,61359d9dd228a87d0c8b53b4,2021-09-07_21h17.46.276,arrow_simon_vert,2021.1.2,Win32,58.45902023,,,,,,,,,,,,,,,,,,,,,down,1,1.5037,22,FALSE,FALSE,5,1,21,3,1,,,,,,,
,,,,,,0,1.716638643,#a3d0fb,"[""-0.25"",""0""]",left_blue.png,left,,,,,,,,left,left_blue.png,down_orange.png,down,left,down,61359d9dd228a87d0c8b53b4,2021-09-07_21h17.46.276,arrow_simon_vert,2021.1.2,Win32,58.45902023,,,,,,,,,,,,,,,,,,,,,left,1,1.3847,23,FALSE,TRUE,5,2,22,2,1,,,,,,,
,,,,,,0,1.566698344,#f3af84,"[""0"",""0.25""]",up_orange.png,up,,,,,,,,right,right_blue.png,up_orange.png,up,right,up,61359d9dd228a87d0c8b53b4,2021-09-07_21h17.46.276,arrow_simon_vert,2021.1.2,Win32,58.45902023,,,,,,,,,,,,,,,,,,,,,up,1,1.4754,24,FALSE,FALSE,5,3,23,1,1,,,,,,,
,,,,,,0,1.867806596,#a3d0fb,"[""-0.25"",""0""]",left_blue.png,left,,,,,,,,left,left_blue.png,down_orange.png,down,left,down,61359d9dd228a87d0c8b53b4,2021-09-07_21h17.46.276,arrow_simon_vert,2021.1.2,Win32,58.45902023,,,,,,,,,,,,,,,,,,,,,left,1,1.4794,25,FALSE,FALSE,6,0,24,2,1,,,,,,,
,,,,,,0,2.403024275,#f3af84,"[""0"",""0.25""]",down_orange.png,down,,,,,,,,left,left_blue.png,down_orange.png,down,right,up,61359d9dd228a87d0c8b53b4,2021-09-07_21h17.46.276,arrow_simon_vert,2021.1.2,Win32,58.45902023,,,,,,,,,,,,,,,,,,,,,down,1,1.8847,26,TRUE,FALSE,6,1,25,3,1,,,,,,,
,,,,,,0,1.66905447,#a3d0fb,"[""-0.25"",""0""]",left_blue.png,left,,,,,,,,left,left_blue.png,down_orange.png,down,left,down,61359d9dd228a87d0c8b53b4,2021-09-07_21h17.46.276,arrow_simon_vert,2021.1.2,Win32,58.45902023,,,,,,,,,,,,,,,,,,,,,left,1,1.4113,27,FALSE,FALSE,6,2,26,2,1,,,,,,,
,,,,,,0,1.515415839,#f3af84,"[""0"",""-0.25""]",down_orange.png,down,,,,,,,,left,left_blue.png,down_orange.png,down,left,down,61359d9dd228a87d0c8b53b4,2021-09-07_21h17.46.276,arrow_simon_vert,2021.1.2,Win32,58.45902023,,,,,,,,,,,,,,,,,,,,,down,1,1.2059,28,FALSE,TRUE,6,3,27,2,1,,,,,,,
,,,,,,0,2.316145401,#a3d0fb,"[""0.25"",""0""]",left_blue.png,left,,,,,,,,left,left_blue.png,down_orange.png,down,right,up,61359d9dd228a87d0c8b53b4,2021-09-07_21h17.46.276,arrow_simon_vert,2021.1.2,Win32,58.45902023,,,,,,,,,,,,,,,,,,,,,left,1,1.7177,29,TRUE,FALSE,7,0,28,3,1,,,,,,,
,,,,,,0,2.140223021,#f3af84,"[""0"",""-0.25""]",up_orange.png,up,,,,,,,,right,right_blue.png,up_orange.png,up,left,down,61359d9dd228a87d0c8b53b4,2021-09-07_21h17.46.276,arrow_simon_vert,2021.1.2,Win32,58.45902023,,,,,,,,,,,,,,,,,,,,,up,1,1.5927,30,FALSE,FALSE,7,1,29,0,1,,,,,,,
,,,,,,0,2.361528969,#a3d0fb,"[""-0.25"",""0""]",right_blue.png,right,,,,,,,,right,right_blue.png,up_orange.png,up,left,down,61359d9dd228a87d0c8b53b4,2021-09-07_21h17.46.276,arrow_simon_vert,2021.1.2,Win32,58.45902023,,,,,,,,,,,,,,,,,,,,,left,0,1.7522,31,TRUE,FALSE,7,2,30,0,1,,,,,,,
,,,,,,0,1.798589774,#f3af84,"[""0"",""-0.25""]",down_orange.png,down,,,,,,,,left,left_blue.png,down_orange.png,down,left,down,61359d9dd228a87d0c8b53b4,2021-09-07_21h17.46.276,arrow_simon_vert,2021.1.2,Win32,58.45902023,,,,,,,,,,,,,,,,,,,,,down,1,1.2351,32,FALSE,TRUE,7,3,31,2,1,,,,,,,
,,,,,,0,2.31899521,#a3d0fb,"[""-0.25"",""0""]",right_blue.png,right,,,,,,,,right,right_blue.png,up_orange.png,up,left,down,61359d9dd228a87d0c8b53b4,2021-09-07_21h17.46.276,arrow_simon_vert,2021.1.2,Win32,58.45902023,,,,,,,,,,,,,,,,,,,,,left,0,1.7344,33,TRUE,FALSE,8,0,32,0,1,,,,,,,
,,,,,,0,1.541770532,#f3af84,"[""0"",""-0.25""]",down_orange.png,down,,,,,,,,left,left_blue.png,down_orange.png,down,left,down,61359d9dd228a87d0c8b53b4,2021-09-07_21h17.46.276,arrow_simon_vert,2021.1.2,Win32,58.45902023,,,,,,,,,,,,,,,,,,,,,down,1,1.2347,34,FALSE,TRUE,8,1,33,2,1,,,,,,,
,,,,,,0,1.958953819,#a3d0fb,"[""0.25"",""0""]",right_blue.png,right,,,,,,,,right,right_blue.png,up_orange.png,up,right,up,61359d9dd228a87d0c8b53b4,2021-09-07_21h17.46.276,arrow_simon_vert,2021.1.2,Win32,58.45902023,,,,,,,,,,,,,,,,,,,,,right,1,1.3849,35,FALSE,TRUE,8,2,34,1,1,,,,,,,
,,,,,,0,1.684407306,#f3af84,"[""0"",""-0.25""]",up_orange.png,up,,,,,,,,right,right_blue.png,up_orange.png,up,left,down,61359d9dd228a87d0c8b53b4,2021-09-07_21h17.46.276,arrow_simon_vert,2021.1.2,Win32,58.45902023,,,,,,,,,,,,,,,,,,,,,up,1,1.4705,36,FALSE,FALSE,8,3,35,0,1,,,,,,,
,,,,,,0,2.341521906,#a3d0fb,"[""0.25"",""0""]",left_blue.png,left,,,,,,,,left,left_blue.png,down_orange.png,down,right,up,61359d9dd228a87d0c8b53b4,2021-09-07_21h17.46.276,arrow_simon_vert,2021.1.2,Win32,58.45902023,,,,,,,,,,,,,,,,,,,,,left,1,1.9234,37,TRUE,FALSE,9,0,36,3,1,,,,,,,
,,,,,,0,1.581114617,#f3af84,"[""0"",""-0.25""]",up_orange.png,up,,,,,,,,right,right_blue.png,up_orange.png,up,left,down,61359d9dd228a87d0c8b53b4,2021-09-07_21h17.46.276,arrow_simon_vert,2021.1.2,Win32,58.45902023,,,,,,,,,,,,,,,,,,,,,up,1,1.1534,38,FALSE,TRUE,9,1,37,0,1,,,,,,,
,,,,,,0,2.014984886,#a3d0fb,"[""-0.25"",""0""]",right_blue.png,right,,,,,,,,right,right_blue.png,up_orange.png,up,left,down,61359d9dd228a87d0c8b53b4,2021-09-07_21h17.46.276,arrow_simon_vert,2021.1.2,Win32,58.45902023,,,,,,,,,,,,,,,,,,,,,right,1,1.5081,39,FALSE,FALSE,9,2,38,0,1,,,,,,,
,,,,,,0,1.789430774,#f3af84,"[""0"",""-0.25""]",up_orange.png,up,,,,,,,,right,right_blue.png,up_orange.png,up,left,down,61359d9dd228a87d0c8b53b4,2021-09-07_21h17.46.276,arrow_simon_vert,2021.1.2,Win32,58.45902023,,,,,,,,,,,,,,,,,,,,,up,1,1.2788,40,FALSE,TRUE,9,3,39,0,1,,,,,,,
,,,,,,0,1.549151186,#a3d0fb,"[""-0.25"",""0""]",left_blue.png,left,,,,,,,,left,left_blue.png,down_orange.png,down,left,down,61359d9dd228a87d0c8b53b4,2021-09-07_21h17.46.276,arrow_simon_vert,2021.1.2,Win32,58.45902023,,,,,,,,,,,,,,,,,,,,,left,1,1.2886,41,FALSE,TRUE,10,0,40,2,1,,,,,,,
,,,,,,0,2.148689141,#f3af84,"[""0"",""-0.25""]",up_orange.png,up,,,,,,,,right,right_blue.png,up_orange.png,up,left,down,61359d9dd228a87d0c8b53b4,2021-09-07_21h17.46.276,arrow_simon_vert,2021.1.2,Win32,58.45902023,,,,,,,,,,,,,,,,,,,,,up,1,1.596,42,FALSE,FALSE,10,1,41,0,1,,,,,,,
,,,,,,0,1.756528821,#a3d0fb,"[""-0.25"",""0""]",left_blue.png,left,,,,,,,,left,left_blue.png,down_orange.png,down,left,down,61359d9dd228a87d0c8b53b4,2021-09-07_21h17.46.276,arrow_simon_vert,2021.1.2,Win32,58.45902023,,,,,,,,,,,,,,,,,,,,,left,1,1.3199,43,FALSE,TRUE,10,2,42,2,1,,,,,,,
,,,,,,0,2.404668721,#f3af84,"[""0"",""0.25""]",up_orange.png,up,,,,,,,,right,right_blue.png,up_orange.png,up,right,up,61359d9dd228a87d0c8b53b4,2021-09-07_21h17.46.276,arrow_simon_vert,2021.1.2,Win32,58.45902023,,,,,,,,,,,,,,,,,,,,,up,1,1.8038,44,TRUE,FALSE,10,3,43,1,1,,,,,,,
,,,,,,1,2.285286001,#a3d0fb,"[""-0.25"",""0""]",right_blue.png,right,,,,,,,,right,right_blue.png,up_orange.png,up,left,down,61359d9dd228a87d0c8b53b4,2021-09-07_21h17.46.276,arrow_simon_vert,2021.1.2,Win32,58.45902023,,,,,,,,,,,,,,,,,,,,,up,0,1.5692,45,FALSE,FALSE,11,0,44,0,1,,,,,,,
,,,,,,1,2.236146424,#f3af84,"[""0"",""0.25""]",up_orange.png,up,,,,,,,,right,right_blue.png,up_orange.png,up,right,up,61359d9dd228a87d0c8b53b4,2021-09-07_21h17.46.276,arrow_simon_vert,2021.1.2,Win32,58.45902023,,,,,,,,,,,,,,,,,,,,,up,1,1.6527,46,TRUE,FALSE,11,1,45,1,1,,,,,,,
,,,,,,1,2.233099064,#a3d0fb,"[""-0.25"",""0""]",left_blue.png,left,,,,,,,,left,left_blue.png,down_orange.png,down,left,down,61359d9dd228a87d0c8b53b4,2021-09-07_21h17.46.276,arrow_simon_vert,2021.1.2,Win32,58.45902023,,,,,,,,,,,,,,,,,,,,,right,0,1.5729,47,FALSE,FALSE,11,2,46,2,1,,,,,,,
,,,,,,1,1.658712766,#f3af84,"[""0"",""0.25""]",up_orange.png,up,,,,,,,,right,right_blue.png,up_orange.png,up,right,up,61359d9dd228a87d0c8b53b4,2021-09-07_21h17.46.276,arrow_simon_vert,2021.1.2,Win32,58.45902023,,,,,,,,,,,,,,,,,,,,,up,1,1.2586,48,FALSE,TRUE,11,3,47,1,1,,,,,,,
,,,,,,1,2.302191035,#a3d0fb,"[""-0.25"",""0""]",right_blue.png,right,,,,,,,,right,right_blue.png,up_orange.png,up,left,down,61359d9dd228a87d0c8b53b4,2021-09-07_21h17.46.276,arrow_simon_vert,2021.1.2,Win32,58.45902023,,,,,,,,,,,,,,,,,,,,,down,0,1.5415,49,FALSE,FALSE,12,0,48,0,1,,,,,,,
,,,,,,1,2.368956921,#f3af84,"[""0"",""0.25""]",up_orange.png,up,,,,,,,,right,right_blue.png,up_orange.png,up,right,up,61359d9dd228a87d0c8b53b4,2021-09-07_21h17.46.276,arrow_simon_vert,2021.1.2,Win32,58.45902023,,,,,,,,,,,,,,,,,,,,,up,1,1.8009,50,TRUE,FALSE,12,1,49,1,1,,,,,,,
,,,,,,1,1.824794497,#a3d0fb,"[""-0.25"",""0""]",right_blue.png,right,,,,,,,,right,right_blue.png,up_orange.png,up,left,down,61359d9dd228a87d0c8b53b4,2021-09-07_21h17.46.276,arrow_simon_vert,2021.1.2,Win32,58.45902023,,,,,,,,,,,,,,,,,,,,,right,1,1.3039,51,FALSE,TRUE,12,2,50,0,1,,,,,,,
,,,,,,0,2.040617661,#f3af84,"[""0"",""-0.25""]",down_orange.png,down,,,,,,,,left,left_blue.png,down_orange.png,down,left,down,61359d9dd228a87d0c8b53b4,2021-09-07_21h17.46.276,arrow_simon_vert,2021.1.2,Win32,58.45902023,,,,,,,,,,,,,,,,,,,,,down,1,1.5014,52,FALSE,FALSE,12,3,51,2,1,,,,,,,
,,,,,,0,1.773379705,#a3d0fb,"[""0.25"",""0""]",right_blue.png,right,,,,,,,,right,right_blue.png,up_orange.png,up,right,up,61359d9dd228a87d0c8b53b4,2021-09-07_21h17.46.276,arrow_simon_vert,2021.1.2,Win32,58.45902023,,,,,,,,,,,,,,,,,,,,,right,1,1.2629,53,FALSE,TRUE,13,0,52,1,1,,,,,,,
,,,,,,0,2.042980385,#f3af84,"[""0"",""-0.25""]",up_orange.png,up,,,,,,,,right,right_blue.png,up_orange.png,up,left,down,61359d9dd228a87d0c8b53b4,2021-09-07_21h17.46.276,arrow_simon_vert,2021.1.2,Win32,58.45902023,,,,,,,,,,,,,,,,,,,,,up,1,1.5095,54,FALSE,FALSE,13,1,53,0,1,,,,,,,
,,,,,,0,1.927935146,#a3d0fb,"[""0.25"",""0""]",right_blue.png,right,,,,,,,,right,right_blue.png,up_orange.png,up,right,up,61359d9dd228a87d0c8b53b4,2021-09-07_21h17.46.276,arrow_simon_vert,2021.1.2,Win32,58.45902023,,,,,,,,,,,,,,,,,,,,,left,0,1.3379,55,FALSE,TRUE,13,2,54,1,1,,,,,,,
,,,,,,0,1.730771741,#f3af84,"[""0"",""0.25""]",down_orange.png,down,,,,,,,,left,left_blue.png,down_orange.png,down,right,up,61359d9dd228a87d0c8b53b4,2021-09-07_21h17.46.276,arrow_simon_vert,2021.1.2,Win32,58.45902023,,,,,,,,,,,,,,,,,,,,,down,1,1.3011,56,FALSE,TRUE,13,3,55,3,1,,,,,,,
,,,,,,0,1.735405756,#a3d0fb,"[""0.25"",""0""]",left_blue.png,left,,,,,,,,left,left_blue.png,down_orange.png,down,right,up,61359d9dd228a87d0c8b53b4,2021-09-07_21h17.46.276,arrow_simon_vert,2021.1.2,Win32,58.45902023,,,,,,,,,,,,,,,,,,,,,left,1,1.2693,57,FALSE,TRUE,14,0,56,3,1,,,,,,,
,,,,,,0,2.405794684,#f3af84,"[""0"",""0.25""]",down_orange.png,down,,,,,,,,left,left_blue.png,down_orange.png,down,right,up,61359d9dd228a87d0c8b53b4,2021-09-07_21h17.46.276,arrow_simon_vert,2021.1.2,Win32,58.45902023,,,,,,,,,,,,,,,,,,,,,down,1,1.8609,58,TRUE,FALSE,14,1,57,3,1,,,,,,,
,,,,,,0,2.016953495,#a3d0fb,"[""0.25"",""0""]",right_blue.png,right,,,,,,,,right,right_blue.png,up_orange.png,up,right,up,61359d9dd228a87d0c8b53b4,2021-09-07_21h17.46.276,arrow_simon_vert,2021.1.2,Win32,58.45902023,,,,,,,,,,,,,,,,,,,,,right,1,1.4875,59,FALSE,FALSE,14,2,58,1,1,,,,,,,
,,,,,,0,2.039413266,#f3af84,"[""0"",""0.25""]",down_orange.png,down,,,,,,,,left,left_blue.png,down_orange.png,down,right,up,61359d9dd228a87d0c8b53b4,2021-09-07_21h17.46.276,arrow_simon_vert,2021.1.2,Win32,58.45902023,,,,,,,,,,,,,,,,,,,,,down,1,1.5317,60,FALSE,FALSE,14,3,59,3,1,,,,,,,
,,,,,,,,,,,,,,,,,,,,,,,,,61359d9dd228a87d0c8b53b4,2021-09-07_21h17.46.276,arrow_simon_vert,2021.1.2,Win32,58.45902023,,,,,,,,,,,,,,,,,,,,,,,,,,,,,,,,space,750.9715,2,0,2,0,1
,,,,,,0,2.464166504,#a3d0fb,"[""0.25"",""0""]",left_blue.png,left,,,,,,,,left,left_blue.png,down_orange.png,down,right,up,61359d9dd228a87d0c8b53b4,2021-09-07_21h17.46.276,arrow_simon_vert,2021.1.2,Win32,58.45902023,,,,,,,,,,,,,,,,,,,,,left,1,1.912,1,TRUE,FALSE,0,0,0,3,1,,,,,,,
,,,,,,0,2.249255446,#f3af84,"[""0"",""0.25""]",down_orange.png,down,,,,,,,,left,left_blue.png,down_orange.png,down,right,up,61359d9dd228a87d0c8b53b4,2021-09-07_21h17.46.276,arrow_simon_vert,2021.1.2,Win32,58.45902023,,,,,,,,,,,,,,,,,,,,,down,1,1.6382,2,TRUE,FALSE,0,1,1,3,1,,,,,,,
,,,,,,0,1.602989762,#a3d0fb,"[""-0.25"",""0""]",right_blue.png,right,,,,,,,,right,right_blue.png,up_orange.png,up,left,down,61359d9dd228a87d0c8b53b4,2021-09-07_21h17.46.276,arrow_simon_vert,2021.1.2,Win32,58.45902023,,,,,,,,,,,,,,,,,,,,,right,1,1.0623,3,FALSE,TRUE,0,2,2,0,1,,,,,,,
,,,,,,0,1.586325438,#f3af84,"[""0"",""0.25""]",down_orange.png,down,,,,,,,,left,left_blue.png,down_orange.png,down,right,up,61359d9dd228a87d0c8b53b4,2021-09-07_21h17.46.276,arrow_simon_vert,2021.1.2,Win32,58.45902023,,,,,,,,,,,,,,,,,,,,,down,1,1.1096,4,FALSE,TRUE,0,3,3,3,1,,,,,,,
,,,,,,0,2.063815887,#a3d0fb,"[""-0.25"",""0""]",left_blue.png,left,,,,,,,,left,left_blue.png,down_orange.png,down,left,down,61359d9dd228a87d0c8b53b4,2021-09-07_21h17.46.276,arrow_simon_vert,2021.1.2,Win32,58.45902023,,,,,,,,,,,,,,,,,,,,,left,1,1.4043,5,FALSE,FALSE,1,0,4,2,1,,,,,,,
,,,,,,0,1.586754951,#f3af84,"[""0"",""0.25""]",down_orange.png,down,,,,,,,,left,left_blue.png,down_orange.png,down,right,up,61359d9dd228a87d0c8b53b4,2021-09-07_21h17.46.276,arrow_simon_vert,2021.1.2,Win32,58.45902023,,,,,,,,,,,,,,,,,,,,,up,0,0.9424,6,FALSE,TRUE,1,1,5,3,1,,,,,,,
,,,,,,0,1.591434568,#a3d0fb,"[""-0.25"",""0""]",left_blue.png,left,,,,,,,,left,left_blue.png,down_orange.png,down,left,down,61359d9dd228a87d0c8b53b4,2021-09-07_21h17.46.276,arrow_simon_vert,2021.1.2,Win32,58.45902023,,,,,,,,,,,,,,,,,,,,,left,1,1.0752,7,FALSE,TRUE,1,2,6,2,1,,,,,,,
,,,,,,0,1.878485321,#f3af84,"[""0"",""0.25""]",down_orange.png,down,,,,,,,,left,left_blue.png,down_orange.png,down,right,up,61359d9dd228a87d0c8b53b4,2021-09-07_21h17.46.276,arrow_simon_vert,2021.1.2,Win32,58.45902023,,,,,,,,,,,,,,,,,,,,,down,1,1.2905,8,FALSE,TRUE,1,3,7,3,1,,,,,,,
,,,,,,0,1.629769001,#a3d0fb,"[""-0.25"",""0""]",left_blue.png,left,,,,,,,,left,left_blue.png,down_orange.png,down,left,down,61359d9dd228a87d0c8b53b4,2021-09-07_21h17.46.276,arrow_simon_vert,2021.1.2,Win32,58.45902023,,,,,,,,,,,,,,,,,,,,,left,1,1.1898,9,FALSE,TRUE,2,0,8,2,1,,,,,,,
,,,,,,0,2.37351164,#f3af84,"[""0"",""0.25""]",up_orange.png,up,,,,,,,,right,right_blue.png,up_orange.png,up,right,up,61359d9dd228a87d0c8b53b4,2021-09-07_21h17.46.276,arrow_simon_vert,2021.1.2,Win32,58.45902023,,,,,,,,,,,,,,,,,,,,,up,1,1.8259,10,TRUE,FALSE,2,1,9,1,1,,,,,,,
,,,,,,0,1.60911169,#a3d0fb,"[""-0.25"",""0""]",right_blue.png,right,,,,,,,,right,right_blue.png,up_orange.png,up,left,down,61359d9dd228a87d0c8b53b4,2021-09-07_21h17.46.276,arrow_simon_vert,2021.1.2,Win32,58.45902023,,,,,,,,,,,,,,,,,,,,,left,0,1.0186,11,FALSE,TRUE,2,2,10,0,1,,,,,,,
,,,,,,0,1.516342466,#f3af84,"[""0"",""-0.25""]",up_orange.png,up,,,,,,,,right,right_blue.png,up_orange.png,up,left,down,61359d9dd228a87d0c8b53b4,2021-09-07_21h17.46.276,arrow_simon_vert,2021.1.2,Win32,58.45902023,,,,,,,,,,,,,,,,,,,,,up,1,1.1645,12,FALSE,TRUE,2,3,11,0,1,,,,,,,
,,,,,,0,1.960998329,#a3d0fb,"[""-0.25"",""0""]",right_blue.png,right,,,,,,,,right,right_blue.png,up_orange.png,up,left,down,61359d9dd228a87d0c8b53b4,2021-09-07_21h17.46.276,arrow_simon_vert,2021.1.2,Win32,58.45902023,,,,,,,,,,,,,,,,,,,,,right,1,1.3717,13,FALSE,TRUE,3,0,12,0,1,,,,,,,
,,,,,,0,2.006825811,#f3af84,"[""0"",""0.25""]",up_orange.png,up,,,,,,,,right,right_blue.png,up_orange.png,up,right,up,61359d9dd228a87d0c8b53b4,2021-09-07_21h17.46.276,arrow_simon_vert,2021.1.2,Win32,58.45902023,,,,,,,,,,,,,,,,,,,,,up,1,1.3799,14,FALSE,TRUE,3,1,13,1,1,,,,,,,
,,,,,,0,1.820625872,#a3d0fb,"[""0.25"",""0""]",left_blue.png,left,,,,,,,,left,left_blue.png,down_orange.png,down,right,up,61359d9dd228a87d0c8b53b4,2021-09-07_21h17.46.276,arrow_simon_vert,2021.1.2,Win32,58.45902023,,,,,,,,,,,,,,,,,,,,,left,1,1.2511,15,FALSE,TRUE,3,2,14,3,1,,,,,,,
