instruct_resp_simon.keys,instruct_resp_simon.corr,instruct_resp_simon.rt,trial_resp_simon.keys,trial_resp_simon.corr,trial_resp_simon.rt,kerr,target_onset,target_color,target_pos,target_file,target_resp,trials_train_simon.thisRepN,trials_train_simon.thisTrialN,trials_train_simon.thisN,trials_train_simon.thisIndex,trials_train_simon.ran,odd_target_pos,even_target_pos,odd_target_resp,odd_target_file,even_target_file,even_target_resp,odd_target_side,even_target_side,participant,date,expName,psychopyVersion,OS,frameRate,train_block_note_resp.keys,train_block_note_resp.rt,blocks_train.thisRepN,blocks_train.thisTrialN,blocks_train.thisN,blocks_train.thisIndex,blocks_train.ran,instruct_resp_timing.keys,instruct_resp_timing.corr,instruct_resp_timing.rt,trial_resp_timing.keys,trial_resp_timing.rt,trials_train_timing.thisRepN,trials_train_timing.thisTrialN,trials_train_timing.thisN,trials_train_timing.thisIndex,trials_train_timing.ran,instruct_resp.keys,instruct_resp.corr,instruct_resp.rt,trial_resp.keys,trial_resp.corr,trial_resp.rt,trial_num,too_slow,too_soon,trials.thisRepN,trials.thisTrialN,trials.thisN,trials.thisIndex,trials.ran,block_note_resp.keys,block_note_resp.rt,blocks.thisRepN,blocks.thisTrialN,blocks.thisN,blocks.thisIndex,blocks.ran
space,0,65.7157,left,1,1.0545,0,0.295844409,#a3d0fb,"[""-0.25"",""0""]",left_blue.png,left,0,0,0,2,1,,,left,left_blue.png,down_orange.png,down,left,down,61364739837a69353c38284a,2021-09-11_16h27.20.944,arrow_simon_vert,2021.1.2,Win32,60.09615385,,,,,,,,,,,,,,,,,,,,,,,,,,,,,,,,,,,,,,
,,,down,0,1.7744,1,0.250393798,#f3af84,"[""0"",""-0.25""]",up_orange.png,up,0,1,1,0,1,,,right,right_blue.png,up_orange.png,up,left,down,61364739837a69353c38284a,2021-09-11_16h27.20.944,arrow_simon_vert,2021.1.2,Win32,60.09615385,,,,,,,,,,,,,,,,,,,,,,,,,,,,,,,,,,,,,,
,,,right,0,0.8442,1,0.349921314,#a3d0fb,"[""0.25"",""0""]",left_blue.png,left,0,2,2,3,1,,,left,left_blue.png,down_orange.png,down,right,up,61364739837a69353c38284a,2021-09-11_16h27.20.944,arrow_simon_vert,2021.1.2,Win32,60.09615385,,,,,,,,,,,,,,,,,,,,,,,,,,,,,,,,,,,,,,
,,,down,1,1.4654,0,0.509633295,#f3af84,"[""0"",""-0.25""]",down_orange.png,down,0,3,3,2,1,,,left,left_blue.png,down_orange.png,down,left,down,61364739837a69353c38284a,2021-09-11_16h27.20.944,arrow_simon_vert,2021.1.2,Win32,60.09615385,,,,,,,,,,,,,,,,,,,,,,,,,,,,,,,,,,,,,,
,,,right,1,1.0285,0,0.65090921,#a3d0fb,"[""0.25"",""0""]",right_blue.png,right,1,0,4,1,1,,,right,right_blue.png,up_orange.png,up,right,up,61364739837a69353c38284a,2021-09-11_16h27.20.944,arrow_simon_vert,2021.1.2,Win32,60.09615385,,,,,,,,,,,,,,,,,,,,,,,,,,,,,,,,,,,,,,
,,,down,1,1.1796,0,0.820067442,#f3af84,"[""0"",""-0.25""]",down_orange.png,down,1,1,5,2,1,,,left,left_blue.png,down_orange.png,down,left,down,61364739837a69353c38284a,2021-09-11_16h27.20.944,arrow_simon_vert,2021.1.2,Win32,60.09615385,,,,,,,,,,,,,,,,,,,,,,,,,,,,,,,,,,,,,,
,,,right,1,0.9384,0,0.56943341,#a3d0fb,"[""0.25"",""0""]",right_blue.png,right,1,2,6,1,1,,,right,right_blue.png,up_orange.png,up,right,up,61364739837a69353c38284a,2021-09-11_16h27.20.944,arrow_simon_vert,2021.1.2,Win32,60.09615385,,,,,,,,,,,,,,,,,,,,,,,,,,,,,,,,,,,,,,
,,,up,1,1.0526,0,0.614661758,#f3af84,"[""0"",""0.25""]",up_orange.png,up,1,3,7,1,1,,,right,right_blue.png,up_orange.png,up,right,up,61364739837a69353c38284a,2021-09-11_16h27.20.944,arrow_simon_vert,2021.1.2,Win32,60.09615385,,,,,,,,,,,,,,,,,,,,,,,,,,,,,,,,,,,,,,
,,,right,1,0.6497,0,0.257531163,#a3d0fb,"[""0.25"",""0""]",right_blue.png,right,2,0,8,1,1,,,right,right_blue.png,up_orange.png,up,right,up,61364739837a69353c38284a,2021-09-11_16h27.20.944,arrow_simon_vert,2021.1.2,Win32,60.09615385,,,,,,,,,,,,,,,,,,,,,,,,,,,,,,,,,,,,,,
,,,up,0,1.2458,1,0.536275241,#f3af84,"[""0"",""0.25""]",down_orange.png,down,2,1,9,3,1,,,left,left_blue.png,down_orange.png,down,right,up,61364739837a69353c38284a,2021-09-11_16h27.20.944,arrow_simon_vert,2021.1.2,Win32,60.09615385,,,,,,,,,,,,,,,,,,,,,,,,,,,,,,,,,,,,,,
,,,left,0,1.2997,1,0.688561334,#a3d0fb,"[""-0.25"",""0""]",right_blue.png,right,2,2,10,0,1,,,right,right_blue.png,up_orange.png,up,left,down,61364739837a69353c38284a,2021-09-11_16h27.20.944,arrow_simon_vert,2021.1.2,Win32,60.09615385,,,,,,,,,,,,,,,,,,,,,,,,,,,,,,,,,,,,,,
,,,down,1,0.9807,0,0.559675328,#f3af84,"[""0"",""-0.25""]",down_orange.png,down,2,3,11,2,1,,,left,left_blue.png,down_orange.png,down,left,down,61364739837a69353c38284a,2021-09-11_16h27.20.944,arrow_simon_vert,2021.1.2,Win32,60.09615385,,,,,,,,,,,,,,,,,,,,,,,,,,,,,,,,,,,,,,
,,,right,0,0.6311,1,0.073181832,#a3d0fb,"[""0.25"",""0""]",left_blue.png,left,3,0,12,3,1,,,left,left_blue.png,down_orange.png,down,right,up,61364739837a69353c38284a,2021-09-11_16h27.20.944,arrow_simon_vert,2021.1.2,Win32,60.09615385,,,,,,,,,,,,,,,,,,,,,,,,,,,,,,,,,,,,,,
,,,up,1,0.8365,0,0.072727489,#f3af84,"[""0"",""0.25""]",up_orange.png,up,3,1,13,1,1,,,right,right_blue.png,up_orange.png,up,right,up,61364739837a69353c38284a,2021-09-11_16h27.20.944,arrow_simon_vert,2021.1.2,Win32,60.09615385,,,,,,,,,,,,,,,,,,,,,,,,,,,,,,,,,,,,,,
,,,right,1,0.5884,0,0.092309551,#a3d0fb,"[""0.25"",""0""]",right_blue.png,right,3,2,14,1,1,,,right,right_blue.png,up_orange.png,up,right,up,61364739837a69353c38284a,2021-09-11_16h27.20.944,arrow_simon_vert,2021.1.2,Win32,60.09615385,,,,,,,,,,,,,,,,,,,,,,,,,,,,,,,,,,,,,,
,,,up,1,1.3673,0,0.921042297,#f3af84,"[""0"",""0.25""]",up_orange.png,up,3,3,15,1,1,,,right,right_blue.png,up_orange.png,up,right,up,61364739837a69353c38284a,2021-09-11_16h27.20.944,arrow_simon_vert,2021.1.2,Win32,60.09615385,,,,,,,,,,,,,,,,,,,,,,,,,,,,,,,,,,,,,,
,,,left,0,1.3326,1,0.665982348,#a3d0fb,"[""-0.25"",""0""]",right_blue.png,right,4,0,16,0,1,,,right,right_blue.png,up_orange.png,up,left,down,61364739837a69353c38284a,2021-09-11_16h27.20.944,arrow_simon_vert,2021.1.2,Win32,60.09615385,,,,,,,,,,,,,,,,,,,,,,,,,,,,,,,,,,,,,,
,,,up,1,1.446,0,0.942018345,#f3af84,"[""0"",""0.25""]",up_orange.png,up,4,1,17,1,1,,,right,right_blue.png,up_orange.png,up,right,up,61364739837a69353c38284a,2021-09-11_16h27.20.944,arrow_simon_vert,2021.1.2,Win32,60.09615385,,,,,,,,,,,,,,,,,,,,,,,,,,,,,,,,,,,,,,
,,,left,0,0.7637,1,0.054586999,#a3d0fb,"[""-0.25"",""0""]",right_blue.png,right,4,2,18,0,1,,,right,right_blue.png,up_orange.png,up,left,down,61364739837a69353c38284a,2021-09-11_16h27.20.944,arrow_simon_vert,2021.1.2,Win32,60.09615385,,,,,,,,,,,,,,,,,,,,,,,,,,,,,,,,,,,,,,
,,,up,1,1.3126,0,0.847509883,#f3af84,"[""0"",""0.25""]",up_orange.png,up,4,3,19,1,1,,,right,right_blue.png,up_orange.png,up,right,up,61364739837a69353c38284a,2021-09-11_16h27.20.944,arrow_simon_vert,2021.1.2,Win32,60.09615385,,,,,,,,,,,,,,,,,,,,,,,,,,,,,,,,,,,,,,
,,,right,0,1.0988,1,0.537445507,#a3d0fb,"[""0.25"",""0""]",left_blue.png,left,5,0,20,3,1,,,left,left_blue.png,down_orange.png,down,right,up,61364739837a69353c38284a,2021-09-11_16h27.20.944,arrow_simon_vert,2021.1.2,Win32,60.09615385,,,,,,,,,,,,,,,,,,,,,,,,,,,,,,,,,,,,,,
,,,down,1,1.1621,0,0.380408766,#f3af84,"[""0"",""-0.25""]",down_orange.png,down,5,1,21,2,1,,,left,left_blue.png,down_orange.png,down,left,down,61364739837a69353c38284a,2021-09-11_16h27.20.944,arrow_simon_vert,2021.1.2,Win32,60.09615385,,,,,,,,,,,,,,,,,,,,,,,,,,,,,,,,,,,,,,
,,,right,1,1.1924,0,0.560353224,#a3d0fb,"[""-0.25"",""0""]",right_blue.png,right,5,2,22,0,1,,,right,right_blue.png,up_orange.png,up,left,down,61364739837a69353c38284a,2021-09-11_16h27.20.944,arrow_simon_vert,2021.1.2,Win32,60.09615385,,,,,,,,,,,,,,,,,,,,,,,,,,,,,,,,,,,,,,
,,,up,1,1.3147,0,0.673189254,#f3af84,"[""0"",""-0.25""]",up_orange.png,up,5,3,23,0,1,,,right,right_blue.png,up_orange.png,up,left,down,61364739837a69353c38284a,2021-09-11_16h27.20.944,arrow_simon_vert,2021.1.2,Win32,60.09615385,,,,,,,,,,,,,,,,,,,,,,,,,,,,,,,,,,,,,,
,,,right,0,0.9459,1,0.502010388,#a3d0fb,"[""0.25"",""0""]",left_blue.png,left,6,0,24,3,1,,,left,left_blue.png,down_orange.png,down,right,up,61364739837a69353c38284a,2021-09-11_16h27.20.944,arrow_simon_vert,2021.1.2,Win32,60.09615385,,,,,,,,,,,,,,,,,,,,,,,,,,,,,,,,,,,,,,
,,,down,1,1.1193,0,0.02110089,#f3af84,"[""0"",""0.25""]",down_orange.png,down,6,1,25,3,1,,,left,left_blue.png,down_orange.png,down,right,up,61364739837a69353c38284a,2021-09-11_16h27.20.944,arrow_simon_vert,2021.1.2,Win32,60.09615385,,,,,,,,,,,,,,,,,,,,,,,,,,,,,,,,,,,,,,
,,,left,1,0.7974,0,0.246883182,#a3d0fb,"[""-0.25"",""0""]",left_blue.png,left,6,2,26,2,1,,,left,left_blue.png,down_orange.png,down,left,down,61364739837a69353c38284a,2021-09-11_16h27.20.944,arrow_simon_vert,2021.1.2,Win32,60.09615385,,,,,,,,,,,,,,,,,,,,,,,,,,,,,,,,,,,,,,
,,,up,1,1.3295,0,0.643843371,#f3af84,"[""0"",""-0.25""]",up_orange.png,up,6,3,27,0,1,,,right,right_blue.png,up_orange.png,up,left,down,61364739837a69353c38284a,2021-09-11_16h27.20.944,arrow_simon_vert,2021.1.2,Win32,60.09615385,,,,,,,,,,,,,,,,,,,,,,,,,,,,,,,,,,,,,,
,,,right,1,1.3139,0,0.804332925,#a3d0fb,"[""0.25"",""0""]",right_blue.png,right,7,0,28,1,1,,,right,right_blue.png,up_orange.png,up,right,up,61364739837a69353c38284a,2021-09-11_16h27.20.944,arrow_simon_vert,2021.1.2,Win32,60.09615385,,,,,,,,,,,,,,,,,,,,,,,,,,,,,,,,,,,,,,
,,,down,1,0.9558,0,0.187329749,#f3af84,"[""0"",""0.25""]",down_orange.png,down,7,1,29,3,1,,,left,left_blue.png,down_orange.png,down,right,up,61364739837a69353c38284a,2021-09-11_16h27.20.944,arrow_simon_vert,2021.1.2,Win32,60.09615385,,,,,,,,,,,,,,,,,,,,,,,,,,,,,,,,,,,,,,
,,,left,1,0.5841,0,0.143890082,#a3d0fb,"[""-0.25"",""0""]",left_blue.png,left,7,2,30,2,1,,,left,left_blue.png,down_orange.png,down,left,down,61364739837a69353c38284a,2021-09-11_16h27.20.944,arrow_simon_vert,2021.1.2,Win32,60.09615385,,,,,,,,,,,,,,,,,,,,,,,,,,,,,,,,,,,,,,
,,,down,1,0.997,0,0.163522712,#f3af84,"[""0"",""0.25""]",down_orange.png,down,7,3,31,3,1,,,left,left_blue.png,down_orange.png,down,right,up,61364739837a69353c38284a,2021-09-11_16h27.20.944,arrow_simon_vert,2021.1.2,Win32,60.09615385,,,,,,,,,,,,,,,,,,,,,,,,,,,,,,,,,,,,,,
,,,left,1,0.8506,0,0.481983444,#a3d0fb,"[""-0.25"",""0""]",left_blue.png,left,8,0,32,2,1,,,left,left_blue.png,down_orange.png,down,left,down,61364739837a69353c38284a,2021-09-11_16h27.20.944,arrow_simon_vert,2021.1.2,Win32,60.09615385,,,,,,,,,,,,,,,,,,,,,,,,,,,,,,,,,,,,,,
,,,down,1,1.5203,0,0.853011407,#f3af84,"[""0"",""0.25""]",down_orange.png,down,8,1,33,3,1,,,left,left_blue.png,down_orange.png,down,right,up,61364739837a69353c38284a,2021-09-11_16h27.20.944,arrow_simon_vert,2021.1.2,Win32,60.09615385,,,,,,,,,,,,,,,,,,,,,,,,,,,,,,,,,,,,,,
,,,left,1,1.3628,0,0.932024716,#a3d0fb,"[""-0.25"",""0""]",left_blue.png,left,8,2,34,2,1,,,left,left_blue.png,down_orange.png,down,left,down,61364739837a69353c38284a,2021-09-11_16h27.20.944,arrow_simon_vert,2021.1.2,Win32,60.09615385,,,,,,,,,,,,,,,,,,,,,,,,,,,,,,,,,,,,,,
,,,down,1,0.6622,0,0.008155382,#f3af84,"[""0"",""0.25""]",down_orange.png,down,8,3,35,3,1,,,left,left_blue.png,down_orange.png,down,right,up,61364739837a69353c38284a,2021-09-11_16h27.20.944,arrow_simon_vert,2021.1.2,Win32,60.09615385,,,,,,,,,,,,,,,,,,,,,,,,,,,,,,,,,,,,,,
,,,left,1,1.2892,0,0.507646032,#a3d0fb,"[""0.25"",""0""]",left_blue.png,left,9,0,36,3,1,,,left,left_blue.png,down_orange.png,down,right,up,61364739837a69353c38284a,2021-09-11_16h27.20.944,arrow_simon_vert,2021.1.2,Win32,60.09615385,,,,,,,,,,,,,,,,,,,,,,,,,,,,,,,,,,,,,,
,,,up,1,1.561,0,0.836368866,#f3af84,"[""0"",""0.25""]",up_orange.png,up,9,1,37,1,1,,,right,right_blue.png,up_orange.png,up,right,up,61364739837a69353c38284a,2021-09-11_16h27.20.944,arrow_simon_vert,2021.1.2,Win32,60.09615385,,,,,,,,,,,,,,,,,,,,,,,,,,,,,,,,,,,,,,
,,,left,1,1.4367,0,0.995727377,#a3d0fb,"[""-0.25"",""0""]",left_blue.png,left,9,2,38,2,1,,,left,left_blue.png,down_orange.png,down,left,down,61364739837a69353c38284a,2021-09-11_16h27.20.944,arrow_simon_vert,2021.1.2,Win32,60.09615385,,,,,,,,,,,,,,,,,,,,,,,,,,,,,,,,,,,,,,
,,,down,1,1.6186,0,0.978707421,#f3af84,"[""0"",""0.25""]",down_orange.png,down,9,3,39,3,1,,,left,left_blue.png,down_orange.png,down,right,up,61364739837a69353c38284a,2021-09-11_16h27.20.944,arrow_simon_vert,2021.1.2,Win32,60.09615385,,,,,,,,,,,,,,,,,,,,,,,,,,,,,,,,,,,,,,
,,,left,1,0.9605,0,0.56579638,#a3d0fb,"[""-0.25"",""0""]",left_blue.png,left,10,0,40,2,1,,,left,left_blue.png,down_orange.png,down,left,down,61364739837a69353c38284a,2021-09-11_16h27.20.944,arrow_simon_vert,2021.1.2,Win32,60.09615385,,,,,,,,,,,,,,,,,,,,,,,,,,,,,,,,,,,,,,
,,,down,1,1.3366,0,0.666788266,#f3af84,"[""0"",""0.25""]",down_orange.png,down,10,1,41,3,1,,,left,left_blue.png,down_orange.png,down,right,up,61364739837a69353c38284a,2021-09-11_16h27.20.944,arrow_simon_vert,2021.1.2,Win32,60.09615385,,,,,,,,,,,,,,,,,,,,,,,,,,,,,,,,,,,,,,
,,,right,1,0.7973,0,0.192775668,#a3d0fb,"[""-0.25"",""0""]",right_blue.png,right,10,2,42,0,1,,,right,right_blue.png,up_orange.png,up,left,down,61364739837a69353c38284a,2021-09-11_16h27.20.944,arrow_simon_vert,2021.1.2,Win32,60.09615385,,,,,,,,,,,,,,,,,,,,,,,,,,,,,,,,,,,,,,
,,,down,1,0.8287,0,0.27566655,#f3af84,"[""0"",""0.25""]",down_orange.png,down,10,3,43,3,1,,,left,left_blue.png,down_orange.png,down,right,up,61364739837a69353c38284a,2021-09-11_16h27.20.944,arrow_simon_vert,2021.1.2,Win32,60.09615385,,,,,,,,,,,,,,,,,,,,,,,,,,,,,,,,,,,,,,
,,,left,1,0.9372,0,0.564847038,#a3d0fb,"[""-0.25"",""0""]",left_blue.png,left,11,0,44,2,1,,,left,left_blue.png,down_orange.png,down,left,down,61364739837a69353c38284a,2021-09-11_16h27.20.944,arrow_simon_vert,2021.1.2,Win32,60.09615385,,,,,,,,,,,,,,,,,,,,,,,,,,,,,,,,,,,,,,
,,,up,1,1.2323,0,0.623895444,#f3af84,"[""0"",""-0.25""]",up_orange.png,up,11,1,45,0,1,,,right,right_blue.png,up_orange.png,up,left,down,61364739837a69353c38284a,2021-09-11_16h27.20.944,arrow_simon_vert,2021.1.2,Win32,60.09615385,,,,,,,,,,,,,,,,,,,,,,,,,,,,,,,,,,,,,,
,,,right,1,0.5641,0,0.182681774,#a3d0fb,"[""0.25"",""0""]",right_blue.png,right,11,2,46,1,1,,,right,right_blue.png,up_orange.png,up,right,up,61364739837a69353c38284a,2021-09-11_16h27.20.944,arrow_simon_vert,2021.1.2,Win32,60.09615385,,,,,,,,,,,,,,,,,,,,,,,,,,,,,,,,,,,,,,
,,,down,1,0.6628,0,0.190544312,#f3af84,"[""0"",""-0.25""]",down_orange.png,down,11,3,47,2,1,,,left,left_blue.png,down_orange.png,down,left,down,61364739837a69353c38284a,2021-09-11_16h27.20.944,arrow_simon_vert,2021.1.2,Win32,60.09615385,,,,,,,,,,,,,,,,,,,,,,,,,,,,,,,,,,,,,,
,,,right,1,0.664,0,0.289197298,#a3d0fb,"[""0.25"",""0""]",right_blue.png,right,12,0,48,1,1,,,right,right_blue.png,up_orange.png,up,right,up,61364739837a69353c38284a,2021-09-11_16h27.20.944,arrow_simon_vert,2021.1.2,Win32,60.09615385,,,,,,,,,,,,,,,,,,,,,,,,,,,,,,,,,,,,,,
,,,up,1,1.2511,0,0.847539071,#f3af84,"[""0"",""0.25""]",up_orange.png,up,12,1,49,1,1,,,right,right_blue.png,up_orange.png,up,right,up,61364739837a69353c38284a,2021-09-11_16h27.20.944,arrow_simon_vert,2021.1.2,Win32,60.09615385,,,,,,,,,,,,,,,,,,,,,,,,,,,,,,,,,,,,,,
,,,right,1,1.21,0,0.66013775,#a3d0fb,"[""-0.25"",""0""]",right_blue.png,right,12,2,50,0,1,,,right,right_blue.png,up_orange.png,up,left,down,61364739837a69353c38284a,2021-09-11_16h27.20.944,arrow_simon_vert,2021.1.2,Win32,60.09615385,,,,,,,,,,,,,,,,,,,,,,,,,,,,,,,,,,,,,,
,,,down,1,0.8348,0,0.322108673,#f3af84,"[""0"",""-0.25""]",down_orange.png,down,12,3,51,2,1,,,left,left_blue.png,down_orange.png,down,left,down,61364739837a69353c38284a,2021-09-11_16h27.20.944,arrow_simon_vert,2021.1.2,Win32,60.09615385,,,,,,,,,,,,,,,,,,,,,,,,,,,,,,,,,,,,,,
,,,right,1,1.3964,0,0.820446457,#a3d0fb,"[""-0.25"",""0""]",right_blue.png,right,13,0,52,0,1,,,right,right_blue.png,up_orange.png,up,left,down,61364739837a69353c38284a,2021-09-11_16h27.20.944,arrow_simon_vert,2021.1.2,Win32,60.09615385,,,,,,,,,,,,,,,,,,,,,,,,,,,,,,,,,,,,,,
,,,up,1,1.3006,0,0.779322549,#f3af84,"[""0"",""-0.25""]",up_orange.png,up,13,1,53,0,1,,,right,right_blue.png,up_orange.png,up,left,down,61364739837a69353c38284a,2021-09-11_16h27.20.944,arrow_simon_vert,2021.1.2,Win32,60.09615385,,,,,,,,,,,,,,,,,,,,,,,,,,,,,,,,,,,,,,
,,,left,1,1.5196,0,0.925101522,#a3d0fb,"[""0.25"",""0""]",left_blue.png,left,13,2,54,3,1,,,left,left_blue.png,down_orange.png,down,right,up,61364739837a69353c38284a,2021-09-11_16h27.20.944,arrow_simon_vert,2021.1.2,Win32,60.09615385,,,,,,,,,,,,,,,,,,,,,,,,,,,,,,,,,,,,,,
,,,up,1,0.6955,0,0.075548108,#f3af84,"[""0"",""-0.25""]",up_orange.png,up,13,3,55,0,1,,,right,right_blue.png,up_orange.png,up,left,down,61364739837a69353c38284a,2021-09-11_16h27.20.944,arrow_simon_vert,2021.1.2,Win32,60.09615385,,,,,,,,,,,,,,,,,,,,,,,,,,,,,,,,,,,,,,
,,,right,1,0.6274,0,0.09291043,#a3d0fb,"[""-0.25"",""0""]",right_blue.png,right,14,0,56,0,1,,,right,right_blue.png,up_orange.png,up,left,down,61364739837a69353c38284a,2021-09-11_16h27.20.944,arrow_simon_vert,2021.1.2,Win32,60.09615385,,,,,,,,,,,,,,,,,,,,,,,,,,,,,,,,,,,,,,
,,,up,1,0.8709,0,0.391334527,#f3af84,"[""0"",""0.25""]",up_orange.png,up,14,1,57,1,1,,,right,right_blue.png,up_orange.png,up,right,up,61364739837a69353c38284a,2021-09-11_16h27.20.944,arrow_simon_vert,2021.1.2,Win32,60.09615385,,,,,,,,,,,,,,,,,,,,,,,,,,,,,,,,,,,,,,
,,,left,1,1.6213,0,0.83809415,#a3d0fb,"[""-0.25"",""0""]",left_blue.png,left,14,2,58,2,1,,,left,left_blue.png,down_orange.png,down,left,down,61364739837a69353c38284a,2021-09-11_16h27.20.944,arrow_simon_vert,2021.1.2,Win32,60.09615385,,,,,,,,,,,,,,,,,,,,,,,,,,,,,,,,,,,,,,
,,,up,1,0.8682,0,0.215001122,#f3af84,"[""0"",""-0.25""]",up_orange.png,up,14,3,59,0,1,,,right,right_blue.png,up_orange.png,up,left,down,61364739837a69353c38284a,2021-09-11_16h27.20.944,arrow_simon_vert,2021.1.2,Win32,60.09615385,,,,,,,,,,,,,,,,,,,,,,,,,,,,,,,,,,,,,,
,,,,,,,,,,,,,,,,,,,,,,,,,61364739837a69353c38284a,2021-09-11_16h27.20.944,arrow_simon_vert,2021.1.2,Win32,60.09615385,space,29.6543,0,0,0,0,1,,,,,,,,,,,,,,,,,,,,,,,,,,,,,,,
,,,right,1,1.4539,0,0.954861048,#a3d0fb,"[""0.25"",""0""]",right_blue.png,right,0,0,0,1,1,,,right,right_blue.png,up_orange.png,up,right,up,61364739837a69353c38284a,2021-09-11_16h27.20.944,arrow_simon_vert,2021.1.2,Win32,60.09615385,,,,,,,,,,,,,,,,,,,,,,,,,,,,,,,,,,,,,,
,,,down,1,1.2012,0,0.758119304,#f3af84,"[""0"",""-0.25""]",down_orange.png,down,0,1,1,2,1,,,left,left_blue.png,down_orange.png,down,left,down,61364739837a69353c38284a,2021-09-11_16h27.20.944,arrow_simon_vert,2021.1.2,Win32,60.09615385,,,,,,,,,,,,,,,,,,,,,,,,,,,,,,,,,,,,,,
,,,left,1,0.9728,0,0.441930261,#a3d0fb,"[""0.25"",""0""]",left_blue.png,left,0,2,2,3,1,,,left,left_blue.png,down_orange.png,down,right,up,61364739837a69353c38284a,2021-09-11_16h27.20.944,arrow_simon_vert,2021.1.2,Win32,60.09615385,,,,,,,,,,,,,,,,,,,,,,,,,,,,,,,,,,,,,,
,,,up,1,0.8261,0,0.301057416,#f3af84,"[""0"",""0.25""]",up_orange.png,up,0,3,3,1,1,,,right,right_blue.png,up_orange.png,up,right,up,61364739837a69353c38284a,2021-09-11_16h27.20.944,arrow_simon_vert,2021.1.2,Win32,60.09615385,,,,,,,,,,,,,,,,,,,,,,,,,,,,,,,,,,,,,,
,,,right,0,1.0541,1,0.562288816,#a3d0fb,"[""0.25"",""0""]",left_blue.png,left,1,0,4,3,1,,,left,left_blue.png,down_orange.png,down,right,up,61364739837a69353c38284a,2021-09-11_16h27.20.944,arrow_simon_vert,2021.1.2,Win32,60.09615385,,,,,,,,,,,,,,,,,,,,,,,,,,,,,,,,,,,,,,
,,,down,1,0.8476,0,0.289924597,#f3af84,"[""0"",""0.25""]",down_orange.png,down,1,1,5,3,1,,,left,left_blue.png,down_orange.png,down,right,up,61364739837a69353c38284a,2021-09-11_16h27.20.944,arrow_simon_vert,2021.1.2,Win32,60.09615385,,,,,,,,,,,,,,,,,,,,,,,,,,,,,,,,,,,,,,
,,,right,1,1.1356,0,0.435798825,#a3d0fb,"[""-0.25"",""0""]",right_blue.png,right,1,2,6,0,1,,,right,right_blue.png,up_orange.png,up,left,down,61364739837a69353c38284a,2021-09-11_16h27.20.944,arrow_simon_vert,2021.1.2,Win32,60.09615385,,,,,,,,,,,,,,,,,,,,,,,,,,,,,,,,,,,,,,
,,,down,1,0.9678,0,0.437895941,#f3af84,"[""0"",""0.25""]",down_orange.png,down,1,3,7,3,1,,,left,left_blue.png,down_orange.png,down,right,up,61364739837a69353c38284a,2021-09-11_16h27.20.944,arrow_simon_vert,2021.1.2,Win32,60.09615385,,,,,,,,,,,,,,,,,,,,,,,,,,,,,,,,,,,,,,
,,,left,0,1.5569,1,0.87501333,#a3d0fb,"[""0.25"",""0""]",right_blue.png,right,2,0,8,1,1,,,right,right_blue.png,up_orange.png,up,right,up,61364739837a69353c38284a,2021-09-11_16h27.20.944,arrow_simon_vert,2021.1.2,Win32,60.09615385,,,,,,,,,,,,,,,,,,,,,,,,,,,,,,,,,,,,,,
,,,down,1,1.5292,0,0.765399633,#f3af84,"[""0"",""0.25""]",down_orange.png,down,2,1,9,3,1,,,left,left_blue.png,down_orange.png,down,right,up,61364739837a69353c38284a,2021-09-11_16h27.20.944,arrow_simon_vert,2021.1.2,Win32,60.09615385,,,,,,,,,,,,,,,,,,,,,,,,,,,,,,,,,,,,,,
,,,left,1,1.0845,0,0.369582391,#a3d0fb,"[""-0.25"",""0""]",left_blue.png,left,2,2,10,2,1,,,left,left_blue.png,down_orange.png,down,left,down,61364739837a69353c38284a,2021-09-11_16h27.20.944,arrow_simon_vert,2021.1.2,Win32,60.09615385,,,,,,,,,,,,,,,,,,,,,,,,,,,,,,,,,,,,,,
,,,up,1,1.1722,0,0.615688132,#f3af84,"[""0"",""-0.25""]",up_orange.png,up,2,3,11,0,1,,,right,right_blue.png,up_orange.png,up,left,down,61364739837a69353c38284a,2021-09-11_16h27.20.944,arrow_simon_vert,2021.1.2,Win32,60.09615385,,,,,,,,,,,,,,,,,,,,,,,,,,,,,,,,,,,,,,
,,,left,1,0.8787,0,0.296713058,#a3d0fb,"[""-0.25"",""0""]",left_blue.png,left,3,0,12,2,1,,,left,left_blue.png,down_orange.png,down,left,down,61364739837a69353c38284a,2021-09-11_16h27.20.944,arrow_simon_vert,2021.1.2,Win32,60.09615385,,,,,,,,,,,,,,,,,,,,,,,,,,,,,,,,,,,,,,
,,,up,1,1.2652,0,0.77851164,#f3af84,"[""0"",""0.25""]",up_orange.png,up,3,1,13,1,1,,,right,right_blue.png,up_orange.png,up,right,up,61364739837a69353c38284a,2021-09-11_16h27.20.944,arrow_simon_vert,2021.1.2,Win32,60.09615385,,,,,,,,,,,,,,,,,,,,,,,,,,,,,,,,,,,,,,
,,,left,1,1.2982,0,0.773092458,#a3d0fb,"[""0.25"",""0""]",left_blue.png,left,3,2,14,3,1,,,left,left_blue.png,down_orange.png,down,right,up,61364739837a69353c38284a,2021-09-11_16h27.20.944,arrow_simon_vert,2021.1.2,Win32,60.09615385,,,,,,,,,,,,,,,,,,,,,,,,,,,,,,,,,,,,,,
,,,up,1,1.072,0,0.536860395,#f3af84,"[""0"",""0.25""]",up_orange.png,up,3,3,15,1,1,,,right,right_blue.png,up_orange.png,up,right,up,61364739837a69353c38284a,2021-09-11_16h27.20.944,arrow_simon_vert,2021.1.2,Win32,60.09615385,,,,,,,,,,,,,,,,,,,,,,,,,,,,,,,,,,,,,,
,,,right,1,0.8982,0,0.106015086,#a3d0fb,"[""-0.25"",""0""]",right_blue.png,right,4,0,16,0,1,,,right,right_blue.png,up_orange.png,up,left,down,61364739837a69353c38284a,2021-09-11_16h27.20.944,arrow_simon_vert,2021.1.2,Win32,60.09615385,,,,,,,,,,,,,,,,,,,,,,,,,,,,,,,,,,,,,,
,,,down,1,0.7562,0,0.187256559,#f3af84,"[""0"",""0.25""]",down_orange.png,down,4,1,17,3,1,,,left,left_blue.png,down_orange.png,down,right,up,61364739837a69353c38284a,2021-09-11_16h27.20.944,arrow_simon_vert,2021.1.2,Win32,60.09615385,,,,,,,,,,,,,,,,,,,,,,,,,,,,,,,,,,,,,,
,,,left,1,1.2874,0,0.89459995,#a3d0fb,"[""-0.25"",""0""]",left_blue.png,left,4,2,18,2,1,,,left,left_blue.png,down_orange.png,down,left,down,61364739837a69353c38284a,2021-09-11_16h27.20.944,arrow_simon_vert,2021.1.2,Win32,60.09615385,,,,,,,,,,,,,,,,,,,,,,,,,,,,,,,,,,,,,,
,,,up,1,1.0457,0,0.518325211,#f3af84,"[""0"",""-0.25""]",up_orange.png,up,4,3,19,0,1,,,right,right_blue.png,up_orange.png,up,left,down,61364739837a69353c38284a,2021-09-11_16h27.20.944,arrow_simon_vert,2021.1.2,Win32,60.09615385,,,,,,,,,,,,,,,,,,,,,,,,,,,,,,,,,,,,,,
,,,left,1,1.168,0,0.626114924,#a3d0fb,"[""-0.25"",""0""]",left_blue.png,left,5,0,20,2,1,,,left,left_blue.png,down_orange.png,down,left,down,61364739837a69353c38284a,2021-09-11_16h27.20.944,arrow_simon_vert,2021.1.2,Win32,60.09615385,,,,,,,,,,,,,,,,,,,,,,,,,,,,,,,,,,,,,,
,,,down,1,1.2074,0,0.597341435,#f3af84,"[""0"",""-0.25""]",down_orange.png,down,5,1,21,2,1,,,left,left_blue.png,down_orange.png,down,left,down,61364739837a69353c38284a,2021-09-11_16h27.20.944,arrow_simon_vert,2021.1.2,Win32,60.09615385,,,,,,,,,,,,,,,,,,,,,,,,,,,,,,,,,,,,,,
,,,left,1,0.91,0,0.467217485,#a3d0fb,"[""-0.25"",""0""]",left_blue.png,left,5,2,22,2,1,,,left,left_blue.png,down_orange.png,down,left,down,61364739837a69353c38284a,2021-09-11_16h27.20.944,arrow_simon_vert,2021.1.2,Win32,60.09615385,,,,,,,,,,,,,,,,,,,,,,,,,,,,,,,,,,,,,,
,,,up,1,1.4703,0,0.89632385,#f3af84,"[""0"",""0.25""]",up_orange.png,up,5,3,23,1,1,,,right,right_blue.png,up_orange.png,up,right,up,61364739837a69353c38284a,2021-09-11_16h27.20.944,arrow_simon_vert,2021.1.2,Win32,60.09615385,,,,,,,,,,,,,,,,,,,,,,,,,,,,,,,,,,,,,,
,,,right,1,1.2104,0,0.733520874,#a3d0fb,"[""0.25"",""0""]",right_blue.png,right,6,0,24,1,1,,,right,right_blue.png,up_orange.png,up,right,up,61364739837a69353c38284a,2021-09-11_16h27.20.944,arrow_simon_vert,2021.1.2,Win32,60.09615385,,,,,,,,,,,,,,,,,,,,,,,,,,,,,,,,,,,,,,
,,,down,1,0.6218,0,0.016304988,#f3af84,"[""0"",""-0.25""]",down_orange.png,down,6,1,25,2,1,,,left,left_blue.png,down_orange.png,down,left,down,61364739837a69353c38284a,2021-09-11_16h27.20.944,arrow_simon_vert,2021.1.2,Win32,60.09615385,,,,,,,,,,,,,,,,,,,,,,,,,,,,,,,,,,,,,,
,,,left,1,0.96,0,0.618460948,#a3d0fb,"[""-0.25"",""0""]",left_blue.png,left,6,2,26,2,1,,,left,left_blue.png,down_orange.png,down,left,down,61364739837a69353c38284a,2021-09-11_16h27.20.944,arrow_simon_vert,2021.1.2,Win32,60.09615385,,,,,,,,,,,,,,,,,,,,,,,,,,,,,,,,,,,,,,
,,,up,1,1.1529,0,0.557296426,#f3af84,"[""0"",""-0.25""]",up_orange.png,up,6,3,27,0,1,,,right,right_blue.png,up_orange.png,up,left,down,61364739837a69353c38284a,2021-09-11_16h27.20.944,arrow_simon_vert,2021.1.2,Win32,60.09615385,,,,,,,,,,,,,,,,,,,,,,,,,,,,,,,,,,,,,,
,,,right,1,0.5368,0,0.10966877,#a3d0fb,"[""0.25"",""0""]",right_blue.png,right,7,0,28,1,1,,,right,right_blue.png,up_orange.png,up,right,up,61364739837a69353c38284a,2021-09-11_16h27.20.944,arrow_simon_vert,2021.1.2,Win32,60.09615385,,,,,,,,,,,,,,,,,,,,,,,,,,,,,,,,,,,,,,
,,,up,1,1.0744,0,0.598337851,#f3af84,"[""0"",""0.25""]",up_orange.png,up,7,1,29,1,1,,,right,right_blue.png,up_orange.png,up,right,up,61364739837a69353c38284a,2021-09-11_16h27.20.944,arrow_simon_vert,2021.1.2,Win32,60.09615385,,,,,,,,,,,,,,,,,,,,,,,,,,,,,,,,,,,,,,
,,,right,1,0.9731,0,0.408250022,#a3d0fb,"[""-0.25"",""0""]",right_blue.png,right,7,2,30,0,1,,,right,right_blue.png,up_orange.png,up,left,down,61364739837a69353c38284a,2021-09-11_16h27.20.944,arrow_simon_vert,2021.1.2,Win32,60.09615385,,,,,,,,,,,,,,,,,,,,,,,,,,,,,,,,,,,,,,
,,,down,1,1.1604,0,0.614954882,#f3af84,"[""0"",""-0.25""]",down_orange.png,down,7,3,31,2,1,,,left,left_blue.png,down_orange.png,down,left,down,61364739837a69353c38284a,2021-09-11_16h27.20.944,arrow_simon_vert,2021.1.2,Win32,60.09615385,,,,,,,,,,,,,,,,,,,,,,,,,,,,,,,,,,,,,,
,,,right,1,1.2743,0,0.737155847,#a3d0fb,"[""-0.25"",""0""]",right_blue.png,right,8,0,32,0,1,,,right,right_blue.png,up_orange.png,up,left,down,61364739837a69353c38284a,2021-09-11_16h27.20.944,arrow_simon_vert,2021.1.2,Win32,60.09615385,,,,,,,,,,,,,,,,,,,,,,,,,,,,,,,,,,,,,,
,,,down,1,1.0096,0,0.460882094,#f3af84,"[""0"",""0.25""]",down_orange.png,down,8,1,33,3,1,,,left,left_blue.png,down_orange.png,down,right,up,61364739837a69353c38284a,2021-09-11_16h27.20.944,arrow_simon_vert,2021.1.2,Win32,60.09615385,,,,,,,,,,,,,,,,,,,,,,,,,,,,,,,,,,,,,,
,,,right,1,0.6245,0,0.152246082,#a3d0fb,"[""0.25"",""0""]",right_blue.png,right,8,2,34,1,1,,,right,right_blue.png,up_orange.png,up,right,up,61364739837a69353c38284a,2021-09-11_16h27.20.944,arrow_simon_vert,2021.1.2,Win32,60.09615385,,,,,,,,,,,,,,,,,,,,,,,,,,,,,,,,,,,,,,
,,,down,1,1.284,0,0.75315184,#f3af84,"[""0"",""0.25""]",down_orange.png,down,8,3,35,3,1,,,left,left_blue.png,down_orange.png,down,right,up,61364739837a69353c38284a,2021-09-11_16h27.20.944,arrow_simon_vert,2021.1.2,Win32,60.09615385,,,,,,,,,,,,,,,,,,,,,,,,,,,,,,,,,,,,,,
,,,right,1,0.8143,0,0.405574012,#a3d0fb,"[""0.25"",""0""]",right_blue.png,right,9,0,36,1,1,,,right,right_blue.png,up_orange.png,up,right,up,61364739837a69353c38284a,2021-09-11_16h27.20.944,arrow_simon_vert,2021.1.2,Win32,60.09615385,,,,,,,,,,,,,,,,,,,,,,,,,,,,,,,,,,,,,,
,,,down,1,0.8749,0,0.335783582,#f3af84,"[""0"",""0.25""]",down_orange.png,down,9,1,37,3,1,,,left,left_blue.png,down_orange.png,down,right,up,61364739837a69353c38284a,2021-09-11_16h27.20.944,arrow_simon_vert,2021.1.2,Win32,60.09615385,,,,,,,,,,,,,,,,,,,,,,,,,,,,,,,,,,,,,,
,,,left,1,1.3515,0,0.808352114,#a3d0fb,"[""0.25"",""0""]",left_blue.png,left,9,2,38,3,1,,,left,left_blue.png,down_orange.png,down,right,up,61364739837a69353c38284a,2021-09-11_16h27.20.944,arrow_simon_vert,2021.1.2,Win32,60.09615385,,,,,,,,,,,,,,,,,,,,,,,,,,,,,,,,,,,,,,
,,,up,1,0.6842,0,0.052464324,#f3af84,"[""0"",""-0.25""]",up_orange.png,up,9,3,39,0,1,,,right,right_blue.png,up_orange.png,up,left,down,61364739837a69353c38284a,2021-09-11_16h27.20.944,arrow_simon_vert,2021.1.2,Win32,60.09615385,,,,,,,,,,,,,,,,,,,,,,,,,,,,,,,,,,,,,,
,,,right,1,0.8404,0,0.486521714,#a3d0fb,"[""0.25"",""0""]",right_blue.png,right,10,0,40,1,1,,,right,right_blue.png,up_orange.png,up,right,up,61364739837a69353c38284a,2021-09-11_16h27.20.944,arrow_simon_vert,2021.1.2,Win32,60.09615385,,,,,,,,,,,,,,,,,,,,,,,,,,,,,,,,,,,,,,
,,,down,1,1.2542,0,0.499023506,#f3af84,"[""0"",""-0.25""]",down_orange.png,down,10,1,41,2,1,,,left,left_blue.png,down_orange.png,down,left,down,61364739837a69353c38284a,2021-09-11_16h27.20.944,arrow_simon_vert,2021.1.2,Win32,60.09615385,,,,,,,,,,,,,,,,,,,,,,,,,,,,,,,,,,,,,,
,,,right,1,0.769,0,0.350048584,#a3d0fb,"[""0.25"",""0""]",right_blue.png,right,10,2,42,1,1,,,right,right_blue.png,up_orange.png,up,right,up,61364739837a69353c38284a,2021-09-11_16h27.20.944,arrow_simon_vert,2021.1.2,Win32,60.09615385,,,,,,,,,,,,,,,,,,,,,,,,,,,,,,,,,,,,,,
,,,down,1,1.0202,0,0.56720008,#f3af84,"[""0"",""-0.25""]",down_orange.png,down,10,3,43,2,1,,,left,left_blue.png,down_orange.png,down,left,down,61364739837a69353c38284a,2021-09-11_16h27.20.944,arrow_simon_vert,2021.1.2,Win32,60.09615385,,,,,,,,,,,,,,,,,,,,,,,,,,,,,,,,,,,,,,
,,,right,1,0.9035,0,0.479870582,#a3d0fb,"[""0.25"",""0""]",right_blue.png,right,11,0,44,1,1,,,right,right_blue.png,up_orange.png,up,right,up,61364739837a69353c38284a,2021-09-11_16h27.20.944,arrow_simon_vert,2021.1.2,Win32,60.09615385,,,,,,,,,,,,,,,,,,,,,,,,,,,,,,,,,,,,,,
,,,up,1,1.3562,0,0.707845993,#f3af84,"[""0"",""-0.25""]",up_orange.png,up,11,1,45,0,1,,,right,right_blue.png,up_orange.png,up,left,down,61364739837a69353c38284a,2021-09-11_16h27.20.944,arrow_simon_vert,2021.1.2,Win32,60.09615385,,,,,,,,,,,,,,,,,,,,,,,,,,,,,,,,,,,,,,
,,,right,1,0.9875,0,0.636654223,#a3d0fb,"[""0.25"",""0""]",right_blue.png,right,11,2,46,1,1,,,right,right_blue.png,up_orange.png,up,right,up,61364739837a69353c38284a,2021-09-11_16h27.20.944,arrow_simon_vert,2021.1.2,Win32,60.09615385,,,,,,,,,,,,,,,,,,,,,,,,,,,,,,,,,,,,,,
,,,down,0,1.2444,1,0.907154012,#f3af84,"[""0"",""-0.25""]",up_orange.png,up,11,3,47,0,1,,,right,right_blue.png,up_orange.png,up,left,down,61364739837a69353c38284a,2021-09-11_16h27.20.944,arrow_simon_vert,2021.1.2,Win32,60.09615385,,,,,,,,,,,,,,,,,,,,,,,,,,,,,,,,,,,,,,
,,,left,1,1.2191,0,0.651710406,#a3d0fb,"[""-0.25"",""0""]",left_blue.png,left,12,0,48,2,1,,,left,left_blue.png,down_orange.png,down,left,down,61364739837a69353c38284a,2021-09-11_16h27.20.944,arrow_simon_vert,2021.1.2,Win32,60.09615385,,,,,,,,,,,,,,,,,,,,,,,,,,,,,,,,,,,,,,
,,,down,1,1.2732,0,0.705542909,#f3af84,"[""0"",""0.25""]",down_orange.png,down,12,1,49,3,1,,,left,left_blue.png,down_orange.png,down,right,up,61364739837a69353c38284a,2021-09-11_16h27.20.944,arrow_simon_vert,2021.1.2,Win32,60.09615385,,,,,,,,,,,,,,,,,,,,,,,,,,,,,,,,,,,,,,
,,,right,1,1.4275,0,0.936654935,#a3d0fb,"[""-0.25"",""0""]",right_blue.png,right,12,2,50,0,1,,,right,right_blue.png,up_orange.png,up,left,down,61364739837a69353c38284a,2021-09-11_16h27.20.944,arrow_simon_vert,2021.1.2,Win32,60.09615385,,,,,,,,,,,,,,,,,,,,,,,,,,,,,,,,,,,,,,
,,,down,1,1.421,0,0.964778415,#f3af84,"[""0"",""0.25""]",down_orange.png,down,12,3,51,3,1,,,left,left_blue.png,down_orange.png,down,right,up,61364739837a69353c38284a,2021-09-11_16h27.20.944,arrow_simon_vert,2021.1.2,Win32,60.09615385,,,,,,,,,,,,,,,,,,,,,,,,,,,,,,,,,,,,,,
,,,right,1,0.6772,0,0.116304436,#a3d0fb,"[""-0.25"",""0""]",right_blue.png,right,13,0,52,0,1,,,right,right_blue.png,up_orange.png,up,left,down,61364739837a69353c38284a,2021-09-11_16h27.20.944,arrow_simon_vert,2021.1.2,Win32,60.09615385,,,,,,,,,,,,,,,,,,,,,,,,,,,,,,,,,,,,,,
,,,up,1,1.2337,0,0.669522047,#f3af84,"[""0"",""-0.25""]",up_orange.png,up,13,1,53,0,1,,,right,right_blue.png,up_orange.png,up,left,down,61364739837a69353c38284a,2021-09-11_16h27.20.944,arrow_simon_vert,2021.1.2,Win32,60.09615385,,,,,,,,,,,,,,,,,,,,,,,,,,,,,,,,,,,,,,
,,,left,1,0.5627,0,0.090341392,#a3d0fb,"[""-0.25"",""0""]",left_blue.png,left,13,2,54,2,1,,,left,left_blue.png,down_orange.png,down,left,down,61364739837a69353c38284a,2021-09-11_16h27.20.944,arrow_simon_vert,2021.1.2,Win32,60.09615385,,,,,,,,,,,,,,,,,,,,,,,,,,,,,,,,,,,,,,
,,,down,1,1.203,0,0.747636931,#f3af84,"[""0"",""-0.25""]",down_orange.png,down,13,3,55,2,1,,,left,left_blue.png,down_orange.png,down,left,down,61364739837a69353c38284a,2021-09-11_16h27.20.944,arrow_simon_vert,2021.1.2,Win32,60.09615385,,,,,,,,,,,,,,,,,,,,,,,,,,,,,,,,,,,,,,
,,,right,1,0.931,0,0.385653647,#a3d0fb,"[""-0.25"",""0""]",right_blue.png,right,14,0,56,0,1,,,right,right_blue.png,up_orange.png,up,left,down,61364739837a69353c38284a,2021-09-11_16h27.20.944,arrow_simon_vert,2021.1.2,Win32,60.09615385,,,,,,,,,,,,,,,,,,,,,,,,,,,,,,,,,,,,,,
,,,up,1,0.983,0,0.384787045,#f3af84,"[""0"",""-0.25""]",up_orange.png,up,14,1,57,0,1,,,right,right_blue.png,up_orange.png,up,left,down,61364739837a69353c38284a,2021-09-11_16h27.20.944,arrow_simon_vert,2021.1.2,Win32,60.09615385,,,,,,,,,,,,,,,,,,,,,,,,,,,,,,,,,,,,,,
,,,left,1,0.8435,0,0.366575952,#a3d0fb,"[""0.25"",""0""]",left_blue.png,left,14,2,58,3,1,,,left,left_blue.png,down_orange.png,down,right,up,61364739837a69353c38284a,2021-09-11_16h27.20.944,arrow_simon_vert,2021.1.2,Win32,60.09615385,,,,,,,,,,,,,,,,,,,,,,,,,,,,,,,,,,,,,,
,,,down,1,1.2613,0,0.758076206,#f3af84,"[""0"",""0.25""]",down_orange.png,down,14,3,59,3,1,,,left,left_blue.png,down_orange.png,down,right,up,61364739837a69353c38284a,2021-09-11_16h27.20.944,arrow_simon_vert,2021.1.2,Win32,60.09615385,,,,,,,,,,,,,,,,,,,,,,,,,,,,,,,,,,,,,,
,,,,,,,,,,,,,,,,,,,,,,,,,61364739837a69353c38284a,2021-09-11_16h27.20.944,arrow_simon_vert,2021.1.2,Win32,60.09615385,space,5.7497,1,0,1,0,1,,,,,,,,,,,,,,,,,,,,,,,,,,,,,,,
,,,,,,,,,,,,,,,,,,,,,,,,,61364739837a69353c38284a,2021-09-11_16h27.20.944,arrow_simon_vert,2021.1.2,Win32,60.09615385,,,,,,,,space,0,58.1305,up,2.7791,0,0,0,0,1,,,,,,,,,,,,,,,,,,,,,
,,,,,,,,,,,,,,,,,,,,,,,,,61364739837a69353c38284a,2021-09-11_16h27.20.944,arrow_simon_vert,2021.1.2,Win32,60.09615385,,,,,,,,,,,up,2.5621,1,0,1,0,1,,,,,,,,,,,,,,,,,,,,,
,,,,,,,,,,,,,,,,,,,,,,,,,61364739837a69353c38284a,2021-09-11_16h27.20.944,arrow_simon_vert,2021.1.2,Win32,60.09615385,,,,,,,,,,,left,2.6485,2,0,2,0,1,,,,,,,,,,,,,,,,,,,,,
,,,,,,,,,,,,,,,,,,,,,,,,,61364739837a69353c38284a,2021-09-11_16h27.20.944,arrow_simon_vert,2021.1.2,Win32,60.09615385,,,,,,,,,,,right,2.1598,3,0,3,0,1,,,,,,,,,,,,,,,,,,,,,
,,,,,,,,,,,,,,,,,,,,,,,,,61364739837a69353c38284a,2021-09-11_16h27.20.944,arrow_simon_vert,2021.1.2,Win32,60.09615385,,,,,,,,,,,down,2.5719,4,0,4,0,1,,,,,,,,,,,,,,,,,,,,,
,,,,,,,,,,,,,,,,,,,,,,,,,61364739837a69353c38284a,2021-09-11_16h27.20.944,arrow_simon_vert,2021.1.2,Win32,60.09615385,,,,,,,,,,,down,2.5027,5,0,5,0,1,,,,,,,,,,,,,,,,,,,,,
,,,,,,,,,,,,,,,,,,,,,,,,,61364739837a69353c38284a,2021-09-11_16h27.20.944,arrow_simon_vert,2021.1.2,Win32,60.09615385,,,,,,,,,,,right,2.5537,6,0,6,0,1,,,,,,,,,,,,,,,,,,,,,
,,,,,,,,,,,,,,,,,,,,,,,,,61364739837a69353c38284a,2021-09-11_16h27.20.944,arrow_simon_vert,2021.1.2,Win32,60.09615385,,,,,,,,,,,down,2.6239,7,0,7,0,1,,,,,,,,,,,,,,,,,,,,,
,,,,,,,,,,,,,,,,,,,,,,,,,61364739837a69353c38284a,2021-09-11_16h27.20.944,arrow_simon_vert,2021.1.2,Win32,60.09615385,,,,,,,,,,,right,2.6918,8,0,8,0,1,,,,,,,,,,,,,,,,,,,,,
,,,,,,,,,,,,,,,,,,,,,,,,,61364739837a69353c38284a,2021-09-11_16h27.20.944,arrow_simon_vert,2021.1.2,Win32,60.09615385,,,,,,,,,,,down,2.6002,9,0,9,0,1,,,,,,,,,,,,,,,,,,,,,
,,,,,,,,,,,,,,,,,,,,,,,,,61364739837a69353c38284a,2021-09-11_16h27.20.944,arrow_simon_vert,2021.1.2,Win32,60.09615385,,,,,,,,,,,right,2.613,10,0,10,0,1,,,,,,,,,,,,,,,,,,,,,
,,,,,,,,,,,,,,,,,,,,,,,,,61364739837a69353c38284a,2021-09-11_16h27.20.944,arrow_simon_vert,2021.1.2,Win32,60.09615385,,,,,,,,,,,up,2.5515,11,0,11,0,1,,,,,,,,,,,,,,,,,,,,,
,,,,,,,,,,,,,,,,,,,,,,,,,61364739837a69353c38284a,2021-09-11_16h27.20.944,arrow_simon_vert,2021.1.2,Win32,60.09615385,,,,,,,,,,,right,2.6247,12,0,12,0,1,,,,,,,,,,,,,,,,,,,,,
,,,,,,,,,,,,,,,,,,,,,,,,,61364739837a69353c38284a,2021-09-11_16h27.20.944,arrow_simon_vert,2021.1.2,Win32,60.09615385,,,,,,,,,,,down,2.571,13,0,13,0,1,,,,,,,,,,,,,,,,,,,,,
,,,,,,,,,,,,,,,,,,,,,,,,,61364739837a69353c38284a,2021-09-11_16h27.20.944,arrow_simon_vert,2021.1.2,Win32,60.09615385,,,,,,,,,,,right,2.6217,14,0,14,0,1,,,,,,,,,,,,,,,,,,,,,
,,,,,,,,,,,,,,,,,,,,,,,,,61364739837a69353c38284a,2021-09-11_16h27.20.944,arrow_simon_vert,2021.1.2,Win32,60.09615385,,,,,,,,,,,down,2.4251,15,0,15,0,1,,,,,,,,,,,,,,,,,,,,,
,,,,,,,,,,,,,,,,,,,,,,,,,61364739837a69353c38284a,2021-09-11_16h27.20.944,arrow_simon_vert,2021.1.2,Win32,60.09615385,,,,,,,,,,,right,2.3885,16,0,16,0,1,,,,,,,,,,,,,,,,,,,,,
,,,,,,,,,,,,,,,,,,,,,,,,,61364739837a69353c38284a,2021-09-11_16h27.20.944,arrow_simon_vert,2021.1.2,Win32,60.09615385,,,,,,,,,,,down,2.4296,17,0,17,0,1,,,,,,,,,,,,,,,,,,,,,
,,,,,,,,,,,,,,,,,,,,,,,,,61364739837a69353c38284a,2021-09-11_16h27.20.944,arrow_simon_vert,2021.1.2,Win32,60.09615385,,,,,,,,,,,right,2.4674,18,0,18,0,1,,,,,,,,,,,,,,,,,,,,,
,,,,,,,,,,,,,,,,,,,,,,,,,61364739837a69353c38284a,2021-09-11_16h27.20.944,arrow_simon_vert,2021.1.2,Win32,60.09615385,,,,,,,,,,,down,2.5265,19,0,19,0,1,,,,,,,,,,,,,,,,,,,,,
,,,,,,,,,,,,,,,,,,,,,,,,,61364739837a69353c38284a,2021-09-11_16h27.20.944,arrow_simon_vert,2021.1.2,Win32,60.09615385,,,,,,,,,,,right,2.2908,20,0,20,0,1,,,,,,,,,,,,,,,,,,,,,
,,,,,,,,,,,,,,,,,,,,,,,,,61364739837a69353c38284a,2021-09-11_16h27.20.944,arrow_simon_vert,2021.1.2,Win32,60.09615385,,,,,,,,,,,down,2.5552,21,0,21,0,1,,,,,,,,,,,,,,,,,,,,,
,,,,,,,,,,,,,,,,,,,,,,,,,61364739837a69353c38284a,2021-09-11_16h27.20.944,arrow_simon_vert,2021.1.2,Win32,60.09615385,,,,,,,,,,,right,2.476,22,0,22,0,1,,,,,,,,,,,,,,,,,,,,,
,,,,,,,,,,,,,,,,,,,,,,,,,61364739837a69353c38284a,2021-09-11_16h27.20.944,arrow_simon_vert,2021.1.2,Win32,60.09615385,,,,,,,,,,,down,2.6226,23,0,23,0,1,,,,,,,,,,,,,,,,,,,,,
,,,,,,,,,,,,,,,,,,,,,,,,,61364739837a69353c38284a,2021-09-11_16h27.20.944,arrow_simon_vert,2021.1.2,Win32,60.09615385,,,,,,,,,,,right,2.5557,24,0,24,0,1,,,,,,,,,,,,,,,,,,,,,
,,,,,,,,,,,,,,,,,,,,,,,,,61364739837a69353c38284a,2021-09-11_16h27.20.944,arrow_simon_vert,2021.1.2,Win32,60.09615385,,,,,,,,,,,down,2.5887,25,0,25,0,1,,,,,,,,,,,,,,,,,,,,,
,,,,,,,,,,,,,,,,,,,,,,,,,61364739837a69353c38284a,2021-09-11_16h27.20.944,arrow_simon_vert,2021.1.2,Win32,60.09615385,,,,,,,,,,,right,2.6207,26,0,26,0,1,,,,,,,,,,,,,,,,,,,,,
,,,,,,,,,,,,,,,,,,,,,,,,,61364739837a69353c38284a,2021-09-11_16h27.20.944,arrow_simon_vert,2021.1.2,Win32,60.09615385,,,,,,,,,,,down,2.516,27,0,27,0,1,,,,,,,,,,,,,,,,,,,,,
,,,,,,,,,,,,,,,,,,,,,,,,,61364739837a69353c38284a,2021-09-11_16h27.20.944,arrow_simon_vert,2021.1.2,Win32,60.09615385,,,,,,,,,,,right,2.6063,28,0,28,0,1,,,,,,,,,,,,,,,,,,,,,
,,,,,,,,,,,,,,,,,,,,,,,,,61364739837a69353c38284a,2021-09-11_16h27.20.944,arrow_simon_vert,2021.1.2,Win32,60.09615385,,,,,,,,,,,down,2.5985,29,0,29,0,1,,,,,,,,,,,,,,,,,,,,,
,,,,,,,,,,,,,,,,,,,,,,,,,61364739837a69353c38284a,2021-09-11_16h27.20.944,arrow_simon_vert,2021.1.2,Win32,60.09615385,,,,,,,,,,,right,2.6015,30,0,30,0,1,,,,,,,,,,,,,,,,,,,,,
,,,,,,,,,,,,,,,,,,,,,,,,,61364739837a69353c38284a,2021-09-11_16h27.20.944,arrow_simon_vert,2021.1.2,Win32,60.09615385,,,,,,,,,,,down,2.7061,31,0,31,0,1,,,,,,,,,,,,,,,,,,,,,
,,,,,,,,,,,,,,,,,,,,,,,,,61364739837a69353c38284a,2021-09-11_16h27.20.944,arrow_simon_vert,2021.1.2,Win32,60.09615385,,,,,,,,,,,right,2.5825,32,0,32,0,1,,,,,,,,,,,,,,,,,,,,,
,,,,,,,,,,,,,,,,,,,,,,,,,61364739837a69353c38284a,2021-09-11_16h27.20.944,arrow_simon_vert,2021.1.2,Win32,60.09615385,,,,,,,,,,,down,2.4049,33,0,33,0,1,,,,,,,,,,,,,,,,,,,,,
,,,,,,,,,,,,,,,,,,,,,,,,,61364739837a69353c38284a,2021-09-11_16h27.20.944,arrow_simon_vert,2021.1.2,Win32,60.09615385,,,,,,,,,,,right,2.5852,34,0,34,0,1,,,,,,,,,,,,,,,,,,,,,
,,,,,,,,,,,,,,,,,,,,,,,,,61364739837a69353c38284a,2021-09-11_16h27.20.944,arrow_simon_vert,2021.1.2,Win32,60.09615385,,,,,,,,,,,up,2.5741,35,0,35,0,1,,,,,,,,,,,,,,,,,,,,,
,,,,,,,,,,,,,,,,,,,,,,,,,61364739837a69353c38284a,2021-09-11_16h27.20.944,arrow_simon_vert,2021.1.2,Win32,60.09615385,,,,,,,,,,,right,2.6119,36,0,36,0,1,,,,,,,,,,,,,,,,,,,,,
,,,,,,,,,,,,,,,,,,,,,,,,,61364739837a69353c38284a,2021-09-11_16h27.20.944,arrow_simon_vert,2021.1.2,Win32,60.09615385,,,,,,,,,,,up,2.404,37,0,37,0,1,,,,,,,,,,,,,,,,,,,,,
,,,,,,,,,,,,,,,,,,,,,,,,,61364739837a69353c38284a,2021-09-11_16h27.20.944,arrow_simon_vert,2021.1.2,Win32,60.09615385,,,,,,,,,,,right,2.4696,38,0,38,0,1,,,,,,,,,,,,,,,,,,,,,
,,,,,,,,,,,,,,,,,,,,,,,,,61364739837a69353c38284a,2021-09-11_16h27.20.944,arrow_simon_vert,2021.1.2,Win32,60.09615385,,,,,,,,,,,up,2.5238,39,0,39,0,1,,,,,,,,,,,,,,,,,,,,,
,,,,,,,,,,,,,,,,,,,,,,,,,61364739837a69353c38284a,2021-09-11_16h27.20.944,arrow_simon_vert,2021.1.2,Win32,60.09615385,,,,,,,,,,,right,2.6164,40,0,40,0,1,,,,,,,,,,,,,,,,,,,,,
,,,,,,,,,,,,,,,,,,,,,,,,,61364739837a69353c38284a,2021-09-11_16h27.20.944,arrow_simon_vert,2021.1.2,Win32,60.09615385,,,,,,,,,,,up,2.47,41,0,41,0,1,,,,,,,,,,,,,,,,,,,,,
,,,,,,,,,,,,,,,,,,,,,,,,,61364739837a69353c38284a,2021-09-11_16h27.20.944,arrow_simon_vert,2021.1.2,Win32,60.09615385,,,,,,,,,,,right,2.6188,42,0,42,0,1,,,,,,,,,,,,,,,,,,,,,
,,,,,,,,,,,,,,,,,,,,,,,,,61364739837a69353c38284a,2021-09-11_16h27.20.944,arrow_simon_vert,2021.1.2,Win32,60.09615385,,,,,,,,,,,up,2.4944,43,0,43,0,1,,,,,,,,,,,,,,,,,,,,,
,,,,,,,,,,,,,,,,,,,,,,,,,61364739837a69353c38284a,2021-09-11_16h27.20.944,arrow_simon_vert,2021.1.2,Win32,60.09615385,,,,,,,,,,,right,2.3843,44,0,44,0,1,,,,,,,,,,,,,,,,,,,,,
,,,,,,,,,,,,,,,,,,,,,,,,,61364739837a69353c38284a,2021-09-11_16h27.20.944,arrow_simon_vert,2021.1.2,Win32,60.09615385,,,,,,,,,,,up,2.4672,45,0,45,0,1,,,,,,,,,,,,,,,,,,,,,
,,,,,,,,,,,,,,,,,,,,,,,,,61364739837a69353c38284a,2021-09-11_16h27.20.944,arrow_simon_vert,2021.1.2,Win32,60.09615385,,,,,,,,,,,right,2.3976,46,0,46,0,1,,,,,,,,,,,,,,,,,,,,,
,,,,,,,,,,,,,,,,,,,,,,,,,61364739837a69353c38284a,2021-09-11_16h27.20.944,arrow_simon_vert,2021.1.2,Win32,60.09615385,,,,,,,,,,,up,2.5685,47,0,47,0,1,,,,,,,,,,,,,,,,,,,,,
,,,,,,,,,,,,,,,,,,,,,,,,,61364739837a69353c38284a,2021-09-11_16h27.20.944,arrow_simon_vert,2021.1.2,Win32,60.09615385,,,,,,,,,,,right,2.483,48,0,48,0,1,,,,,,,,,,,,,,,,,,,,,
,,,,,,,,,,,,,,,,,,,,,,,,,61364739837a69353c38284a,2021-09-11_16h27.20.944,arrow_simon_vert,2021.1.2,Win32,60.09615385,,,,,,,,,,,up,2.5217,49,0,49,0,1,,,,,,,,,,,,,,,,,,,,,
,,,,,,,,,,,,,,,,,,,,,,,,,61364739837a69353c38284a,2021-09-11_16h27.20.944,arrow_simon_vert,2021.1.2,Win32,60.09615385,,,,,,,,,,,right,2.5792,50,0,50,0,1,,,,,,,,,,,,,,,,,,,,,
,,,,,,,,,,,,,,,,,,,,,,,,,61364739837a69353c38284a,2021-09-11_16h27.20.944,arrow_simon_vert,2021.1.2,Win32,60.09615385,,,,,,,,,,,up,2.6583,51,0,51,0,1,,,,,,,,,,,,,,,,,,,,,
,,,,,,,,,,,,,,,,,,,,,,,,,61364739837a69353c38284a,2021-09-11_16h27.20.944,arrow_simon_vert,2021.1.2,Win32,60.09615385,,,,,,,,,,,right,2.5695,52,0,52,0,1,,,,,,,,,,,,,,,,,,,,,
,,,,,,,,,,,,,,,,,,,,,,,,,61364739837a69353c38284a,2021-09-11_16h27.20.944,arrow_simon_vert,2021.1.2,Win32,60.09615385,,,,,,,,,,,up,2.5234,53,0,53,0,1,,,,,,,,,,,,,,,,,,,,,
,,,,,,,,,,,,,,,,,,,,,,,,,61364739837a69353c38284a,2021-09-11_16h27.20.944,arrow_simon_vert,2021.1.2,Win32,60.09615385,,,,,,,,,,,right,2.5509,54,0,54,0,1,,,,,,,,,,,,,,,,,,,,,
,,,,,,,,,,,,,,,,,,,,,,,,,61364739837a69353c38284a,2021-09-11_16h27.20.944,arrow_simon_vert,2021.1.2,Win32,60.09615385,,,,,,,,,,,up,2.501,55,0,55,0,1,,,,,,,,,,,,,,,,,,,,,
,,,,,,,,,,,,,,,,,,,,,,,,,61364739837a69353c38284a,2021-09-11_16h27.20.944,arrow_simon_vert,2021.1.2,Win32,60.09615385,,,,,,,,,,,right,2.5028,56,0,56,0,1,,,,,,,,,,,,,,,,,,,,,
,,,,,,,,,,,,,,,,,,,,,,,,,61364739837a69353c38284a,2021-09-11_16h27.20.944,arrow_simon_vert,2021.1.2,Win32,60.09615385,,,,,,,,,,,up,2.6038,57,0,57,0,1,,,,,,,,,,,,,,,,,,,,,
,,,,,,,,,,,,,,,,,,,,,,,,,61364739837a69353c38284a,2021-09-11_16h27.20.944,arrow_simon_vert,2021.1.2,Win32,60.09615385,,,,,,,,,,,right,2.6243,58,0,58,0,1,,,,,,,,,,,,,,,,,,,,,
,,,,,,,,,,,,,,,,,,,,,,,,,61364739837a69353c38284a,2021-09-11_16h27.20.944,arrow_simon_vert,2021.1.2,Win32,60.09615385,,,,,,,,,,,up,2.4668,59,0,59,0,1,,,,,,,,,,,,,,,,,,,,,
,,,,,,0,2.330816204,#a3d0fb,"[""-0.25"",""0""]",left_blue.png,left,,,,,,,,left,left_blue.png,down_orange.png,down,left,down,61364739837a69353c38284a,2021-09-11_16h27.20.944,arrow_simon_vert,2021.1.2,Win32,60.09615385,,,,,,,,,,,,,,,,,,space,0,68.8813,left,1,1.6496,1,TRUE,FALSE,0,0,0,2,1,,,,,,,
,,,,,,0,1.904284176,#f3af84,"[""0"",""0.25""]",down_orange.png,down,,,,,,,,left,left_blue.png,down_orange.png,down,right,up,61364739837a69353c38284a,2021-09-11_16h27.20.944,arrow_simon_vert,2021.1.2,Win32,60.09615385,,,,,,,,,,,,,,,,,,,,,up,0,1.2694,2,FALSE,TRUE,0,1,1,3,1,,,,,,,
,,,,,,1,2.232336489,#a3d0fb,"[""-0.25"",""0""]",right_blue.png,right,,,,,,,,right,right_blue.png,up_orange.png,up,left,down,61364739837a69353c38284a,2021-09-11_16h27.20.944,arrow_simon_vert,2021.1.2,Win32,60.09615385,,,,,,,,,,,,,,,,,,,,,left,0,1.5265,3,FALSE,FALSE,0,2,2,0,1,,,,,,,
,,,,,,1,1.743295473,#f3af84,"[""0"",""-0.25""]",down_orange.png,down,,,,,,,,left,left_blue.png,down_orange.png,down,left,down,61364739837a69353c38284a,2021-09-11_16h27.20.944,arrow_simon_vert,2021.1.2,Win32,60.09615385,,,,,,,,,,,,,,,,,,,,,down,1,1.2036,4,FALSE,TRUE,0,3,3,2,1,,,,,,,
,,,,,,1,2.379943576,#a3d0fb,"[""0.25"",""0""]",right_blue.png,right,,,,,,,,right,right_blue.png,up_orange.png,up,right,up,61364739837a69353c38284a,2021-09-11_16h27.20.944,arrow_simon_vert,2021.1.2,Win32,60.09615385,,,,,,,,,,,,,,,,,,,,,right,1,1.818,5,TRUE,FALSE,1,0,4,1,1,,,,,,,
,,,,,,1,2.036994275,#f3af84,"[""0"",""0.25""]",up_orange.png,up,,,,,,,,right,right_blue.png,up_orange.png,up,right,up,61364739837a69353c38284a,2021-09-11_16h27.20.944,arrow_simon_vert,2021.1.2,Win32,60.09615385,,,,,,,,,,,,,,,,,,,,,down,0,1.3763,6,FALSE,TRUE,1,1,5,1,1,,,,,,,
,,,,,,1,2.018539137,#a3d0fb,"[""-0.25"",""0""]",right_blue.png,right,,,,,,,,right,right_blue.png,up_orange.png,up,left,down,61364739837a69353c38284a,2021-09-11_16h27.20.944,arrow_simon_vert,2021.1.2,Win32,60.09615385,,,,,,,,,,,,,,,,,,,,,left,0,1.321,7,FALSE,TRUE,1,2,6,0,1,,,,,,,
,,,,,,1,2.308278072,#f3af84,"[""0"",""-0.25""]",down_orange.png,down,,,,,,,,left,left_blue.png,down_orange.png,down,left,down,61364739837a69353c38284a,2021-09-11_16h27.20.944,arrow_simon_vert,2021.1.2,Win32,60.09615385,,,,,,,,,,,,,,,,,,,,,down,1,1.8084,8,TRUE,FALSE,1,3,7,2,1,,,,,,,
,,,,,,1,1.92496874,#a3d0fb,"[""0.25"",""0""]",right_blue.png,right,,,,,,,,right,right_blue.png,up_orange.png,up,right,up,61364739837a69353c38284a,2021-09-11_16h27.20.944,arrow_simon_vert,2021.1.2,Win32,60.09615385,,,,,,,,,,,,,,,,,,,,,right,1,1.3041,9,FALSE,TRUE,2,0,8,1,1,,,,,,,
,,,,,,0,1.590324151,#f3af84,"[""0"",""-0.25""]",down_orange.png,down,,,,,,,,left,left_blue.png,down_orange.png,down,left,down,61364739837a69353c38284a,2021-09-11_16h27.20.944,arrow_simon_vert,2021.1.2,Win32,60.09615385,,,,,,,,,,,,,,,,,,,,,down,1,1.5763,10,FALSE,FALSE,2,1,9,2,1,,,,,,,
,,,,,,0,2.037454032,#a3d0fb,"[""0.25"",""0""]",left_blue.png,left,,,,,,,,left,left_blue.png,down_orange.png,down,right,up,61364739837a69353c38284a,2021-09-11_16h27.20.944,arrow_simon_vert,2021.1.2,Win32,60.09615385,,,,,,,,,,,,,,,,,,,,,left,1,1.4375,11,FALSE,FALSE,2,2,10,3,1,,,,,,,
,,,,,,0,2.365092959,#f3af84,"[""0"",""-0.25""]",up_orange.png,up,,,,,,,,right,right_blue.png,up_orange.png,up,left,down,61364739837a69353c38284a,2021-09-11_16h27.20.944,arrow_simon_vert,2021.1.2,Win32,60.09615385,,,,,,,,,,,,,,,,,,,,,down,0,1.6784,12,TRUE,FALSE,2,3,11,0,1,,,,,,,
,,,,,,0,2.446565521,#a3d0fb,"[""-0.25"",""0""]",left_blue.png,left,,,,,,,,left,left_blue.png,down_orange.png,down,left,down,61364739837a69353c38284a,2021-09-11_16h27.20.944,arrow_simon_vert,2021.1.2,Win32,60.09615385,,,,,,,,,,,,,,,,,,,,,left,1,1.8426,13,TRUE,FALSE,3,0,12,2,1,,,,,,,
,,,,,,0,2.214126866,#f3af84,"[""0"",""0.25""]",down_orange.png,down,,,,,,,,left,left_blue.png,down_orange.png,down,right,up,61364739837a69353c38284a,2021-09-11_16h27.20.944,arrow_simon_vert,2021.1.2,Win32,60.09615385,,,,,,,,,,,,,,,,,,,,,down,1,1.6695,14,TRUE,FALSE,3,1,13,3,1,,,,,,,
,,,,,,0,2.271323662,#a3d0fb,"[""0.25"",""0""]",right_blue.png,right,,,,,,,,right,right_blue.png,up_orange.png,up,right,up,61364739837a69353c38284a,2021-09-11_16h27.20.944,arrow_simon_vert,2021.1.2,Win32,60.09615385,,,,,,,,,,,,,,,,,,,,,right,1,1.6456,15,TRUE,FALSE,3,2,14,1,1,,,,,,,
,,,,,,0,1.519748734,#f3af84,"[""0"",""0.25""]",down_orange.png,down,,,,,,,,left,left_blue.png,down_orange.png,down,right,up,61364739837a69353c38284a,2021-09-11_16h27.20.944,arrow_simon_vert,2021.1.2,Win32,60.09615385,,,,,,,,,,,,,,,,,,,,,down,1,1.6309,16,TRUE,FALSE,3,3,15,3,1,,,,,,,
,,,,,,0,1.850624606,#a3d0fb,"[""0.25"",""0""]",left_blue.png,left,,,,,,,,left,left_blue.png,down_orange.png,down,right,up,61364739837a69353c38284a,2021-09-11_16h27.20.944,arrow_simon_vert,2021.1.2,Win32,60.09615385,,,,,,,,,,,,,,,,,,,,,left,1,1.1268,17,FALSE,TRUE,4,0,16,3,1,,,,,,,
,,,,,,0,2.299000586,#f3af84,"[""0"",""-0.25""]",down_orange.png,down,,,,,,,,left,left_blue.png,down_orange.png,down,left,down,61364739837a69353c38284a,2021-09-11_16h27.20.944,arrow_simon_vert,2021.1.2,Win32,60.09615385,,,,,,,,,,,,,,,,,,,,,down,1,1.6668,18,TRUE,FALSE,4,1,17,2,1,,,,,,,
,,,,,,0,1.68623426,#a3d0fb,"[""-0.25"",""0""]",left_blue.png,left,,,,,,,,left,left_blue.png,down_orange.png,down,left,down,61364739837a69353c38284a,2021-09-11_16h27.20.944,arrow_simon_vert,2021.1.2,Win32,60.09615385,,,,,,,,,,,,,,,,,,,,,left,1,1.0585,19,FALSE,TRUE,4,2,18,2,1,,,,,,,
,,,,,,0,2.166636286,#f3af84,"[""0"",""0.25""]",down_orange.png,down,,,,,,,,left,left_blue.png,down_orange.png,down,right,up,61364739837a69353c38284a,2021-09-11_16h27.20.944,arrow_simon_vert,2021.1.2,Win32,60.09615385,,,,,,,,,,,,,,,,,,,,,down,1,1.6738,20,TRUE,FALSE,4,3,19,3,1,,,,,,,
,,,,,,0,2.205592173,#a3d0fb,"[""0.25"",""0""]",left_blue.png,left,,,,,,,,left,left_blue.png,down_orange.png,down,right,up,61364739837a69353c38284a,2021-09-11_16h27.20.944,arrow_simon_vert,2021.1.2,Win32,60.09615385,,,,,,,,,,,,,,,,,,,,,right,0,1.7376,21,TRUE,FALSE,5,0,20,3,1,,,,,,,
,,,,,,0,1.624508816,#f3af84,"[""0"",""0.25""]",down_orange.png,down,,,,,,,,left,left_blue.png,down_orange.png,down,right,up,61364739837a69353c38284a,2021-09-11_16h27.20.944,arrow_simon_vert,2021.1.2,Win32,60.09615385,,,,,,,,,,,,,,,,,,,,,down,1,1.6059,22,TRUE,FALSE,5,1,21,3,1,,,,,,,
,,,,,,0,1.540337512,#a3d0fb,"[""-0.25"",""0""]",right_blue.png,right,,,,,,,,right,right_blue.png,up_orange.png,up,left,down,61364739837a69353c38284a,2021-09-11_16h27.20.944,arrow_simon_vert,2021.1.2,Win32,60.09615385,,,,,,,,,,,,,,,,,,,,,right,1,1.2018,23,FALSE,TRUE,5,2,22,0,1,,,,,,,
,,,,,,0,2.086087897,#f3af84,"[""0"",""0.25""]",up_orange.png,up,,,,,,,,right,right_blue.png,up_orange.png,up,right,up,61364739837a69353c38284a,2021-09-11_16h27.20.944,arrow_simon_vert,2021.1.2,Win32,60.09615385,,,,,,,,,,,,,,,,,,,,,up,1,1.7036,24,TRUE,FALSE,5,3,23,1,1,,,,,,,
,,,,,,0,2.148568554,#a3d0fb,"[""-0.25"",""0""]",right_blue.png,right,,,,,,,,right,right_blue.png,up_orange.png,up,left,down,61364739837a69353c38284a,2021-09-11_16h27.20.944,arrow_simon_vert,2021.1.2,Win32,60.09615385,,,,,,,,,,,,,,,,,,,,,right,1,1.621,25,TRUE,FALSE,6,0,24,0,1,,,,,,,
,,,,,,1,2.135441521,#f3af84,"[""0"",""0.25""]",down_orange.png,down,,,,,,,,left,left_blue.png,down_orange.png,down,right,up,61364739837a69353c38284a,2021-09-11_16h27.20.944,arrow_simon_vert,2021.1.2,Win32,60.09615385,,,,,,,,,,,,,,,,,,,,,up,0,1.5194,26,FALSE,FALSE,6,1,25,3,1,,,,,,,
,,,,,,0,1.943935395,#a3d0fb,"[""0.25"",""0""]",left_blue.png,left,,,,,,,,left,left_blue.png,down_orange.png,down,right,up,61364739837a69353c38284a,2021-09-11_16h27.20.944,arrow_simon_vert,2021.1.2,Win32,60.09615385,,,,,,,,,,,,,,,,,,,,,left,1,1.5672,27,FALSE,FALSE,6,2,26,3,1,,,,,,,
,,,,,,0,1.575962693,#f3af84,"[""0"",""0.25""]",down_orange.png,down,,,,,,,,left,left_blue.png,down_orange.png,down,right,up,61364739837a69353c38284a,2021-09-11_16h27.20.944,arrow_simon_vert,2021.1.2,Win32,60.09615385,,,,,,,,,,,,,,,,,,,,,down,1,1.557,28,FALSE,FALSE,6,3,27,3,1,,,,,,,
,,,,,,0,1.852693661,#a3d0fb,"[""-0.25"",""0""]",left_blue.png,left,,,,,,,,left,left_blue.png,down_orange.png,down,left,down,61364739837a69353c38284a,2021-09-11_16h27.20.944,arrow_simon_vert,2021.1.2,Win32,60.09615385,,,,,,,,,,,,,,,,,,,,,left,1,1.543,29,FALSE,FALSE,7,0,28,2,1,,,,,,,
,,,,,,0,1.895964071,#f3af84,"[""0"",""0.25""]",up_orange.png,up,,,,,,,,right,right_blue.png,up_orange.png,up,right,up,61364739837a69353c38284a,2021-09-11_16h27.20.944,arrow_simon_vert,2021.1.2,Win32,60.09615385,,,,,,,,,,,,,,,,,,,,,up,1,1.6377,30,TRUE,FALSE,7,1,29,1,1,,,,,,,
,,,,,,0,1.743364816,#a3d0fb,"[""0.25"",""0""]",left_blue.png,left,,,,,,,,left,left_blue.png,down_orange.png,down,right,up,61364739837a69353c38284a,2021-09-11_16h27.20.944,arrow_simon_vert,2021.1.2,Win32,60.09615385,,,,,,,,,,,,,,,,,,,,,left,1,1.6517,31,TRUE,FALSE,7,2,30,3,1,,,,,,,
,,,,,,0,1.508266858,#f3af84,"[""0"",""-0.25""]",down_orange.png,down,,,,,,,,left,left_blue.png,down_orange.png,down,left,down,61364739837a69353c38284a,2021-09-11_16h27.20.944,arrow_simon_vert,2021.1.2,Win32,60.09615385,,,,,,,,,,,,,,,,,,,,,down,1,1.6715,32,TRUE,FALSE,7,3,31,2,1,,,,,,,
,,,,,,0,2.471858973,#a3d0fb,"[""0.25"",""0""]",right_blue.png,right,,,,,,,,right,right_blue.png,up_orange.png,up,right,up,61364739837a69353c38284a,2021-09-11_16h27.20.944,arrow_simon_vert,2021.1.2,Win32,60.09615385,,,,,,,,,,,,,,,,,,,,,down,0,1.8539,33,TRUE,FALSE,8,0,32,1,1,,,,,,,
,,,,,,0,2.43832683,#f3af84,"[""0"",""-0.25""]",down_orange.png,down,,,,,,,,left,left_blue.png,down_orange.png,down,left,down,61364739837a69353c38284a,2021-09-11_16h27.20.944,arrow_simon_vert,2021.1.2,Win32,60.09615385,,,,,,,,,,,,,,,,,,,,,left,0,1.6716,34,TRUE,FALSE,8,1,33,2,1,,,,,,,
,,,,,,0,1.681982013,#a3d0fb,"[""0.25"",""0""]",left_blue.png,left,,,,,,,,left,left_blue.png,down_orange.png,down,right,up,61364739837a69353c38284a,2021-09-11_16h27.20.944,arrow_simon_vert,2021.1.2,Win32,60.09615385,,,,,,,,,,,,,,,,,,,,,left,1,1.5867,35,FALSE,FALSE,8,2,34,3,1,,,,,,,
,,,,,,0,1.66232521,#f3af84,"[""0"",""0.25""]",up_orange.png,up,,,,,,,,right,right_blue.png,up_orange.png,up,right,up,61364739837a69353c38284a,2021-09-11_16h27.20.944,arrow_simon_vert,2021.1.2,Win32,60.09615385,,,,,,,,,,,,,,,,,,,,,up,1,1.6107,36,TRUE,FALSE,8,3,35,1,1,,,,,,,
,,,,,,0,2.357146708,#a3d0fb,"[""-0.25"",""0""]",right_blue.png,right,,,,,,,,right,right_blue.png,up_orange.png,up,left,down,61364739837a69353c38284a,2021-09-11_16h27.20.944,arrow_simon_vert,2021.1.2,Win32,60.09615385,,,,,,,,,,,,,,,,,,,,,right,1,1.7767,37,TRUE,FALSE,9,0,36,0,1,,,,,,,
,,,,,,0,2.037182071,#f3af84,"[""0"",""-0.25""]",up_orange.png,up,,,,,,,,right,right_blue.png,up_orange.png,up,left,down,61364739837a69353c38284a,2021-09-11_16h27.20.944,arrow_simon_vert,2021.1.2,Win32,60.09615385,,,,,,,,,,,,,,,,,,,,,up,1,1.6076,38,TRUE,FALSE,9,1,37,0,1,,,,,,,
,,,,,,0,2.132739587,#a3d0fb,"[""0.25"",""0""]",right_blue.png,right,,,,,,,,right,right_blue.png,up_orange.png,up,right,up,61364739837a69353c38284a,2021-09-11_16h27.20.944,arrow_simon_vert,2021.1.2,Win32,60.09615385,,,,,,,,,,,,,,,,,,,,,right,1,1.6387,39,TRUE,FALSE,9,2,38,1,1,,,,,,,
,,,,,,0,1.962177873,#f3af84,"[""0"",""-0.25""]",down_orange.png,down,,,,,,,,left,left_blue.png,down_orange.png,down,left,down,61364739837a69353c38284a,2021-09-11_16h27.20.944,arrow_simon_vert,2021.1.2,Win32,60.09615385,,,,,,,,,,,,,,,,,,,,,down,1,1.5093,40,FALSE,FALSE,9,3,39,2,1,,,,,,,
,,,,,,0,2.283157385,#a3d0fb,"[""0.25"",""0""]",right_blue.png,right,,,,,,,,right,right_blue.png,up_orange.png,up,right,up,61364739837a69353c38284a,2021-09-11_16h27.20.944,arrow_simon_vert,2021.1.2,Win32,60.09615385,,,,,,,,,,,,,,,,,,,,,right,1,1.623,41,TRUE,FALSE,10,0,40,1,1,,,,,,,
,,,,,,0,2.167483058,#f3af84,"[""0"",""-0.25""]",up_orange.png,up,,,,,,,,right,right_blue.png,up_orange.png,up,left,down,61364739837a69353c38284a,2021-09-11_16h27.20.944,arrow_simon_vert,2021.1.2,Win32,60.09615385,,,,,,,,,,,,,,,,,,,,,up,1,1.657,42,TRUE,FALSE,10,1,41,0,1,,,,,,,
,,,,,,0,2.227623292,#a3d0fb,"[""0.25"",""0""]",right_blue.png,right,,,,,,,,right,right_blue.png,up_orange.png,up,right,up,61364739837a69353c38284a,2021-09-11_16h27.20.944,arrow_simon_vert,2021.1.2,Win32,60.09615385,,,,,,,,,,,,,,,,,,,,,right,1,1.5616,43,FALSE,FALSE,10,2,42,1,1,,,,,,,
,,,,,,0,1.789603817,#f3af84,"[""0"",""-0.25""]",up_orange.png,up,,,,,,,,right,right_blue.png,up_orange.png,up,left,down,61364739837a69353c38284a,2021-09-11_16h27.20.944,arrow_simon_vert,2021.1.2,Win32,60.09615385,,,,,,,,,,,,,,,,,,,,,up,1,1.5669,44,FALSE,FALSE,10,3,43,0,1,,,,,,,
,,,,,,0,2.188062021,#a3d0fb,"[""-0.25"",""0""]",left_blue.png,left,,,,,,,,left,left_blue.png,down_orange.png,down,left,down,61364739837a69353c38284a,2021-09-11_16h27.20.944,arrow_simon_vert,2021.1.2,Win32,60.09615385,,,,,,,,,,,,,,,,,,,,,left,1,1.6584,45,TRUE,FALSE,11,0,44,2,1,,,,,,,
,,,,,,0,1.869278516,#f3af84,"[""0"",""-0.25""]",down_orange.png,down,,,,,,,,left,left_blue.png,down_orange.png,down,left,down,61364739837a69353c38284a,2021-09-11_16h27.20.944,arrow_simon_vert,2021.1.2,Win32,60.09615385,,,,,,,,,,,,,,,,,,,,,down,1,1.6695,46,TRUE,FALSE,11,1,45,2,1,,,,,,,
,,,,,,0,2.065657063,#a3d0fb,"[""-0.25"",""0""]",left_blue.png,left,,,,,,,,left,left_blue.png,down_orange.png,down,left,down,61364739837a69353c38284a,2021-09-11_16h27.20.944,arrow_simon_vert,2021.1.2,Win32,60.09615385,,,,,,,,,,,,,,,,,,,,,left,1,1.6424,47,TRUE,FALSE,11,2,46,2,1,,,,,,,
,,,,,,0,1.803062856,#f3af84,"[""0"",""-0.25""]",up_orange.png,up,,,,,,,,right,right_blue.png,up_orange.png,up,left,down,61364739837a69353c38284a,2021-09-11_16h27.20.944,arrow_simon_vert,2021.1.2,Win32,60.09615385,,,,,,,,,,,,,,,,,,,,,up,1,1.4877,48,FALSE,FALSE,11,3,47,0,1,,,,,,,
,,,,,,0,1.936664117,#a3d0fb,"[""-0.25"",""0""]",right_blue.png,right,,,,,,,,right,right_blue.png,up_orange.png,up,left,down,61364739837a69353c38284a,2021-09-11_16h27.20.944,arrow_simon_vert,2021.1.2,Win32,60.09615385,,,,,,,,,,,,,,,,,,,,,right,1,1.5888,49,FALSE,FALSE,12,0,48,0,1,,,,,,,
,,,,,,0,1.96282878,#f3af84,"[""0"",""-0.25""]",up_orange.png,up,,,,,,,,right,right_blue.png,up_orange.png,up,left,down,61364739837a69353c38284a,2021-09-11_16h27.20.944,arrow_simon_vert,2021.1.2,Win32,60.09615385,,,,,,,,,,,,,,,,,,,,,up,1,1.6822,50,TRUE,FALSE,12,1,49,0,1,,,,,,,
,,,,,,0,1.846985136,#a3d0fb,"[""0.25"",""0""]",left_blue.png,left,,,,,,,,left,left_blue.png,down_orange.png,down,right,up,61364739837a69353c38284a,2021-09-11_16h27.20.944,arrow_simon_vert,2021.1.2,Win32,60.09615385,,,,,,,,,,,,,,,,,,,,,left,1,1.6055,51,TRUE,FALSE,12,2,50,3,1,,,,,,,
,,,,,,0,2.34464805,#f3af84,"[""0"",""0.25""]",up_orange.png,up,,,,,,,,right,right_blue.png,up_orange.png,up,right,up,61364739837a69353c38284a,2021-09-11_16h27.20.944,arrow_simon_vert,2021.1.2,Win32,60.09615385,,,,,,,,,,,,,,,,,,,,,up,1,1.7648,52,TRUE,FALSE,12,3,51,1,1,,,,,,,
,,,,,,0,1.997978329,#a3d0fb,"[""-0.25"",""0""]",left_blue.png,left,,,,,,,,left,left_blue.png,down_orange.png,down,left,down,61364739837a69353c38284a,2021-09-11_16h27.20.944,arrow_simon_vert,2021.1.2,Win32,60.09615385,,,,,,,,,,,,,,,,,,,,,left,1,1.5113,53,FALSE,FALSE,13,0,52,2,1,,,,,,,
,,,,,,0,1.515240613,#f3af84,"[""0"",""-0.25""]",up_orange.png,up,,,,,,,,right,right_blue.png,up_orange.png,up,left,down,61364739837a69353c38284a,2021-09-11_16h27.20.944,arrow_simon_vert,2021.1.2,Win32,60.09615385,,,,,,,,,,,,,,,,,,,,,up,1,1.5745,54,FALSE,FALSE,13,1,53,0,1,,,,,,,
,,,,,,0,1.502389128,#a3d0fb,"[""0.25"",""0""]",right_blue.png,right,,,,,,,,right,right_blue.png,up_orange.png,up,right,up,61364739837a69353c38284a,2021-09-11_16h27.20.944,arrow_simon_vert,2021.1.2,Win32,60.09615385,,,,,,,,,,,,,,,,,,,,,right,1,1.4859,55,FALSE,FALSE,13,2,54,1,1,,,,,,,
,,,,,,0,2.272184543,#f3af84,"[""0"",""-0.25""]",up_orange.png,up,,,,,,,,right,right_blue.png,up_orange.png,up,left,down,61364739837a69353c38284a,2021-09-11_16h27.20.944,arrow_simon_vert,2021.1.2,Win32,60.09615385,,,,,,,,,,,,,,,,,,,,,up,1,1.6774,56,TRUE,FALSE,13,3,55,0,1,,,,,,,
,,,,,,0,2.331024075,#a3d0fb,"[""0.25"",""0""]",right_blue.png,right,,,,,,,,right,right_blue.png,up_orange.png,up,right,up,61364739837a69353c38284a,2021-09-11_16h27.20.944,arrow_simon_vert,2021.1.2,Win32,60.09615385,,,,,,,,,,,,,,,,,,,,,right,1,1.6012,57,TRUE,FALSE,14,0,56,1,1,,,,,,,
,,,,,,0,1.684411845,#f3af84,"[""0"",""-0.25""]",up_orange.png,up,,,,,,,,right,right_blue.png,up_orange.png,up,left,down,61364739837a69353c38284a,2021-09-11_16h27.20.944,arrow_simon_vert,2021.1.2,Win32,60.09615385,,,,,,,,,,,,,,,,,,,,,up,1,1.5513,58,FALSE,FALSE,14,1,57,0,1,,,,,,,
,,,,,,0,2.053515078,#a3d0fb,"[""0.25"",""0""]",left_blue.png,left,,,,,,,,left,left_blue.png,down_orange.png,down,right,up,61364739837a69353c38284a,2021-09-11_16h27.20.944,arrow_simon_vert,2021.1.2,Win32,60.09615385,,,,,,,,,,,,,,,,,,,,,left,1,1.6015,59,TRUE,FALSE,14,2,58,3,1,,,,,,,
,,,,,,0,1.819683412,#f3af84,"[""0"",""0.25""]",up_orange.png,up,,,,,,,,right,right_blue.png,up_orange.png,up,right,up,61364739837a69353c38284a,2021-09-11_16h27.20.944,arrow_simon_vert,2021.1.2,Win32,60.09615385,,,,,,,,,,,,,,,,,,,,,up,1,1.4313,60,FALSE,FALSE,14,3,59,1,1,,,,,,,
,,,,,,,,,,,,,,,,,,,,,,,,,61364739837a69353c38284a,2021-09-11_16h27.20.944,arrow_simon_vert,2021.1.2,Win32,60.09615385,,,,,,,,,,,,,,,,,,,,,,,,,,,,,,,,space,11.5402,0,0,0,0,1
,,,,,,0,1.684733041,#a3d0fb,"[""0.25"",""0""]",left_blue.png,left,,,,,,,,left,left_blue.png,down_orange.png,down,right,up,61364739837a69353c38284a,2021-09-11_16h27.20.944,arrow_simon_vert,2021.1.2,Win32,60.09615385,,,,,,,,,,,,,,,,,,,,,left,1,1.2419,1,FALSE,TRUE,0,0,0,3,1,,,,,,,
,,,,,,0,1.871319368,#f3af84,"[""0"",""-0.25""]",up_orange.png,up,,,,,,,,right,right_blue.png,up_orange.png,up,left,down,61364739837a69353c38284a,2021-09-11_16h27.20.944,arrow_simon_vert,2021.1.2,Win32,60.09615385,,,,,,,,,,,,,,,,,,,,,up,1,1.3866,2,FALSE,TRUE,0,1,1,0,1,,,,,,,
,,,,,,0,1.575942083,#a3d0fb,"[""-0.25"",""0""]",right_blue.png,right,,,,,,,,right,right_blue.png,up_orange.png,up,left,down,61364739837a69353c38284a,2021-09-11_16h27.20.944,arrow_simon_vert,2021.1.2,Win32,60.09615385,,,,,,,,,,,,,,,,,,,,,right,1,1.5512,3,FALSE,FALSE,0,2,2,0,1,,,,,,,
,,,,,,0,2.49165517,#f3af84,"[""0"",""0.25""]",down_orange.png,down,,,,,,,,left,left_blue.png,down_orange.png,down,right,up,61364739837a69353c38284a,2021-09-11_16h27.20.944,arrow_simon_vert,2021.1.2,Win32,60.09615385,,,,,,,,,,,,,,,,,,,,,up,0,1.8602,4,TRUE,FALSE,0,3,3,3,1,,,,,,,
,,,,,,0,2.128706327,#a3d0fb,"[""0.25"",""0""]",right_blue.png,right,,,,,,,,right,right_blue.png,up_orange.png,up,right,up,61364739837a69353c38284a,2021-09-11_16h27.20.944,arrow_simon_vert,2021.1.2,Win32,60.09615385,,,,,,,,,,,,,,,,,,,,,right,1,1.6398,5,TRUE,FALSE,1,0,4,1,1,,,,,,,
,,,,,,0,1.61093076,#f3af84,"[""0"",""-0.25""]",up_orange.png,up,,,,,,,,right,right_blue.png,up_orange.png,up,left,down,61364739837a69353c38284a,2021-09-11_16h27.20.944,arrow_simon_vert,2021.1.2,Win32,60.09615385,,,,,,,,,,,,,,,,,,,,,up,1,1.4929,6,FALSE,FALSE,1,1,5,0,1,,,,,,,
,,,,,,0,1.647582086,#a3d0fb,"[""-0.25"",""0""]",right_blue.png,right,,,,,,,,right,right_blue.png,up_orange.png,up,left,down,61364739837a69353c38284a,2021-09-11_16h27.20.944,arrow_simon_vert,2021.1.2,Win32,60.09615385,,,,,,,,,,,,,,,,,,,,,right,1,1.4838,7,FALSE,FALSE,1,2,6,0,1,,,,,,,
,,,,,,0,1.986278102,#f3af84,"[""0"",""0.25""]",down_orange.png,down,,,,,,,,left,left_blue.png,down_orange.png,down,right,up,61364739837a69353c38284a,2021-09-11_16h27.20.944,arrow_simon_vert,2021.1.2,Win32,60.09615385,,,,,,,,,,,,,,,,,,,,,down,1,1.5118,8,FALSE,FALSE,1,3,7,3,1,,,,,,,
,,,,,,0,1.514388583,#a3d0fb,"[""0.25"",""0""]",left_blue.png,left,,,,,,,,left,left_blue.png,down_orange.png,down,right,up,61364739837a69353c38284a,2021-09-11_16h27.20.944,arrow_simon_vert,2021.1.2,Win32,60.09615385,,,,,,,,,,,,,,,,,,,,,left,1,1.5763,9,FALSE,FALSE,2,0,8,3,1,,,,,,,
,,,,,,0,2.154594113,#f3af84,"[""0"",""0.25""]",up_orange.png,up,,,,,,,,right,right_blue.png,up_orange.png,up,right,up,61364739837a69353c38284a,2021-09-11_16h27.20.944,arrow_simon_vert,2021.1.2,Win32,60.09615385,,,,,,,,,,,,,,,,,,,,,up,1,1.6432,10,TRUE,FALSE,2,1,9,1,1,,,,,,,
,,,,,,0,1.709116732,#a3d0fb,"[""0.25"",""0""]",right_blue.png,right,,,,,,,,right,right_blue.png,up_orange.png,up,right,up,61364739837a69353c38284a,2021-09-11_16h27.20.944,arrow_simon_vert,2021.1.2,Win32,60.09615385,,,,,,,,,,,,,,,,,,,,,right,1,1.5364,11,FALSE,FALSE,2,2,10,1,1,,,,,,,
,,,,,,0,1.870740041,#f3af84,"[""0"",""-0.25""]",down_orange.png,down,,,,,,,,left,left_blue.png,down_orange.png,down,left,down,61364739837a69353c38284a,2021-09-11_16h27.20.944,arrow_simon_vert,2021.1.2,Win32,60.09615385,,,,,,,,,,,,,,,,,,,,,down,1,1.5059,12,FALSE,FALSE,2,3,11,2,1,,,,,,,
,,,,,,0,1.917291081,#a3d0fb,"[""0.25"",""0""]",right_blue.png,right,,,,,,,,right,right_blue.png,up_orange.png,up,right,up,61364739837a69353c38284a,2021-09-11_16h27.20.944,arrow_simon_vert,2021.1.2,Win32,60.09615385,,,,,,,,,,,,,,,,,,,,,right,1,1.4649,13,FALSE,FALSE,3,0,12,1,1,,,,,,,
,,,,,,0,1.551842873,#f3af84,"[""0"",""-0.25""]",down_orange.png,down,,,,,,,,left,left_blue.png,down_orange.png,down,left,down,61364739837a69353c38284a,2021-09-11_16h27.20.944,arrow_simon_vert,2021.1.2,Win32,60.09615385,,,,,,,,,,,,,,,,,,,,,down,1,1.509,14,FALSE,FALSE,3,1,13,2,1,,,,,,,
,,,,,,0,2.075910377,#a3d0fb,"[""0.25"",""0""]",left_blue.png,left,,,,,,,,left,left_blue.png,down_orange.png,down,right,up,61364739837a69353c38284a,2021-09-11_16h27.20.944,arrow_simon_vert,2021.1.2,Win32,60.09615385,,,,,,,,,,,,,,,,,,,,,left,1,1.5719,15,FALSE,FALSE,3,2,14,3,1,,,,,,,
,,,,,,0,1.999051174,#f3af84,"[""0"",""0.25""]",up_orange.png,up,,,,,,,,right,right_blue.png,up_orange.png,up,right,up,61364739837a69353c38284a,2021-09-11_16h27.20.944,arrow_simon_vert,2021.1.2,Win32,60.09615385,,,,,,,,,,,,,,,,,,,,,up,1,1.5678,16,FALSE,FALSE,3,3,15,1,1,,,,,,,
,,,,,,0,2.134183068,#a3d0fb,"[""-0.25"",""0""]",left_blue.png,left,,,,,,,,left,left_blue.png,down_orange.png,down,left,down,61364739837a69353c38284a,2021-09-11_16h27.20.944,arrow_simon_vert,2021.1.2,Win32,60.09615385,,,,,,,,,,,,,,,,,,,,,left,1,1.5675,17,FALSE,FALSE,4,0,16,2,1,,,,,,,
,,,,,,0,2.346788227,#f3af84,"[""0"",""-0.25""]",up_orange.png,up,,,,,,,,right,right_blue.png,up_orange.png,up,left,down,61364739837a69353c38284a,2021-09-11_16h27.20.944,arrow_simon_vert,2021.1.2,Win32,60.09615385,,,,,,,,,,,,,,,,,,,,,up,1,1.7155,18,TRUE,FALSE,4,1,17,0,1,,,,,,,
,,,,,,0,1.842665707,#a3d0fb,"[""-0.25"",""0""]",right_blue.png,right,,,,,,,,right,right_blue.png,up_orange.png,up,left,down,61364739837a69353c38284a,2021-09-11_16h27.20.944,arrow_simon_vert,2021.1.2,Win32,60.09615385,,,,,,,,,,,,,,,,,,,,,right,1,1.6085,19,TRUE,FALSE,4,2,18,0,1,,,,,,,
,,,,,,0,2.227650247,#f3af84,"[""0"",""0.25""]",down_orange.png,down,,,,,,,,left,left_blue.png,down_orange.png,down,right,up,61364739837a69353c38284a,2021-09-11_16h27.20.944,arrow_simon_vert,2021.1.2,Win32,60.09615385,,,,,,,,,,,,,,,,,,,,,left,0,1.7016,20,TRUE,FALSE,4,3,19,3,1,,,,,,,
,,,,,,0,1.807289776,#a3d0fb,"[""0.25"",""0""]",right_blue.png,right,,,,,,,,right,right_blue.png,up_orange.png,up,right,up,61364739837a69353c38284a,2021-09-11_16h27.20.944,arrow_simon_vert,2021.1.2,Win32,60.09615385,,,,,,,,,,,,,,,,,,,,,right,1,1.5505,21,FALSE,FALSE,5,0,20,1,1,,,,,,,
,,,,,,0,1.782660763,#f3af84,"[""0"",""0.25""]",up_orange.png,up,,,,,,,,right,right_blue.png,up_orange.png,up,right,up,61364739837a69353c38284a,2021-09-11_16h27.20.944,arrow_simon_vert,2021.1.2,Win32,60.09615385,,,,,,,,,,,,,,,,,,,,,up,1,1.6341,22,TRUE,FALSE,5,1,21,1,1,,,,,,,
,,,,,,0,1.938233299,#a3d0fb,"[""0.25"",""0""]",right_blue.png,right,,,,,,,,right,right_blue.png,up_orange.png,up,right,up,61364739837a69353c38284a,2021-09-11_16h27.20.944,arrow_simon_vert,2021.1.2,Win32,60.09615385,,,,,,,,,,,,,,,,,,,,,right,1,1.5558,23,FALSE,FALSE,5,2,22,1,1,,,,,,,
,,,,,,0,2.079825619,#f3af84,"[""0"",""-0.25""]",up_orange.png,up,,,,,,,,right,right_blue.png,up_orange.png,up,left,down,61364739837a69353c38284a,2021-09-11_16h27.20.944,arrow_simon_vert,2021.1.2,Win32,60.09615385,,,,,,,,,,,,,,,,,,,,,up,1,1.6043,24,TRUE,FALSE,5,3,23,0,1,,,,,,,
,,,,,,0,2.006900831,#a3d0fb,"[""-0.25"",""0""]",left_blue.png,left,,,,,,,,left,left_blue.png,down_orange.png,down,left,down,61364739837a69353c38284a,2021-09-11_16h27.20.944,arrow_simon_vert,2021.1.2,Win32,60.09615385,,,,,,,,,,,,,,,,,,,,,left,1,1.6313,25,TRUE,FALSE,6,0,24,2,1,,,,,,,
,,,,,,0,2.040007088,#f3af84,"[""0"",""-0.25""]",down_orange.png,down,,,,,,,,left,left_blue.png,down_orange.png,down,left,down,61364739837a69353c38284a,2021-09-11_16h27.20.944,arrow_simon_vert,2021.1.2,Win32,60.09615385,,,,,,,,,,,,,,,,,,,,,down,1,1.5382,26,FALSE,FALSE,6,1,25,2,1,,,,,,,
,,,,,,0,1.97854034,#a3d0fb,"[""-0.25"",""0""]",left_blue.png,left,,,,,,,,left,left_blue.png,down_orange.png,down,left,down,61364739837a69353c38284a,2021-09-11_16h27.20.944,arrow_simon_vert,2021.1.2,Win32,60.09615385,,,,,,,,,,,,,,,,,,,,,left,1,1.5039,27,FALSE,FALSE,6,2,26,2,1,,,,,,,
,,,,,,0,2.251693603,#f3af84,"[""0"",""-0.25""]",up_orange.png,up,,,,,,,,right,right_blue.png,up_orange.png,up,left,down,61364739837a69353c38284a,2021-09-11_16h27.20.944,arrow_simon_vert,2021.1.2,Win32,60.09615385,,,,,,,,,,,,,,,,,,,,,up,1,1.7033,28,TRUE,FALSE,6,3,27,0,1,,,,,,,
,,,,,,0,1.624127249,#a3d0fb,"[""0.25"",""0""]",left_blue.png,left,,,,,,,,left,left_blue.png,down_orange.png,down,right,up,61364739837a69353c38284a,2021-09-11_16h27.20.944,arrow_simon_vert,2021.1.2,Win32,60.09615385,,,,,,,,,,,,,,,,,,,,,left,1,1.5423,29,FALSE,FALSE,7,0,28,3,1,,,,,,,
,,,,,,0,1.541893681,#f3af84,"[""0"",""0.25""]",up_orange.png,up,,,,,,,,right,right_blue.png,up_orange.png,up,right,up,61364739837a69353c38284a,2021-09-11_16h27.20.944,arrow_simon_vert,2021.1.2,Win32,60.09615385,,,,,,,,,,,,,,,,,,,,,up,1,1.5225,30,FALSE,FALSE,7,1,29,1,1,,,,,,,
,,,,,,0,2.000811899,#a3d0fb,"[""-0.25"",""0""]",left_blue.png,left,,,,,,,,left,left_blue.png,down_orange.png,down,left,down,61364739837a69353c38284a,2021-09-11_16h27.20.944,arrow_simon_vert,2021.1.2,Win32,60.09615385,,,,,,,,,,,,,,,,,,,,,left,1,1.5506,31,FALSE,FALSE,7,2,30,2,1,,,,,,,
,,,,,,0,2.246117106,#f3af84,"[""0"",""-0.25""]",up_orange.png,up,,,,,,,,right,right_blue.png,up_orange.png,up,left,down,61364739837a69353c38284a,2021-09-11_16h27.20.944,arrow_simon_vert,2021.1.2,Win32,60.09615385,,,,,,,,,,,,,,,,,,,,,down,0,1.6286,32,TRUE,FALSE,7,3,31,0,1,,,,,,,
,,,,,,0,1.548196826,#a3d0fb,"[""0.25"",""0""]",right_blue.png,right,,,,,,,,right,right_blue.png,up_orange.png,up,right,up,61364739837a69353c38284a,2021-09-11_16h27.20.944,arrow_simon_vert,2021.1.2,Win32,60.09615385,,,,,,,,,,,,,,,,,,,,,right,1,1.4395,33,FALSE,FALSE,8,0,32,1,1,,,,,,,
,,,,,,0,1.999085272,#f3af84,"[""0"",""-0.25""]",down_orange.png,down,,,,,,,,left,left_blue.png,down_orange.png,down,left,down,61364739837a69353c38284a,2021-09-11_16h27.20.944,arrow_simon_vert,2021.1.2,Win32,60.09615385,,,,,,,,,,,,,,,,,,,,,down,1,1.5877,34,FALSE,FALSE,8,1,33,2,1,,,,,,,
,,,,,,0,2.338138809,#a3d0fb,"[""-0.25"",""0""]",left_blue.png,left,,,,,,,,left,left_blue.png,down_orange.png,down,left,down,61364739837a69353c38284a,2021-09-11_16h27.20.944,arrow_simon_vert,2021.1.2,Win32,60.09615385,,,,,,,,,,,,,,,,,,,,,left,1,1.6242,35,TRUE,FALSE,8,2,34,2,1,,,,,,,
,,,,,,0,1.676687374,#f3af84,"[""0"",""0.25""]",up_orange.png,up,,,,,,,,right,right_blue.png,up_orange.png,up,right,up,61364739837a69353c38284a,2021-09-11_16h27.20.944,arrow_simon_vert,2021.1.2,Win32,60.09615385,,,,,,,,,,,,,,,,,,,,,up,1,1.5835,36,FALSE,FALSE,8,3,35,1,1,,,,,,,
,,,,,,0,2.130035615,#a3d0fb,"[""0.25"",""0""]",left_blue.png,left,,,,,,,,left,left_blue.png,down_orange.png,down,right,up,61364739837a69353c38284a,2021-09-11_16h27.20.944,arrow_simon_vert,2021.1.2,Win32,60.09615385,,,,,,,,,,,,,,,,,,,,,left,1,1.6123,37,TRUE,FALSE,9,0,36,3,1,,,,,,,
,,,,,,0,1.54788108,#f3af84,"[""0"",""-0.25""]",up_orange.png,up,,,,,,,,right,right_blue.png,up_orange.png,up,left,down,61364739837a69353c38284a,2021-09-11_16h27.20.944,arrow_simon_vert,2021.1.2,Win32,60.09615385,,,,,,,,,,,,,,,,,,,,,up,1,1.14,38,FALSE,TRUE,9,1,37,0,1,,,,,,,
,,,,,,0,1.835172615,#a3d0fb,"[""-0.25"",""0""]",right_blue.png,right,,,,,,,,right,right_blue.png,up_orange.png,up,left,down,61364739837a69353c38284a,2021-09-11_16h27.20.944,arrow_simon_vert,2021.1.2,Win32,60.09615385,,,,,,,,,,,,,,,,,,,,,right,1,1.5187,39,FALSE,FALSE,9,2,38,0,1,,,,,,,
,,,,,,0,2.156073361,#f3af84,"[""0"",""0.25""]",down_orange.png,down,,,,,,,,left,left_blue.png,down_orange.png,down,right,up,61364739837a69353c38284a,2021-09-11_16h27.20.944,arrow_simon_vert,2021.1.2,Win32,60.09615385,,,,,,,,,,,,,,,,,,,,,down,1,1.805,40,TRUE,FALSE,9,3,39,3,1,,,,,,,
,,,,,,0,1.90985951,#a3d0fb,"[""0.25"",""0""]",left_blue.png,left,,,,,,,,left,left_blue.png,down_orange.png,down,right,up,61364739837a69353c38284a,2021-09-11_16h27.20.944,arrow_simon_vert,2021.1.2,Win32,60.09615385,,,,,,,,,,,,,,,,,,,,,left,1,1.6699,41,TRUE,FALSE,10,0,40,3,1,,,,,,,
,,,,,,0,2.306274903,#f3af84,"[""0"",""0.25""]",down_orange.png,down,,,,,,,,left,left_blue.png,down_orange.png,down,right,up,61364739837a69353c38284a,2021-09-11_16h27.20.944,arrow_simon_vert,2021.1.2,Win32,60.09615385,,,,,,,,,,,,,,,,,,,,,down,1,1.7361,42,TRUE,FALSE,10,1,41,3,1,,,,,,,
,,,,,,0,2.053051867,#a3d0fb,"[""-0.25"",""0""]",left_blue.png,left,,,,,,,,left,left_blue.png,down_orange.png,down,left,down,61364739837a69353c38284a,2021-09-11_16h27.20.944,arrow_simon_vert,2021.1.2,Win32,60.09615385,,,,,,,,,,,,,,,,,,,,,left,1,1.7148,43,TRUE,FALSE,10,2,42,2,1,,,,,,,
,,,,,,0,1.746066976,#f3af84,"[""0"",""0.25""]",down_orange.png,down,,,,,,,,left,left_blue.png,down_orange.png,down,right,up,61364739837a69353c38284a,2021-09-11_16h27.20.944,arrow_simon_vert,2021.1.2,Win32,60.09615385,,,,,,,,,,,,,,,,,,,,,down,1,1.6358,44,TRUE,FALSE,10,3,43,3,1,,,,,,,
,,,,,,0,1.754603233,#a3d0fb,"[""-0.25"",""0""]",left_blue.png,left,,,,,,,,left,left_blue.png,down_orange.png,down,left,down,61364739837a69353c38284a,2021-09-11_16h27.20.944,arrow_simon_vert,2021.1.2,Win32,60.09615385,,,,,,,,,,,,,,,,,,,,,left,1,1.5401,45,FALSE,FALSE,11,0,44,2,1,,,,,,,
,,,,,,0,1.562663866,#f3af84,"[""0"",""-0.25""]",down_orange.png,down,,,,,,,,left,left_blue.png,down_orange.png,down,left,down,61364739837a69353c38284a,2021-09-11_16h27.20.944,arrow_simon_vert,2021.1.2,Win32,60.09615385,,,,,,,,,,,,,,,,,,,,,down,1,1.5178,46,FALSE,FALSE,11,1,45,2,1,,,,,,,
,,,,,,0,2.361744892,#a3d0fb,"[""0.25"",""0""]",right_blue.png,right,,,,,,,,right,right_blue.png,up_orange.png,up,right,up,61364739837a69353c38284a,2021-09-11_16h27.20.944,arrow_simon_vert,2021.1.2,Win32,60.09615385,,,,,,,,,,,,,,,,,,,,,up,0,1.7551,47,TRUE,FALSE,11,2,46,1,1,,,,,,,
,,,,,,0,1.673048726,#f3af84,"[""0"",""-0.25""]",down_orange.png,down,,,,,,,,left,left_blue.png,down_orange.png,down,left,down,61364739837a69353c38284a,2021-09-11_16h27.20.944,arrow_simon_vert,2021.1.2,Win32,60.09615385,,,,,,,,,,,,,,,,,,,,,down,1,1.6916,48,TRUE,FALSE,11,3,47,2,1,,,,,,,
,,,,,,0,2.383117583,#a3d0fb,"[""-0.25"",""0""]",right_blue.png,right,,,,,,,,right,right_blue.png,up_orange.png,up,left,down,61364739837a69353c38284a,2021-09-11_16h27.20.944,arrow_simon_vert,2021.1.2,Win32,60.09615385,,,,,,,,,,,,,,,,,,,,,right,1,1.8389,49,TRUE,FALSE,12,0,48,0,1,,,,,,,
,,,,,,0,1.797891198,#f3af84,"[""0"",""-0.25""]",down_orange.png,down,,,,,,,,left,left_blue.png,down_orange.png,down,left,down,61364739837a69353c38284a,2021-09-11_16h27.20.944,arrow_simon_vert,2021.1.2,Win32,60.09615385,,,,,,,,,,,,,,,,,,,,,down,1,1.5559,50,FALSE,FALSE,12,1,49,2,1,,,,,,,
,,,,,,0,1.625664029,#a3d0fb,"[""-0.25"",""0""]",right_blue.png,right,,,,,,,,right,right_blue.png,up_orange.png,up,left,down,61364739837a69353c38284a,2021-09-11_16h27.20.944,arrow_simon_vert,2021.1.2,Win32,60.09615385,,,,,,,,,,,,,,,,,,,,,right,1,1.5525,51,FALSE,FALSE,12,2,50,0,1,,,,,,,
,,,,,,0,2.235044745,#f3af84,"[""0"",""0.25""]",up_orange.png,up,,,,,,,,right,right_blue.png,up_orange.png,up,right,up,61364739837a69353c38284a,2021-09-11_16h27.20.944,arrow_simon_vert,2021.1.2,Win32,60.09615385,,,,,,,,,,,,,,,,,,,,,up,1,1.6879,52,TRUE,FALSE,12,3,51,1,1,,,,,,,
,,,,,,0,1.944557381,#a3d0fb,"[""0.25"",""0""]",right_blue.png,right,,,,,,,,right,right_blue.png,up_orange.png,up,right,up,61364739837a69353c38284a,2021-09-11_16h27.20.944,arrow_simon_vert,2021.1.2,Win32,60.09615385,,,,,,,,,,,,,,,,,,,,,right,1,1.5333,53,FALSE,FALSE,13,0,52,1,1,,,,,,,
,,,,,,0,1.937075729,#f3af84,"[""0"",""0.25""]",down_orange.png,down,,,,,,,,left,left_blue.png,down_orange.png,down,right,up,61364739837a69353c38284a,2021-09-11_16h27.20.944,arrow_simon_vert,2021.1.2,Win32,60.09615385,,,,,,,,,,,,,,,,,,,,,down,1,1.6601,54,TRUE,FALSE,13,1,53,3,1,,,,,,,
,,,,,,0,1.590907625,#a3d0fb,"[""0.25"",""0""]",right_blue.png,right,,,,,,,,right,right_blue.png,up_orange.png,up,right,up,61364739837a69353c38284a,2021-09-11_16h27.20.944,arrow_simon_vert,2021.1.2,Win32,60.09615385,,,,,,,,,,,,,,,,,,,,,right,1,1.496,55,FALSE,FALSE,13,2,54,1,1,,,,,,,
,,,,,,0,2.293419443,#f3af84,"[""0"",""-0.25""]",up_orange.png,up,,,,,,,,right,right_blue.png,up_orange.png,up,left,down,61364739837a69353c38284a,2021-09-11_16h27.20.944,arrow_simon_vert,2021.1.2,Win32,60.09615385,,,,,,,,,,,,,,,,,,,,,up,1,1.7873,56,TRUE,FALSE,13,3,55,0,1,,,,,,,
,,,,,,0,2.14215048,#a3d0fb,"[""-0.25"",""0""]",left_blue.png,left,,,,,,,,left,left_blue.png,down_orange.png,down,left,down,61364739837a69353c38284a,2021-09-11_16h27.20.944,arrow_simon_vert,2021.1.2,Win32,60.09615385,,,,,,,,,,,,,,,,,,,,,left,1,1.6809,57,TRUE,FALSE,14,0,56,2,1,,,,,,,
,,,,,,0,1.780847752,#f3af84,"[""0"",""0.25""]",down_orange.png,down,,,,,,,,left,left_blue.png,down_orange.png,down,right,up,61364739837a69353c38284a,2021-09-11_16h27.20.944,arrow_simon_vert,2021.1.2,Win32,60.09615385,,,,,,,,,,,,,,,,,,,,,down,1,1.5178,58,FALSE,FALSE,14,1,57,3,1,,,,,,,
,,,,,,0,1.63289567,#a3d0fb,"[""0.25"",""0""]",left_blue.png,left,,,,,,,,left,left_blue.png,down_orange.png,down,right,up,61364739837a69353c38284a,2021-09-11_16h27.20.944,arrow_simon_vert,2021.1.2,Win32,60.09615385,,,,,,,,,,,,,,,,,,,,,left,1,1.1389,59,FALSE,TRUE,14,2,58,3,1,,,,,,,
,,,,,,0,2.196397452,#f3af84,"[""0"",""-0.25""]",up_orange.png,up,,,,,,,,right,right_blue.png,up_orange.png,up,left,down,61364739837a69353c38284a,2021-09-11_16h27.20.944,arrow_simon_vert,2021.1.2,Win32,60.09615385,,,,,,,,,,,,,,,,,,,,,up,1,1.702,60,TRUE,FALSE,14,3,59,0,1,,,,,,,
,,,,,,,,,,,,,,,,,,,,,,,,,61364739837a69353c38284a,2021-09-11_16h27.20.944,arrow_simon_vert,2021.1.2,Win32,60.09615385,,,,,,,,,,,,,,,,,,,,,,,,,,,,,,,,space,8.8788,1,0,1,0,1
,,,,,,0,2.137696424,#a3d0fb,"[""-0.25"",""0""]",right_blue.png,right,,,,,,,,right,right_blue.png,up_orange.png,up,left,down,61364739837a69353c38284a,2021-09-11_16h27.20.944,arrow_simon_vert,2021.1.2,Win32,60.09615385,,,,,,,,,,,,,,,,,,,,,right,1,1.6076,1,TRUE,FALSE,0,0,0,0,1,,,,,,,
,,,,,,0,2.001505047,#f3af84,"[""0"",""0.25""]",down_orange.png,down,,,,,,,,left,left_blue.png,down_orange.png,down,right,up,61364739837a69353c38284a,2021-09-11_16h27.20.944,arrow_simon_vert,2021.1.2,Win32,60.09615385,,,,,,,,,,,,,,,,,,,,,down,1,1.4621,2,FALSE,FALSE,0,1,1,3,1,,,,,,,
,,,,,,0,1.651291672,#a3d0fb,"[""0.25"",""0""]",right_blue.png,right,,,,,,,,right,right_blue.png,up_orange.png,up,right,up,61364739837a69353c38284a,2021-09-11_16h27.20.944,arrow_simon_vert,2021.1.2,Win32,60.09615385,,,,,,,,,,,,,,,,,,,,,right,1,1.1896,3,FALSE,TRUE,0,2,2,1,1,,,,,,,
,,,,,,0,2.439693281,#f3af84,"[""0"",""-0.25""]",down_orange.png,down,,,,,,,,left,left_blue.png,down_orange.png,down,left,down,61364739837a69353c38284a,2021-09-11_16h27.20.944,arrow_simon_vert,2021.1.2,Win32,60.09615385,,,,,,,,,,,,,,,,,,,,,up,0,1.7685,4,TRUE,FALSE,0,3,3,2,1,,,,,,,
,,,,,,0,2.477854873,#a3d0fb,"[""0.25"",""0""]",left_blue.png,left,,,,,,,,left,left_blue.png,down_orange.png,down,right,up,61364739837a69353c38284a,2021-09-11_16h27.20.944,arrow_simon_vert,2021.1.2,Win32,60.09615385,,,,,,,,,,,,,,,,,,,,,left,1,1.9053,5,TRUE,FALSE,1,0,4,3,1,,,,,,,
,,,,,,0,2.127314896,#f3af84,"[""0"",""-0.25""]",down_orange.png,down,,,,,,,,left,left_blue.png,down_orange.png,down,left,down,61364739837a69353c38284a,2021-09-11_16h27.20.944,arrow_simon_vert,2021.1.2,Win32,60.09615385,,,,,,,,,,,,,,,,,,,,,down,1,1.7076,6,TRUE,FALSE,1,1,5,2,1,,,,,,,
,,,,,,0,2.29033969,#a3d0fb,"[""0.25"",""0""]",left_blue.png,left,,,,,,,,left,left_blue.png,down_orange.png,down,right,up,61364739837a69353c38284a,2021-09-11_16h27.20.944,arrow_simon_vert,2021.1.2,Win32,60.09615385,,,,,,,,,,,,,,,,,,,,,left,1,1.7729,7,TRUE,FALSE,1,2,6,3,1,,,,,,,
,,,,,,0,1.800575093,#f3af84,"[""0"",""-0.25""]",up_orange.png,up,,,,,,,,right,right_blue.png,up_orange.png,up,left,down,61364739837a69353c38284a,2021-09-11_16h27.20.944,arrow_simon_vert,2021.1.2,Win32,60.09615385,,,,,,,,,,,,,,,,,,,,,down,0,1.1885,8,FALSE,TRUE,1,3,7,0,1,,,,,,,
,,,,,,0,1.910330385,#a3d0fb,"[""0.25"",""0""]",right_blue.png,right,,,,,,,,right,right_blue.png,up_orange.png,up,right,up,61364739837a69353c38284a,2021-09-11_16h27.20.944,arrow_simon_vert,2021.1.2,Win32,60.09615385,,,,,,,,,,,,,,,,,,,,,right,1,1.3741,9,FALSE,TRUE,2,0,8,1,1,,,,,,,
,,,,,,0,2.324793821,#f3af84,"[""0"",""-0.25""]",up_orange.png,up,,,,,,,,right,right_blue.png,up_orange.png,up,left,down,61364739837a69353c38284a,2021-09-11_16h27.20.944,arrow_simon_vert,2021.1.2,Win32,60.09615385,,,,,,,,,,,,,,,,,,,,,up,1,1.7874,10,TRUE,FALSE,2,1,9,0,1,,,,,,,
,,,,,,0,1.817847015,#a3d0fb,"[""0.25"",""0""]",left_blue.png,left,,,,,,,,left,left_blue.png,down_orange.png,down,right,up,61364739837a69353c38284a,2021-09-11_16h27.20.944,arrow_simon_vert,2021.1.2,Win32,60.09615385,,,,,,,,,,,,,,,,,,,,,left,1,1.2597,11,FALSE,TRUE,2,2,10,3,1,,,,,,,
,,,,,,0,2.226468081,#f3af84,"[""0"",""-0.25""]",up_orange.png,up,,,,,,,,right,right_blue.png,up_orange.png,up,left,down,61364739837a69353c38284a,2021-09-11_16h27.20.944,arrow_simon_vert,2021.1.2,Win32,60.09615385,,,,,,,,,,,,,,,,,,,,,up,1,1.7455,12,TRUE,FALSE,2,3,11,0,1,,,,,,,
,,,,,,0,2.018476283,#a3d0fb,"[""-0.25"",""0""]",left_blue.png,left,,,,,,,,left,left_blue.png,down_orange.png,down,left,down,61364739837a69353c38284a,2021-09-11_16h27.20.944,arrow_simon_vert,2021.1.2,Win32,60.09615385,,,,,,,,,,,,,,,,,,,,,left,1,1.4944,13,FALSE,FALSE,3,0,12,2,1,,,,,,,
,,,,,,0,2.101059302,#f3af84,"[""0"",""0.25""]",up_orange.png,up,,,,,,,,right,right_blue.png,up_orange.png,up,right,up,61364739837a69353c38284a,2021-09-11_16h27.20.944,arrow_simon_vert,2021.1.2,Win32,60.09615385,,,,,,,,,,,,,,,,,,,,,up,1,1.6254,14,TRUE,FALSE,3,1,13,1,1,,,,,,,
,,,,,,0,1.922100204,#a3d0fb,"[""0.25"",""0""]",left_blue.png,left,,,,,,,,left,left_blue.png,down_orange.png,down,right,up,61364739837a69353c38284a,2021-09-11_16h27.20.944,arrow_simon_vert,2021.1.2,Win32,60.09615385,,,,,,,,,,,,,,,,,,,,,left,1,1.4887,15,FALSE,FALSE,3,2,14,3,1,,,,,,,
,,,,,,0,1.69703498,#f3af84,"[""0"",""0.25""]",down_orange.png,down,,,,,,,,left,left_blue.png,down_orange.png,down,right,up,61364739837a69353c38284a,2021-09-11_16h27.20.944,arrow_simon_vert,2021.1.2,Win32,60.09615385,,,,,,,,,,,,,,,,,,,,,down,1,1.5279,16,FALSE,FALSE,3,3,15,3,1,,,,,,,
,,,,,,0,1.896552914,#a3d0fb,"[""-0.25"",""0""]",left_blue.png,left,,,,,,,,left,left_blue.png,down_orange.png,down,left,down,61364739837a69353c38284a,2021-09-11_16h27.20.944,arrow_simon_vert,2021.1.2,Win32,60.09615385,,,,,,,,,,,,,,,,,,,,,left,1,1.4931,17,FALSE,FALSE,4,0,16,2,1,,,,,,,
,,,,,,0,2.214101795,#f3af84,"[""0"",""-0.25""]",down_orange.png,down,,,,,,,,left,left_blue.png,down_orange.png,down,left,down,61364739837a69353c38284a,2021-09-11_16h27.20.944,arrow_simon_vert,2021.1.2,Win32,60.09615385,,,,,,,,,,,,,,,,,,,,,up,0,1.7836,18,TRUE,FALSE,4,1,17,2,1,,,,,,,
,,,,,,0,1.67447947,#a3d0fb,"[""0.25"",""0""]",left_blue.png,left,,,,,,,,left,left_blue.png,down_orange.png,down,right,up,61364739837a69353c38284a,2021-09-11_16h27.20.944,arrow_simon_vert,2021.1.2,Win32,60.09615385,,,,,,,,,,,,,,,,,,,,,left,1,1.5914,19,FALSE,FALSE,4,2,18,3,1,,,,,,,
,,,,,,0,2.356421442,#f3af84,"[""0"",""-0.25""]",down_orange.png,down,,,,,,,,left,left_blue.png,down_orange.png,down,left,down,61364739837a69353c38284a,2021-09-11_16h27.20.944,arrow_simon_vert,2021.1.2,Win32,60.09615385,,,,,,,,,,,,,,,,,,,,,up,0,1.7074,20,TRUE,FALSE,4,3,19,2,1,,,,,,,
,,,,,,0,1.833521762,#a3d0fb,"[""0.25"",""0""]",left_blue.png,left,,,,,,,,left,left_blue.png,down_orange.png,down,right,up,61364739837a69353c38284a,2021-09-11_16h27.20.944,arrow_simon_vert,2021.1.2,Win32,60.09615385,,,,,,,,,,,,,,,,,,,,,left,1,1.4804,21,FALSE,FALSE,5,0,20,3,1,,,,,,,
,,,,,,0,2.346803943,#f3af84,"[""0"",""-0.25""]",down_orange.png,down,,,,,,,,left,left_blue.png,down_orange.png,down,left,down,61364739837a69353c38284a,2021-09-11_16h27.20.944,arrow_simon_vert,2021.1.2,Win32,60.09615385,,,,,,,,,,,,,,,,,,,,,down,1,1.9197,22,TRUE,FALSE,5,1,21,2,1,,,,,,,
,,,,,,0,1.638933713,#a3d0fb,"[""0.25"",""0""]",left_blue.png,left,,,,,,,,left,left_blue.png,down_orange.png,down,right,up,61364739837a69353c38284a,2021-09-11_16h27.20.944,arrow_simon_vert,2021.1.2,Win32,60.09615385,,,,,,,,,,,,,,,,,,,,,left,1,1.0041,23,FALSE,TRUE,5,2,22,3,1,,,,,,,
,,,,,,0,2.190268452,#f3af84,"[""0"",""-0.25""]",up_orange.png,up,,,,,,,,right,right_blue.png,up_orange.png,up,left,down,61364739837a69353c38284a,2021-09-11_16h27.20.944,arrow_simon_vert,2021.1.2,Win32,60.09615385,,,,,,,,,,,,,,,,,,,,,up,1,1.6702,24,TRUE,FALSE,5,3,23,0,1,,,,,,,
,,,,,,0,1.79889568,#a3d0fb,"[""-0.25"",""0""]",right_blue.png,right,,,,,,,,right,right_blue.png,up_orange.png,up,left,down,61364739837a69353c38284a,2021-09-11_16h27.20.944,arrow_simon_vert,2021.1.2,Win32,60.09615385,,,,,,,,,,,,,,,,,,,,,right,1,1.4369,25,FALSE,FALSE,6,0,24,0,1,,,,,,,
,,,,,,0,2.362199526,#f3af84,"[""0"",""0.25""]",up_orange.png,up,,,,,,,,right,right_blue.png,up_orange.png,up,right,up,61364739837a69353c38284a,2021-09-11_16h27.20.944,arrow_simon_vert,2021.1.2,Win32,60.09615385,,,,,,,,,,,,,,,,,,,,,down,0,1.8188,26,TRUE,FALSE,6,1,25,1,1,,,,,,,
,,,,,,0,1.629079519,#a3d0fb,"[""-0.25"",""0""]",right_blue.png,right,,,,,,,,right,right_blue.png,up_orange.png,up,left,down,61364739837a69353c38284a,2021-09-11_16h27.20.944,arrow_simon_vert,2021.1.2,Win32,60.09615385,,,,,,,,,,,,,,,,,,,,,right,1,1.4647,27,FALSE,FALSE,6,2,26,0,1,,,,,,,
,,,,,,0,2.418230806,#f3af84,"[""0"",""0.25""]",up_orange.png,up,,,,,,,,right,right_blue.png,up_orange.png,up,right,up,61364739837a69353c38284a,2021-09-11_16h27.20.944,arrow_simon_vert,2021.1.2,Win32,60.09615385,,,,,,,,,,,,,,,,,,,,,up,1,1.7043,28,TRUE,FALSE,6,3,27,1,1,,,,,,,
,,,,,,0,2.189665287,#a3d0fb,"[""0.25"",""0""]",right_blue.png,right,,,,,,,,right,right_blue.png,up_orange.png,up,right,up,61364739837a69353c38284a,2021-09-11_16h27.20.944,arrow_simon_vert,2021.1.2,Win32,60.09615385,,,,,,,,,,,,,,,,,,,,,left,0,1.6655,29,TRUE,FALSE,7,0,28,1,1,,,,,,,
,,,,,,0,1.691170301,#f3af84,"[""0"",""-0.25""]",down_orange.png,down,,,,,,,,left,left_blue.png,down_orange.png,down,left,down,61364739837a69353c38284a,2021-09-11_16h27.20.944,arrow_simon_vert,2021.1.2,Win32,60.09615385,,,,,,,,,,,,,,,,,,,,,down,1,1.5533,30,FALSE,FALSE,7,1,29,2,1,,,,,,,
,,,,,,0,1.980976909,#a3d0fb,"[""0.25"",""0""]",left_blue.png,left,,,,,,,,left,left_blue.png,down_orange.png,down,right,up,61364739837a69353c38284a,2021-09-11_16h27.20.944,arrow_simon_vert,2021.1.2,Win32,60.09615385,,,,,,,,,,,,,,,,,,,,,left,1,1.4926,31,FALSE,FALSE,7,2,30,3,1,,,,,,,
,,,,,,0,2.483045158,#f3af84,"[""0"",""-0.25""]",up_orange.png,up,,,,,,,,right,right_blue.png,up_orange.png,up,left,down,61364739837a69353c38284a,2021-09-11_16h27.20.944,arrow_simon_vert,2021.1.2,Win32,60.09615385,,,,,,,,,,,,,,,,,,,,,up,1,1.5097,32,FALSE,FALSE,7,3,31,0,1,,,,,,,
,,,,,,0,1.522197518,#a3d0fb,"[""-0.25"",""0""]",right_blue.png,right,,,,,,,,right,right_blue.png,up_orange.png,up,left,down,61364739837a69353c38284a,2021-09-11_16h27.20.944,arrow_simon_vert,2021.1.2,Win32,60.09615385,,,,,,,,,,,,,,,,,,,,,right,1,1.4675,33,FALSE,FALSE,8,0,32,0,1,,,,,,,
,,,,,,0,1.750307922,#f3af84,"[""0"",""-0.25""]",down_orange.png,down,,,,,,,,left,left_blue.png,down_orange.png,down,left,down,61364739837a69353c38284a,2021-09-11_16h27.20.944,arrow_simon_vert,2021.1.2,Win32,60.09615385,,,,,,,,,,,,,,,,,,,,,down,1,1.528,34,FALSE,FALSE,8,1,33,2,1,,,,,,,
,,,,,,0,2.493256566,#a3d0fb,"[""-0.25"",""0""]",right_blue.png,right,,,,,,,,right,right_blue.png,up_orange.png,up,left,down,61364739837a69353c38284a,2021-09-11_16h27.20.944,arrow_simon_vert,2021.1.2,Win32,60.09615385,,,,,,,,,,,,,,,,,,,,,left,0,1.7168,35,TRUE,FALSE,8,2,34,0,1,,,,,,,
,,,,,,0,1.915202057,#f3af84,"[""0"",""-0.25""]",down_orange.png,down,,,,,,,,left,left_blue.png,down_orange.png,down,left,down,61364739837a69353c38284a,2021-09-11_16h27.20.944,arrow_simon_vert,2021.1.2,Win32,60.09615385,,,,,,,,,,,,,,,,,,,,,down,1,1.5116,36,FALSE,FALSE,8,3,35,2,1,,,,,,,
,,,,,,0,1.770218168,#a3d0fb,"[""-0.25"",""0""]",right_blue.png,right,,,,,,,,right,right_blue.png,up_orange.png,up,left,down,61364739837a69353c38284a,2021-09-11_16h27.20.944,arrow_simon_vert,2021.1.2,Win32,60.09615385,,,,,,,,,,,,,,,,,,,,,right,1,1.4979,37,FALSE,FALSE,9,0,36,0,1,,,,,,,
,,,,,,0,1.805080169,#f3af84,"[""0"",""0.25""]",up_orange.png,up,,,,,,,,right,right_blue.png,up_orange.png,up,right,up,61364739837a69353c38284a,2021-09-11_16h27.20.944,arrow_simon_vert,2021.1.2,Win32,60.09615385,,,,,,,,,,,,,,,,,,,,,up,1,1.5927,38,FALSE,FALSE,9,1,37,1,1,,,,,,,
,,,,,,0,1.805550343,#a3d0fb,"[""0.25"",""0""]",right_blue.png,right,,,,,,,,right,right_blue.png,up_orange.png,up,right,up,61364739837a69353c38284a,2021-09-11_16h27.20.944,arrow_simon_vert,2021.1.2,Win32,60.09615385,,,,,,,,,,,,,,,,,,,,,right,1,1.5565,39,FALSE,FALSE,9,2,38,1,1,,,,,,,
,,,,,,0,1.985033931,#f3af84,"[""0"",""0.25""]",up_orange.png,up,,,,,,,,right,right_blue.png,up_orange.png,up,right,up,61364739837a69353c38284a,2021-09-11_16h27.20.944,arrow_simon_vert,2021.1.2,Win32,60.09615385,,,,,,,,,,,,,,,,,,,,,up,1,1.5992,40,FALSE,FALSE,9,3,39,1,1,,,,,,,
,,,,,,0,2.063415039,#a3d0fb,"[""-0.25"",""0""]",left_blue.png,left,,,,,,,,left,left_blue.png,down_orange.png,down,left,down,61364739837a69353c38284a,2021-09-11_16h27.20.944,arrow_simon_vert,2021.1.2,Win32,60.09615385,,,,,,,,,,,,,,,,,,,,,left,1,1.5567,41,FALSE,FALSE,10,0,40,2,1,,,,,,,
,,,,,,0,1.952742037,#f3af84,"[""0"",""-0.25""]",up_orange.png,up,,,,,,,,right,right_blue.png,up_orange.png,up,left,down,61364739837a69353c38284a,2021-09-11_16h27.20.944,arrow_simon_vert,2021.1.2,Win32,60.09615385,,,,,,,,,,,,,,,,,,,,,up,1,1.7631,42,TRUE,FALSE,10,1,41,0,1,,,,,,,
,,,,,,0,1.638994303,#a3d0fb,"[""-0.25"",""0""]",left_blue.png,left,,,,,,,,left,left_blue.png,down_orange.png,down,left,down,61364739837a69353c38284a,2021-09-11_16h27.20.944,arrow_simon_vert,2021.1.2,Win32,60.09615385,,,,,,,,,,,,,,,,,,,,,left,1,1.5691,43,FALSE,FALSE,10,2,42,2,1,,,,,,,
,,,,,,0,2.155926411,#f3af84,"[""0"",""-0.25""]",down_orange.png,down,,,,,,,,left,left_blue.png,down_orange.png,down,left,down,61364739837a69353c38284a,2021-09-11_16h27.20.944,arrow_simon_vert,2021.1.2,Win32,60.09615385,,,,,,,,,,,,,,,,,,,,,down,1,1.5697,44,FALSE,FALSE,10,3,43,2,1,,,,,,,
,,,,,,0,1.666502575,#a3d0fb,"[""-0.25"",""0""]",right_blue.png,right,,,,,,,,right,right_blue.png,up_orange.png,up,left,down,61364739837a69353c38284a,2021-09-11_16h27.20.944,arrow_simon_vert,2021.1.2,Win32,60.09615385,,,,,,,,,,,,,,,,,,,,,right,1,1.5689,45,FALSE,FALSE,11,0,44,0,1,,,,,,,
,,,,,,0,1.505359162,#f3af84,"[""0"",""-0.25""]",up_orange.png,up,,,,,,,,right,right_blue.png,up_orange.png,up,left,down,61364739837a69353c38284a,2021-09-11_16h27.20.944,arrow_simon_vert,2021.1.2,Win32,60.09615385,,,,,,,,,,,,,,,,,,,,,up,1,1.5347,46,FALSE,FALSE,11,1,45,0,1,,,,,,,
,,,,,,0,2.124533702,#a3d0fb,"[""0.25"",""0""]",right_blue.png,right,,,,,,,,right,right_blue.png,up_orange.png,up,right,up,61364739837a69353c38284a,2021-09-11_16h27.20.944,arrow_simon_vert,2021.1.2,Win32,60.09615385,,,,,,,,,,,,,,,,,,,,,right,1,1.6187,47,TRUE,FALSE,11,2,46,1,1,,,,,,,
,,,,,,0,2.036594457,#f3af84,"[""0"",""0.25""]",up_orange.png,up,,,,,,,,right,right_blue.png,up_orange.png,up,right,up,61364739837a69353c38284a,2021-09-11_16h27.20.944,arrow_simon_vert,2021.1.2,Win32,60.09615385,,,,,,,,,,,,,,,,,,,,,up,1,1.5867,48,FALSE,FALSE,11,3,47,1,1,,,,,,,
,,,,,,0,1.825538102,#a3d0fb,"[""0.25"",""0""]",left_blue.png,left,,,,,,,,left,left_blue.png,down_orange.png,down,right,up,61364739837a69353c38284a,2021-09-11_16h27.20.944,arrow_simon_vert,2021.1.2,Win32,60.09615385,,,,,,,,,,,,,,,,,,,,,left,1,1.4707,49,FALSE,FALSE,12,0,48,3,1,,,,,,,
,,,,,,0,1.540128024,#f3af84,"[""0"",""0.25""]",up_orange.png,up,,,,,,,,right,right_blue.png,up_orange.png,up,right,up,61364739837a69353c38284a,2021-09-11_16h27.20.944,arrow_simon_vert,2021.1.2,Win32,60.09615385,,,,,,,,,,,,,,,,,,,,,up,1,1.5374,50,FALSE,FALSE,12,1,49,1,1,,,,,,,
,,,,,,0,2.049748101,#a3d0fb,"[""0.25"",""0""]",left_blue.png,left,,,,,,,,left,left_blue.png,down_orange.png,down,right,up,61364739837a69353c38284a,2021-09-11_16h27.20.944,arrow_simon_vert,2021.1.2,Win32,60.09615385,,,,,,,,,,,,,,,,,,,,,right,0,1.3563,51,FALSE,TRUE,12,2,50,3,1,,,,,,,
,,,,,,0,1.631428311,#f3af84,"[""0"",""0.25""]",down_orange.png,down,,,,,,,,left,left_blue.png,down_orange.png,down,right,up,61364739837a69353c38284a,2021-09-11_16h27.20.944,arrow_simon_vert,2021.1.2,Win32,60.09615385,,,,,,,,,,,,,,,,,,,,,down,1,1.5055,52,FALSE,FALSE,12,3,51,3,1,,,,,,,
,,,,,,0,2.197606961,#a3d0fb,"[""0.25"",""0""]",right_blue.png,right,,,,,,,,right,right_blue.png,up_orange.png,up,right,up,61364739837a69353c38284a,2021-09-11_16h27.20.944,arrow_simon_vert,2021.1.2,Win32,60.09615385,,,,,,,,,,,,,,,,,,,,,left,0,1.2578,53,FALSE,TRUE,13,0,52,1,1,,,,,,,
,,,,,,0,1.979042179,#f3af84,"[""0"",""-0.25""]",down_orange.png,down,,,,,,,,left,left_blue.png,down_orange.png,down,left,down,61364739837a69353c38284a,2021-09-11_16h27.20.944,arrow_simon_vert,2021.1.2,Win32,60.09615385,,,,,,,,,,,,,,,,,,,,,down,1,1.4979,54,FALSE,FALSE,13,1,53,2,1,,,,,,,
,,,,,,0,2.422273802,#a3d0fb,"[""0.25"",""0""]",left_blue.png,left,,,,,,,,left,left_blue.png,down_orange.png,down,right,up,61364739837a69353c38284a,2021-09-11_16h27.20.944,arrow_simon_vert,2021.1.2,Win32,60.09615385,,,,,,,,,,,,,,,,,,,,,right,0,1.6998,55,TRUE,FALSE,13,2,54,3,1,,,,,,,
,,,,,,0,2.379787748,#f3af84,"[""0"",""0.25""]",down_orange.png,down,,,,,,,,left,left_blue.png,down_orange.png,down,right,up,61364739837a69353c38284a,2021-09-11_16h27.20.944,arrow_simon_vert,2021.1.2,Win32,60.09615385,,,,,,,,,,,,,,,,,,,,,down,1,1.8477,56,TRUE,FALSE,13,3,55,3,1,,,,,,,
,,,,,,0,1.557257109,#a3d0fb,"[""0.25"",""0""]",right_blue.png,right,,,,,,,,right,right_blue.png,up_orange.png,up,right,up,61364739837a69353c38284a,2021-09-11_16h27.20.944,arrow_simon_vert,2021.1.2,Win32,60.09615385,,,,,,,,,,,,,,,,,,,,,right,1,1.3773,57,FALSE,TRUE,14,0,56,1,1,,,,,,,
,,,,,,0,2.208894691,#f3af84,"[""0"",""0.25""]",up_orange.png,up,,,,,,,,right,right_blue.png,up_orange.png,up,right,up,61364739837a69353c38284a,2021-09-11_16h27.20.944,arrow_simon_vert,2021.1.2,Win32,60.09615385,,,,,,,,,,,,,,,,,,,,,up,1,1.694,58,TRUE,FALSE,14,1,57,1,1,,,,,,,
,,,,,,0,2.352826418,#a3d0fb,"[""-0.25"",""0""]",right_blue.png,right,,,,,,,,right,right_blue.png,up_orange.png,up,left,down,61364739837a69353c38284a,2021-09-11_16h27.20.944,arrow_simon_vert,2021.1.2,Win32,60.09615385,,,,,,,,,,,,,,,,,,,,,left,0,1.6396,59,TRUE,FALSE,14,2,58,0,1,,,,,,,
,,,,,,0,2.499552951,#f3af84,"[""0"",""-0.25""]",down_orange.png,down,,,,,,,,left,left_blue.png,down_orange.png,down,left,down,61364739837a69353c38284a,2021-09-11_16h27.20.944,arrow_simon_vert,2021.1.2,Win32,60.09615385,,,,,,,,,,,,,,,,,,,,,down,1,1.7445,60,TRUE,FALSE,14,3,59,2,1,,,,,,,
,,,,,,,,,,,,,,,,,,,,,,,,,61364739837a69353c38284a,2021-09-11_16h27.20.944,arrow_simon_vert,2021.1.2,Win32,60.09615385,,,,,,,,,,,,,,,,,,,,,,,,,,,,,,,,space,9.5707,2,0,2,0,1
,,,,,,0,1.734696181,#a3d0fb,"[""0.25"",""0""]",right_blue.png,right,,,,,,,,right,right_blue.png,up_orange.png,up,right,up,61364739837a69353c38284a,2021-09-11_16h27.20.944,arrow_simon_vert,2021.1.2,Win32,60.09615385,,,,,,,,,,,,,,,,,,,,,right,1,1.2732,1,FALSE,TRUE,0,0,0,1,1,,,,,,,
,,,,,,0,1.544491405,#f3af84,"[""0"",""0.25""]",up_orange.png,up,,,,,,,,right,right_blue.png,up_orange.png,up,right,up,61364739837a69353c38284a,2021-09-11_16h27.20.944,arrow_simon_vert,2021.1.2,Win32,60.09615385,,,,,,,,,,,,,,,,,,,,,up,1,1.5327,2,FALSE,FALSE,0,1,1,1,1,,,,,,,
,,,,,,0,1.567296492,#a3d0fb,"[""0.25"",""0""]",right_blue.png,right,,,,,,,,right,right_blue.png,up_orange.png,up,right,up,61364739837a69353c38284a,2021-09-11_16h27.20.944,arrow_simon_vert,2021.1.2,Win32,60.09615385,,,,,,,,,,,,,,,,,,,,,right,1,1.4368,3,FALSE,FALSE,0,2,2,1,1,,,,,,,
,,,,,,0,2.484539451,#f3af84,"[""0"",""-0.25""]",down_orange.png,down,,,,,,,,left,left_blue.png,down_orange.png,down,left,down,61364739837a69353c38284a,2021-09-11_16h27.20.944,arrow_simon_vert,2021.1.2,Win32,60.09615385,,,,,,,,,,,,,,,,,,,,,down,1,1.6189,4,TRUE,FALSE,0,3,3,2,1,,,,,,,
,,,,,,0,2.460693828,#a3d0fb,"[""-0.25"",""0""]",right_blue.png,right,,,,,,,,right,right_blue.png,up_orange.png,up,left,down,61364739837a69353c38284a,2021-09-11_16h27.20.944,arrow_simon_vert,2021.1.2,Win32,60.09615385,,,,,,,,,,,,,,,,,,,,,right,1,1.6027,5,TRUE,FALSE,1,0,4,0,1,,,,,,,
,,,,,,0,1.7571567,#f3af84,"[""0"",""0.25""]",down_orange.png,down,,,,,,,,left,left_blue.png,down_orange.png,down,right,up,61364739837a69353c38284a,2021-09-11_16h27.20.944,arrow_simon_vert,2021.1.2,Win32,60.09615385,,,,,,,,,,,,,,,,,,,,,down,1,1.3244,6,FALSE,TRUE,1,1,5,3,1,,,,,,,
,,,,,,0,1.990593409,#a3d0fb,"[""-0.25"",""0""]",right_blue.png,right,,,,,,,,right,right_blue.png,up_orange.png,up,left,down,61364739837a69353c38284a,2021-09-11_16h27.20.944,arrow_simon_vert,2021.1.2,Win32,60.09615385,,,,,,,,,,,,,,,,,,,,,right,1,1.5838,7,FALSE,FALSE,1,2,6,0,1,,,,,,,
,,,,,,0,1.590130709,#f3af84,"[""0"",""-0.25""]",down_orange.png,down,,,,,,,,left,left_blue.png,down_orange.png,down,left,down,61364739837a69353c38284a,2021-09-11_16h27.20.944,arrow_simon_vert,2021.1.2,Win32,60.09615385,,,,,,,,,,,,,,,,,,,,,down,1,1.4512,8,FALSE,FALSE,1,3,7,2,1,,,,,,,
,,,,,,0,1.641490697,#a3d0fb,"[""0.25"",""0""]",left_blue.png,left,,,,,,,,left,left_blue.png,down_orange.png,down,right,up,61364739837a69353c38284a,2021-09-11_16h27.20.944,arrow_simon_vert,2021.1.2,Win32,60.09615385,,,,,,,,,,,,,,,,,,,,,left,1,1.4226,9,FALSE,FALSE,2,0,8,3,1,,,,,,,
,,,,,,0,2.273213935,#f3af84,"[""0"",""-0.25""]",down_orange.png,down,,,,,,,,left,left_blue.png,down_orange.png,down,left,down,61364739837a69353c38284a,2021-09-11_16h27.20.944,arrow_simon_vert,2021.1.2,Win32,60.09615385,,,,,,,,,,,,,,,,,,,,,down,1,1.6424,10,TRUE,FALSE,2,1,9,2,1,,,,,,,
,,,,,,0,2.285014684,#a3d0fb,"[""0.25"",""0""]",left_blue.png,left,,,,,,,,left,left_blue.png,down_orange.png,down,right,up,61364739837a69353c38284a,2021-09-11_16h27.20.944,arrow_simon_vert,2021.1.2,Win32,60.09615385,,,,,,,,,,,,,,,,,,,,,left,1,1.4878,11,FALSE,FALSE,2,2,10,3,1,,,,,,,
,,,,,,0,1.59830475,#f3af84,"[""0"",""-0.25""]",up_orange.png,up,,,,,,,,right,right_blue.png,up_orange.png,up,left,down,61364739837a69353c38284a,2021-09-11_16h27.20.944,arrow_simon_vert,2021.1.2,Win32,60.09615385,,,,,,,,,,,,,,,,,,,,,up,1,1.349,12,FALSE,TRUE,2,3,11,0,1,,,,,,,
,,,,,,0,1.626712561,#a3d0fb,"[""0.25"",""0""]",left_blue.png,left,,,,,,,,left,left_blue.png,down_orange.png,down,right,up,61364739837a69353c38284a,2021-09-11_16h27.20.944,arrow_simon_vert,2021.1.2,Win32,60.09615385,,,,,,,,,,,,,,,,,,,,,left,1,1.1648,13,FALSE,TRUE,3,0,12,3,1,,,,,,,
,,,,,,0,1.7750658,#f3af84,"[""0"",""-0.25""]",up_orange.png,up,,,,,,,,right,right_blue.png,up_orange.png,up,left,down,61364739837a69353c38284a,2021-09-11_16h27.20.944,arrow_simon_vert,2021.1.2,Win32,60.09615385,,,,,,,,,,,,,,,,,,,,,down,0,1.1098,14,FALSE,TRUE,3,1,13,0,1,,,,,,,
,,,,,,0,1.859869984,#a3d0fb,"[""-0.25"",""0""]",right_blue.png,right,,,,,,,,right,right_blue.png,up_orange.png,up,left,down,61364739837a69353c38284a,2021-09-11_16h27.20.944,arrow_simon_vert,2021.1.2,Win32,60.09615385,,,,,,,,,,,,,,,,,,,,,right,1,1.3497,15,FALSE,TRUE,3,2,14,0,1,,,,,,,
