instruct_resp_simon.keys,instruct_resp_simon.corr,instruct_resp_simon.rt,trial_resp_simon.keys,trial_resp_simon.corr,trial_resp_simon.rt,kerr,target_onset,target_color,target_pos,target_file,target_resp,trials_train_simon.thisRepN,trials_train_simon.thisTrialN,trials_train_simon.thisN,trials_train_simon.thisIndex,trials_train_simon.ran,odd_target_pos,even_target_pos,odd_target_resp,odd_target_file,even_target_file,even_target_resp,odd_target_side,even_target_side,participant,date,expName,psychopyVersion,OS,frameRate,train_block_note_resp.keys,train_block_note_resp.rt,blocks_train.thisRepN,blocks_train.thisTrialN,blocks_train.thisN,blocks_train.thisIndex,blocks_train.ran,instruct_resp_timing.keys,instruct_resp_timing.corr,instruct_resp_timing.rt,trial_resp_timing.keys,trial_resp_timing.rt,trials_train_timing.thisRepN,trials_train_timing.thisTrialN,trials_train_timing.thisN,trials_train_timing.thisIndex,trials_train_timing.ran,instruct_resp.keys,instruct_resp.corr,instruct_resp.rt,trial_resp.keys,trial_resp.corr,trial_resp.rt,trial_num,too_slow,too_soon,trials.thisRepN,trials.thisTrialN,trials.thisN,trials.thisIndex,trials.ran,block_note_resp.keys,block_note_resp.rt,blocks.thisRepN,blocks.thisTrialN,blocks.thisN,blocks.thisIndex,blocks.ran
space,0,94.74333,right,1,1.724845,0,0.435077654,#a3d0fb,"[""0.25"",""0""]",right_blue.png,right,0,0,0,1,1,,,right,right_blue.png,up_orange.png,up,right,up,6137bcb30ea0535ab1d702de,2021-09-07_23h07.51.646,arrow_simon_vert,2021.1.2,Win32,60.04563468,,,,,,,,,,,,,,,,,,,,,,,,,,,,,,,,,,,,,,
,,,up,1,2.240515,0,0.994135765,#f3af84,"[""0"",""0.25""]",up_orange.png,up,0,1,1,1,1,,,right,right_blue.png,up_orange.png,up,right,up,6137bcb30ea0535ab1d702de,2021-09-07_23h07.51.646,arrow_simon_vert,2021.1.2,Win32,60.04563468,,,,,,,,,,,,,,,,,,,,,,,,,,,,,,,,,,,,,,
,,,left,1,1.166255,0,0.144625825,#a3d0fb,"[""-0.25"",""0""]",left_blue.png,left,0,2,2,2,1,,,left,left_blue.png,down_orange.png,down,left,down,6137bcb30ea0535ab1d702de,2021-09-07_23h07.51.646,arrow_simon_vert,2021.1.2,Win32,60.04563468,,,,,,,,,,,,,,,,,,,,,,,,,,,,,,,,,,,,,,
,,,down,1,1.58406,0,0.090085588,#f3af84,"[""0"",""0.25""]",down_orange.png,down,0,3,3,3,1,,,left,left_blue.png,down_orange.png,down,right,up,6137bcb30ea0535ab1d702de,2021-09-07_23h07.51.646,arrow_simon_vert,2021.1.2,Win32,60.04563468,,,,,,,,,,,,,,,,,,,,,,,,,,,,,,,,,,,,,,
,,,left,1,1.29982,0,0.13054814,#a3d0fb,"[""0.25"",""0""]",left_blue.png,left,1,0,4,3,1,,,left,left_blue.png,down_orange.png,down,right,up,6137bcb30ea0535ab1d702de,2021-09-07_23h07.51.646,arrow_simon_vert,2021.1.2,Win32,60.04563468,,,,,,,,,,,,,,,,,,,,,,,,,,,,,,,,,,,,,,
,,,up,1,1.11693,0,0.07672462,#f3af84,"[""0"",""0.25""]",up_orange.png,up,1,1,5,1,1,,,right,right_blue.png,up_orange.png,up,right,up,6137bcb30ea0535ab1d702de,2021-09-07_23h07.51.646,arrow_simon_vert,2021.1.2,Win32,60.04563468,,,,,,,,,,,,,,,,,,,,,,,,,,,,,,,,,,,,,,
,,,right,1,1.28383,0,0.276603577,#a3d0fb,"[""-0.25"",""0""]",right_blue.png,right,1,2,6,0,1,,,right,right_blue.png,up_orange.png,up,left,down,6137bcb30ea0535ab1d702de,2021-09-07_23h07.51.646,arrow_simon_vert,2021.1.2,Win32,60.04563468,,,,,,,,,,,,,,,,,,,,,,,,,,,,,,,,,,,,,,
,,,up,1,1.234325,0,0.646874723,#f3af84,"[""0"",""0.25""]",up_orange.png,up,1,3,7,1,1,,,right,right_blue.png,up_orange.png,up,right,up,6137bcb30ea0535ab1d702de,2021-09-07_23h07.51.646,arrow_simon_vert,2021.1.2,Win32,60.04563468,,,,,,,,,,,,,,,,,,,,,,,,,,,,,,,,,,,,,,
,,,right,1,0.866865,0,0.191150641,#a3d0fb,"[""0.25"",""0""]",right_blue.png,right,2,0,8,1,1,,,right,right_blue.png,up_orange.png,up,right,up,6137bcb30ea0535ab1d702de,2021-09-07_23h07.51.646,arrow_simon_vert,2021.1.2,Win32,60.04563468,,,,,,,,,,,,,,,,,,,,,,,,,,,,,,,,,,,,,,
,,,down,1,1.449685,0,0.500726853,#f3af84,"[""0"",""0.25""]",down_orange.png,down,2,1,9,3,1,,,left,left_blue.png,down_orange.png,down,right,up,6137bcb30ea0535ab1d702de,2021-09-07_23h07.51.646,arrow_simon_vert,2021.1.2,Win32,60.04563468,,,,,,,,,,,,,,,,,,,,,,,,,,,,,,,,,,,,,,
,,,left,1,1.56629,0,0.318285288,#a3d0fb,"[""0.25"",""0""]",left_blue.png,left,2,2,10,3,1,,,left,left_blue.png,down_orange.png,down,right,up,6137bcb30ea0535ab1d702de,2021-09-07_23h07.51.646,arrow_simon_vert,2021.1.2,Win32,60.04563468,,,,,,,,,,,,,,,,,,,,,,,,,,,,,,,,,,,,,,
,,,up,1,1.445665,0,0.409842507,#f3af84,"[""0"",""-0.25""]",up_orange.png,up,2,3,11,0,1,,,right,right_blue.png,up_orange.png,up,left,down,6137bcb30ea0535ab1d702de,2021-09-07_23h07.51.646,arrow_simon_vert,2021.1.2,Win32,60.04563468,,,,,,,,,,,,,,,,,,,,,,,,,,,,,,,,,,,,,,
,,,right,1,1.216435,0,0.54124327,#a3d0fb,"[""0.25"",""0""]",right_blue.png,right,3,0,12,1,1,,,right,right_blue.png,up_orange.png,up,right,up,6137bcb30ea0535ab1d702de,2021-09-07_23h07.51.646,arrow_simon_vert,2021.1.2,Win32,60.04563468,,,,,,,,,,,,,,,,,,,,,,,,,,,,,,,,,,,,,,
,,,up,1,1.49296,0,0.504800166,#f3af84,"[""0"",""-0.25""]",up_orange.png,up,3,1,13,0,1,,,right,right_blue.png,up_orange.png,up,left,down,6137bcb30ea0535ab1d702de,2021-09-07_23h07.51.646,arrow_simon_vert,2021.1.2,Win32,60.04563468,,,,,,,,,,,,,,,,,,,,,,,,,,,,,,,,,,,,,,
,,,left,1,1.233195,0,0.456405505,#a3d0fb,"[""-0.25"",""0""]",left_blue.png,left,3,2,14,2,1,,,left,left_blue.png,down_orange.png,down,left,down,6137bcb30ea0535ab1d702de,2021-09-07_23h07.51.646,arrow_simon_vert,2021.1.2,Win32,60.04563468,,,,,,,,,,,,,,,,,,,,,,,,,,,,,,,,,,,,,,
,,,down,1,1.39935,0,0.64424512,#f3af84,"[""0"",""0.25""]",down_orange.png,down,3,3,15,3,1,,,left,left_blue.png,down_orange.png,down,right,up,6137bcb30ea0535ab1d702de,2021-09-07_23h07.51.646,arrow_simon_vert,2021.1.2,Win32,60.04563468,,,,,,,,,,,,,,,,,,,,,,,,,,,,,,,,,,,,,,
,,,right,1,1.482625,0,0.699087953,#a3d0fb,"[""0.25"",""0""]",right_blue.png,right,4,0,16,1,1,,,right,right_blue.png,up_orange.png,up,right,up,6137bcb30ea0535ab1d702de,2021-09-07_23h07.51.646,arrow_simon_vert,2021.1.2,Win32,60.04563468,,,,,,,,,,,,,,,,,,,,,,,,,,,,,,,,,,,,,,
,,,down,1,1.62326,0,0.569770272,#f3af84,"[""0"",""0.25""]",down_orange.png,down,4,1,17,3,1,,,left,left_blue.png,down_orange.png,down,right,up,6137bcb30ea0535ab1d702de,2021-09-07_23h07.51.646,arrow_simon_vert,2021.1.2,Win32,60.04563468,,,,,,,,,,,,,,,,,,,,,,,,,,,,,,,,,,,,,,
,,,left,1,1.52511,0,0.647534584,#a3d0fb,"[""0.25"",""0""]",left_blue.png,left,4,2,18,3,1,,,left,left_blue.png,down_orange.png,down,right,up,6137bcb30ea0535ab1d702de,2021-09-07_23h07.51.646,arrow_simon_vert,2021.1.2,Win32,60.04563468,,,,,,,,,,,,,,,,,,,,,,,,,,,,,,,,,,,,,,
,,,down,1,1.433065,0,0.604789212,#f3af84,"[""0"",""0.25""]",down_orange.png,down,4,3,19,3,1,,,left,left_blue.png,down_orange.png,down,right,up,6137bcb30ea0535ab1d702de,2021-09-07_23h07.51.646,arrow_simon_vert,2021.1.2,Win32,60.04563468,,,,,,,,,,,,,,,,,,,,,,,,,,,,,,,,,,,,,,
,,,right,1,1.58244,0,0.848362995,#a3d0fb,"[""-0.25"",""0""]",right_blue.png,right,5,0,20,0,1,,,right,right_blue.png,up_orange.png,up,left,down,6137bcb30ea0535ab1d702de,2021-09-07_23h07.51.646,arrow_simon_vert,2021.1.2,Win32,60.04563468,,,,,,,,,,,,,,,,,,,,,,,,,,,,,,,,,,,,,,
,,,down,1,1.549955,0,0.834282363,#f3af84,"[""0"",""-0.25""]",down_orange.png,down,5,1,21,2,1,,,left,left_blue.png,down_orange.png,down,left,down,6137bcb30ea0535ab1d702de,2021-09-07_23h07.51.646,arrow_simon_vert,2021.1.2,Win32,60.04563468,,,,,,,,,,,,,,,,,,,,,,,,,,,,,,,,,,,,,,
,,,right,1,1.43288,0,0.89241984,#a3d0fb,"[""0.25"",""0""]",right_blue.png,right,5,2,22,1,1,,,right,right_blue.png,up_orange.png,up,right,up,6137bcb30ea0535ab1d702de,2021-09-07_23h07.51.646,arrow_simon_vert,2021.1.2,Win32,60.04563468,,,,,,,,,,,,,,,,,,,,,,,,,,,,,,,,,,,,,,
,,,up,1,1.40294,0,0.367949747,#f3af84,"[""0"",""-0.25""]",up_orange.png,up,5,3,23,0,1,,,right,right_blue.png,up_orange.png,up,left,down,6137bcb30ea0535ab1d702de,2021-09-07_23h07.51.646,arrow_simon_vert,2021.1.2,Win32,60.04563468,,,,,,,,,,,,,,,,,,,,,,,,,,,,,,,,,,,,,,
,,,left,1,1.648835,0,0.717807178,#a3d0fb,"[""0.25"",""0""]",left_blue.png,left,6,0,24,3,1,,,left,left_blue.png,down_orange.png,down,right,up,6137bcb30ea0535ab1d702de,2021-09-07_23h07.51.646,arrow_simon_vert,2021.1.2,Win32,60.04563468,,,,,,,,,,,,,,,,,,,,,,,,,,,,,,,,,,,,,,
,,,down,1,1.14422,0,0.25498167,#f3af84,"[""0"",""0.25""]",down_orange.png,down,6,1,25,3,1,,,left,left_blue.png,down_orange.png,down,right,up,6137bcb30ea0535ab1d702de,2021-09-07_23h07.51.646,arrow_simon_vert,2021.1.2,Win32,60.04563468,,,,,,,,,,,,,,,,,,,,,,,,,,,,,,,,,,,,,,
,,,right,1,0.89997,0,0.152287428,#a3d0fb,"[""0.25"",""0""]",right_blue.png,right,6,2,26,1,1,,,right,right_blue.png,up_orange.png,up,right,up,6137bcb30ea0535ab1d702de,2021-09-07_23h07.51.646,arrow_simon_vert,2021.1.2,Win32,60.04563468,,,,,,,,,,,,,,,,,,,,,,,,,,,,,,,,,,,,,,
,,,down,1,1.33624,0,0.479677265,#f3af84,"[""0"",""-0.25""]",down_orange.png,down,6,3,27,2,1,,,left,left_blue.png,down_orange.png,down,left,down,6137bcb30ea0535ab1d702de,2021-09-07_23h07.51.646,arrow_simon_vert,2021.1.2,Win32,60.04563468,,,,,,,,,,,,,,,,,,,,,,,,,,,,,,,,,,,,,,
,,,left,1,0.966705,0,0.06450209,#a3d0fb,"[""0.25"",""0""]",left_blue.png,left,7,0,28,3,1,,,left,left_blue.png,down_orange.png,down,right,up,6137bcb30ea0535ab1d702de,2021-09-07_23h07.51.646,arrow_simon_vert,2021.1.2,Win32,60.04563468,,,,,,,,,,,,,,,,,,,,,,,,,,,,,,,,,,,,,,
,,,down,1,0.979615,0,0.355607715,#f3af84,"[""0"",""-0.25""]",down_orange.png,down,7,1,29,2,1,,,left,left_blue.png,down_orange.png,down,left,down,6137bcb30ea0535ab1d702de,2021-09-07_23h07.51.646,arrow_simon_vert,2021.1.2,Win32,60.04563468,,,,,,,,,,,,,,,,,,,,,,,,,,,,,,,,,,,,,,
,,,left,1,1.379435,0,0.637918979,#a3d0fb,"[""-0.25"",""0""]",left_blue.png,left,7,2,30,2,1,,,left,left_blue.png,down_orange.png,down,left,down,6137bcb30ea0535ab1d702de,2021-09-07_23h07.51.646,arrow_simon_vert,2021.1.2,Win32,60.04563468,,,,,,,,,,,,,,,,,,,,,,,,,,,,,,,,,,,,,,
,,,up,1,1.19971,0,0.223939373,#f3af84,"[""0"",""-0.25""]",up_orange.png,up,7,3,31,0,1,,,right,right_blue.png,up_orange.png,up,left,down,6137bcb30ea0535ab1d702de,2021-09-07_23h07.51.646,arrow_simon_vert,2021.1.2,Win32,60.04563468,,,,,,,,,,,,,,,,,,,,,,,,,,,,,,,,,,,,,,
,,,left,1,1.323105,0,0.475930498,#a3d0fb,"[""0.25"",""0""]",left_blue.png,left,8,0,32,3,1,,,left,left_blue.png,down_orange.png,down,right,up,6137bcb30ea0535ab1d702de,2021-09-07_23h07.51.646,arrow_simon_vert,2021.1.2,Win32,60.04563468,,,,,,,,,,,,,,,,,,,,,,,,,,,,,,,,,,,,,,
,,,up,1,1.881935,0,0.460085257,#f3af84,"[""0"",""-0.25""]",up_orange.png,up,8,1,33,0,1,,,right,right_blue.png,up_orange.png,up,left,down,6137bcb30ea0535ab1d702de,2021-09-07_23h07.51.646,arrow_simon_vert,2021.1.2,Win32,60.04563468,,,,,,,,,,,,,,,,,,,,,,,,,,,,,,,,,,,,,,
,,,left,1,1.73009,0,0.939568311,#a3d0fb,"[""-0.25"",""0""]",left_blue.png,left,8,2,34,2,1,,,left,left_blue.png,down_orange.png,down,left,down,6137bcb30ea0535ab1d702de,2021-09-07_23h07.51.646,arrow_simon_vert,2021.1.2,Win32,60.04563468,,,,,,,,,,,,,,,,,,,,,,,,,,,,,,,,,,,,,,
,,,up,1,1.54943,0,0.617121355,#f3af84,"[""0"",""-0.25""]",up_orange.png,up,8,3,35,0,1,,,right,right_blue.png,up_orange.png,up,left,down,6137bcb30ea0535ab1d702de,2021-09-07_23h07.51.646,arrow_simon_vert,2021.1.2,Win32,60.04563468,,,,,,,,,,,,,,,,,,,,,,,,,,,,,,,,,,,,,,
,,,right,1,0.875065,0,0.08686033,#a3d0fb,"[""0.25"",""0""]",right_blue.png,right,9,0,36,1,1,,,right,right_blue.png,up_orange.png,up,right,up,6137bcb30ea0535ab1d702de,2021-09-07_23h07.51.646,arrow_simon_vert,2021.1.2,Win32,60.04563468,,,,,,,,,,,,,,,,,,,,,,,,,,,,,,,,,,,,,,
,,,down,1,1.03331,0,0.139144724,#f3af84,"[""0"",""0.25""]",down_orange.png,down,9,1,37,3,1,,,left,left_blue.png,down_orange.png,down,right,up,6137bcb30ea0535ab1d702de,2021-09-07_23h07.51.646,arrow_simon_vert,2021.1.2,Win32,60.04563468,,,,,,,,,,,,,,,,,,,,,,,,,,,,,,,,,,,,,,
,,,left,1,1.58265,0,0.533053281,#a3d0fb,"[""0.25"",""0""]",left_blue.png,left,9,2,38,3,1,,,left,left_blue.png,down_orange.png,down,right,up,6137bcb30ea0535ab1d702de,2021-09-07_23h07.51.646,arrow_simon_vert,2021.1.2,Win32,60.04563468,,,,,,,,,,,,,,,,,,,,,,,,,,,,,,,,,,,,,,
,,,up,1,1.36352,0,0.444654628,#f3af84,"[""0"",""-0.25""]",up_orange.png,up,9,3,39,0,1,,,right,right_blue.png,up_orange.png,up,left,down,6137bcb30ea0535ab1d702de,2021-09-07_23h07.51.646,arrow_simon_vert,2021.1.2,Win32,60.04563468,,,,,,,,,,,,,,,,,,,,,,,,,,,,,,,,,,,,,,
,,,left,1,1.12863,0,0.387360561,#a3d0fb,"[""-0.25"",""0""]",left_blue.png,left,10,0,40,2,1,,,left,left_blue.png,down_orange.png,down,left,down,6137bcb30ea0535ab1d702de,2021-09-07_23h07.51.646,arrow_simon_vert,2021.1.2,Win32,60.04563468,,,,,,,,,,,,,,,,,,,,,,,,,,,,,,,,,,,,,,
,,,down,1,1.316215,0,0.585687832,#f3af84,"[""0"",""-0.25""]",down_orange.png,down,10,1,41,2,1,,,left,left_blue.png,down_orange.png,down,left,down,6137bcb30ea0535ab1d702de,2021-09-07_23h07.51.646,arrow_simon_vert,2021.1.2,Win32,60.04563468,,,,,,,,,,,,,,,,,,,,,,,,,,,,,,,,,,,,,,
,,,right,1,0.800115,0,0.062795931,#a3d0fb,"[""0.25"",""0""]",right_blue.png,right,10,2,42,1,1,,,right,right_blue.png,up_orange.png,up,right,up,6137bcb30ea0535ab1d702de,2021-09-07_23h07.51.646,arrow_simon_vert,2021.1.2,Win32,60.04563468,,,,,,,,,,,,,,,,,,,,,,,,,,,,,,,,,,,,,,
,,,down,1,1.138085,0,0.280387537,#f3af84,"[""0"",""-0.25""]",down_orange.png,down,10,3,43,2,1,,,left,left_blue.png,down_orange.png,down,left,down,6137bcb30ea0535ab1d702de,2021-09-07_23h07.51.646,arrow_simon_vert,2021.1.2,Win32,60.04563468,,,,,,,,,,,,,,,,,,,,,,,,,,,,,,,,,,,,,,
,,,right,1,1.42503,0,0.647166324,#a3d0fb,"[""0.25"",""0""]",right_blue.png,right,11,0,44,1,1,,,right,right_blue.png,up_orange.png,up,right,up,6137bcb30ea0535ab1d702de,2021-09-07_23h07.51.646,arrow_simon_vert,2021.1.2,Win32,60.04563468,,,,,,,,,,,,,,,,,,,,,,,,,,,,,,,,,,,,,,
,,,up,1,1.83299,0,0.884787138,#f3af84,"[""0"",""-0.25""]",up_orange.png,up,11,1,45,0,1,,,right,right_blue.png,up_orange.png,up,left,down,6137bcb30ea0535ab1d702de,2021-09-07_23h07.51.646,arrow_simon_vert,2021.1.2,Win32,60.04563468,,,,,,,,,,,,,,,,,,,,,,,,,,,,,,,,,,,,,,
,,,right,1,1.56566,0,0.876775579,#a3d0fb,"[""0.25"",""0""]",right_blue.png,right,11,2,46,1,1,,,right,right_blue.png,up_orange.png,up,right,up,6137bcb30ea0535ab1d702de,2021-09-07_23h07.51.646,arrow_simon_vert,2021.1.2,Win32,60.04563468,,,,,,,,,,,,,,,,,,,,,,,,,,,,,,,,,,,,,,
,,,down,1,0.91663,0,0.030225338,#f3af84,"[""0"",""-0.25""]",down_orange.png,down,11,3,47,2,1,,,left,left_blue.png,down_orange.png,down,left,down,6137bcb30ea0535ab1d702de,2021-09-07_23h07.51.646,arrow_simon_vert,2021.1.2,Win32,60.04563468,,,,,,,,,,,,,,,,,,,,,,,,,,,,,,,,,,,,,,
,,,left,1,0.997235,0,0.111377325,#a3d0fb,"[""-0.25"",""0""]",left_blue.png,left,12,0,48,2,1,,,left,left_blue.png,down_orange.png,down,left,down,6137bcb30ea0535ab1d702de,2021-09-07_23h07.51.646,arrow_simon_vert,2021.1.2,Win32,60.04563468,,,,,,,,,,,,,,,,,,,,,,,,,,,,,,,,,,,,,,
,,,up,1,1.878065,0,0.604241364,#f3af84,"[""0"",""-0.25""]",up_orange.png,up,12,1,49,0,1,,,right,right_blue.png,up_orange.png,up,left,down,6137bcb30ea0535ab1d702de,2021-09-07_23h07.51.646,arrow_simon_vert,2021.1.2,Win32,60.04563468,,,,,,,,,,,,,,,,,,,,,,,,,,,,,,,,,,,,,,
,,,left,1,1.5828,0,0.86458495,#a3d0fb,"[""-0.25"",""0""]",left_blue.png,left,12,2,50,2,1,,,left,left_blue.png,down_orange.png,down,left,down,6137bcb30ea0535ab1d702de,2021-09-07_23h07.51.646,arrow_simon_vert,2021.1.2,Win32,60.04563468,,,,,,,,,,,,,,,,,,,,,,,,,,,,,,,,,,,,,,
,,,up,1,1.36987,0,0.317371305,#f3af84,"[""0"",""-0.25""]",up_orange.png,up,12,3,51,0,1,,,right,right_blue.png,up_orange.png,up,left,down,6137bcb30ea0535ab1d702de,2021-09-07_23h07.51.646,arrow_simon_vert,2021.1.2,Win32,60.04563468,,,,,,,,,,,,,,,,,,,,,,,,,,,,,,,,,,,,,,
,,,left,1,1.300235,0,0.441906905,#a3d0fb,"[""0.25"",""0""]",left_blue.png,left,13,0,52,3,1,,,left,left_blue.png,down_orange.png,down,right,up,6137bcb30ea0535ab1d702de,2021-09-07_23h07.51.646,arrow_simon_vert,2021.1.2,Win32,60.04563468,,,,,,,,,,,,,,,,,,,,,,,,,,,,,,,,,,,,,,
,,,up,1,1.549105,0,0.558917741,#f3af84,"[""0"",""-0.25""]",up_orange.png,up,13,1,53,0,1,,,right,right_blue.png,up_orange.png,up,left,down,6137bcb30ea0535ab1d702de,2021-09-07_23h07.51.646,arrow_simon_vert,2021.1.2,Win32,60.04563468,,,,,,,,,,,,,,,,,,,,,,,,,,,,,,,,,,,,,,
,,,right,1,1.20039,0,0.464274091,#a3d0fb,"[""-0.25"",""0""]",right_blue.png,right,13,2,54,0,1,,,right,right_blue.png,up_orange.png,up,left,down,6137bcb30ea0535ab1d702de,2021-09-07_23h07.51.646,arrow_simon_vert,2021.1.2,Win32,60.04563468,,,,,,,,,,,,,,,,,,,,,,,,,,,,,,,,,,,,,,
,,,up,1,1.36653,0,0.355427084,#f3af84,"[""0"",""-0.25""]",up_orange.png,up,13,3,55,0,1,,,right,right_blue.png,up_orange.png,up,left,down,6137bcb30ea0535ab1d702de,2021-09-07_23h07.51.646,arrow_simon_vert,2021.1.2,Win32,60.04563468,,,,,,,,,,,,,,,,,,,,,,,,,,,,,,,,,,,,,,
,,,left,1,1.00021,0,0.010824212,#a3d0fb,"[""-0.25"",""0""]",left_blue.png,left,14,0,56,2,1,,,left,left_blue.png,down_orange.png,down,left,down,6137bcb30ea0535ab1d702de,2021-09-07_23h07.51.646,arrow_simon_vert,2021.1.2,Win32,60.04563468,,,,,,,,,,,,,,,,,,,,,,,,,,,,,,,,,,,,,,
,,,up,1,1.65341,0,0.686294108,#f3af84,"[""0"",""0.25""]",up_orange.png,up,14,1,57,1,1,,,right,right_blue.png,up_orange.png,up,right,up,6137bcb30ea0535ab1d702de,2021-09-07_23h07.51.646,arrow_simon_vert,2021.1.2,Win32,60.04563468,,,,,,,,,,,,,,,,,,,,,,,,,,,,,,,,,,,,,,
,,,right,1,1.150105,0,0.402537959,#a3d0fb,"[""0.25"",""0""]",right_blue.png,right,14,2,58,1,1,,,right,right_blue.png,up_orange.png,up,right,up,6137bcb30ea0535ab1d702de,2021-09-07_23h07.51.646,arrow_simon_vert,2021.1.2,Win32,60.04563468,,,,,,,,,,,,,,,,,,,,,,,,,,,,,,,,,,,,,,
,,,down,1,1.01628,0,0.078571959,#f3af84,"[""0"",""-0.25""]",down_orange.png,down,14,3,59,2,1,,,left,left_blue.png,down_orange.png,down,left,down,6137bcb30ea0535ab1d702de,2021-09-07_23h07.51.646,arrow_simon_vert,2021.1.2,Win32,60.04563468,,,,,,,,,,,,,,,,,,,,,,,,,,,,,,,,,,,,,,
,,,,,,,,,,,,,,,,,,,,,,,,,6137bcb30ea0535ab1d702de,2021-09-07_23h07.51.646,arrow_simon_vert,2021.1.2,Win32,60.04563468,space,35.166805,0,0,0,0,1,,,,,,,,,,,,,,,,,,,,,,,,,,,,,,,
,,,left,1,1.76588,0,0.865149425,#a3d0fb,"[""0.25"",""0""]",left_blue.png,left,0,0,0,3,1,,,left,left_blue.png,down_orange.png,down,right,up,6137bcb30ea0535ab1d702de,2021-09-07_23h07.51.646,arrow_simon_vert,2021.1.2,Win32,60.04563468,,,,,,,,,,,,,,,,,,,,,,,,,,,,,,,,,,,,,,
,,,down,1,1.458325,0,0.549133252,#f3af84,"[""0"",""0.25""]",down_orange.png,down,0,1,1,3,1,,,left,left_blue.png,down_orange.png,down,right,up,6137bcb30ea0535ab1d702de,2021-09-07_23h07.51.646,arrow_simon_vert,2021.1.2,Win32,60.04563468,,,,,,,,,,,,,,,,,,,,,,,,,,,,,,,,,,,,,,
,,,right,1,1.083435,0,0.545317254,#a3d0fb,"[""0.25"",""0""]",right_blue.png,right,0,2,2,1,1,,,right,right_blue.png,up_orange.png,up,right,up,6137bcb30ea0535ab1d702de,2021-09-07_23h07.51.646,arrow_simon_vert,2021.1.2,Win32,60.04563468,,,,,,,,,,,,,,,,,,,,,,,,,,,,,,,,,,,,,,
,,,down,1,1.506415,0,0.80741914,#f3af84,"[""0"",""-0.25""]",down_orange.png,down,0,3,3,2,1,,,left,left_blue.png,down_orange.png,down,left,down,6137bcb30ea0535ab1d702de,2021-09-07_23h07.51.646,arrow_simon_vert,2021.1.2,Win32,60.04563468,,,,,,,,,,,,,,,,,,,,,,,,,,,,,,,,,,,,,,
,,,right,1,1.95117,0,0.711035571,#a3d0fb,"[""-0.25"",""0""]",right_blue.png,right,1,0,4,0,1,,,right,right_blue.png,up_orange.png,up,left,down,6137bcb30ea0535ab1d702de,2021-09-07_23h07.51.646,arrow_simon_vert,2021.1.2,Win32,60.04563468,,,,,,,,,,,,,,,,,,,,,,,,,,,,,,,,,,,,,,
,,,up,1,1.276335,0,0.302610171,#f3af84,"[""0"",""-0.25""]",up_orange.png,up,1,1,5,0,1,,,right,right_blue.png,up_orange.png,up,left,down,6137bcb30ea0535ab1d702de,2021-09-07_23h07.51.646,arrow_simon_vert,2021.1.2,Win32,60.04563468,,,,,,,,,,,,,,,,,,,,,,,,,,,,,,,,,,,,,,
,,,right,1,1.682305,0,0.506473429,#a3d0fb,"[""-0.25"",""0""]",right_blue.png,right,1,2,6,0,1,,,right,right_blue.png,up_orange.png,up,left,down,6137bcb30ea0535ab1d702de,2021-09-07_23h07.51.646,arrow_simon_vert,2021.1.2,Win32,60.04563468,,,,,,,,,,,,,,,,,,,,,,,,,,,,,,,,,,,,,,
,,,down,1,1.833125,0,0.902661322,#f3af84,"[""0"",""-0.25""]",down_orange.png,down,1,3,7,2,1,,,left,left_blue.png,down_orange.png,down,left,down,6137bcb30ea0535ab1d702de,2021-09-07_23h07.51.646,arrow_simon_vert,2021.1.2,Win32,60.04563468,,,,,,,,,,,,,,,,,,,,,,,,,,,,,,,,,,,,,,
,,,left,1,1.515445,0,0.39936875,#a3d0fb,"[""0.25"",""0""]",left_blue.png,left,2,0,8,3,1,,,left,left_blue.png,down_orange.png,down,right,up,6137bcb30ea0535ab1d702de,2021-09-07_23h07.51.646,arrow_simon_vert,2021.1.2,Win32,60.04563468,,,,,,,,,,,,,,,,,,,,,,,,,,,,,,,,,,,,,,
,,,up,1,1.36072,0,0.284889032,#f3af84,"[""0"",""0.25""]",up_orange.png,up,2,1,9,1,1,,,right,right_blue.png,up_orange.png,up,right,up,6137bcb30ea0535ab1d702de,2021-09-07_23h07.51.646,arrow_simon_vert,2021.1.2,Win32,60.04563468,,,,,,,,,,,,,,,,,,,,,,,,,,,,,,,,,,,,,,
,,,right,1,1.69905,0,0.740358878,#a3d0fb,"[""-0.25"",""0""]",right_blue.png,right,2,2,10,0,1,,,right,right_blue.png,up_orange.png,up,left,down,6137bcb30ea0535ab1d702de,2021-09-07_23h07.51.646,arrow_simon_vert,2021.1.2,Win32,60.04563468,,,,,,,,,,,,,,,,,,,,,,,,,,,,,,,,,,,,,,
,,,up,1,1.73596,0,0.925261032,#f3af84,"[""0"",""-0.25""]",up_orange.png,up,2,3,11,0,1,,,right,right_blue.png,up_orange.png,up,left,down,6137bcb30ea0535ab1d702de,2021-09-07_23h07.51.646,arrow_simon_vert,2021.1.2,Win32,60.04563468,,,,,,,,,,,,,,,,,,,,,,,,,,,,,,,,,,,,,,
,,,right,1,1.115785,0,0.45904997,#a3d0fb,"[""0.25"",""0""]",right_blue.png,right,3,0,12,1,1,,,right,right_blue.png,up_orange.png,up,right,up,6137bcb30ea0535ab1d702de,2021-09-07_23h07.51.646,arrow_simon_vert,2021.1.2,Win32,60.04563468,,,,,,,,,,,,,,,,,,,,,,,,,,,,,,,,,,,,,,
,,,down,1,1.249315,0,0.49043785,#f3af84,"[""0"",""-0.25""]",down_orange.png,down,3,1,13,2,1,,,left,left_blue.png,down_orange.png,down,left,down,6137bcb30ea0535ab1d702de,2021-09-07_23h07.51.646,arrow_simon_vert,2021.1.2,Win32,60.04563468,,,,,,,,,,,,,,,,,,,,,,,,,,,,,,,,,,,,,,
,,,right,1,0.98729,0,0.392278377,#a3d0fb,"[""0.25"",""0""]",right_blue.png,right,3,2,14,1,1,,,right,right_blue.png,up_orange.png,up,right,up,6137bcb30ea0535ab1d702de,2021-09-07_23h07.51.646,arrow_simon_vert,2021.1.2,Win32,60.04563468,,,,,,,,,,,,,,,,,,,,,,,,,,,,,,,,,,,,,,
,,,down,1,1.528415,0,0.8187272,#f3af84,"[""0"",""0.25""]",down_orange.png,down,3,3,15,3,1,,,left,left_blue.png,down_orange.png,down,right,up,6137bcb30ea0535ab1d702de,2021-09-07_23h07.51.646,arrow_simon_vert,2021.1.2,Win32,60.04563468,,,,,,,,,,,,,,,,,,,,,,,,,,,,,,,,,,,,,,
,,,left,1,1.616095,0,0.742942836,#a3d0fb,"[""0.25"",""0""]",left_blue.png,left,4,0,16,3,1,,,left,left_blue.png,down_orange.png,down,right,up,6137bcb30ea0535ab1d702de,2021-09-07_23h07.51.646,arrow_simon_vert,2021.1.2,Win32,60.04563468,,,,,,,,,,,,,,,,,,,,,,,,,,,,,,,,,,,,,,
,,,down,1,1.04941,0,0.289130706,#f3af84,"[""0"",""-0.25""]",down_orange.png,down,4,1,17,2,1,,,left,left_blue.png,down_orange.png,down,left,down,6137bcb30ea0535ab1d702de,2021-09-07_23h07.51.646,arrow_simon_vert,2021.1.2,Win32,60.04563468,,,,,,,,,,,,,,,,,,,,,,,,,,,,,,,,,,,,,,
,,,right,1,1.55254,0,0.772222959,#a3d0fb,"[""-0.25"",""0""]",right_blue.png,right,4,2,18,0,1,,,right,right_blue.png,up_orange.png,up,left,down,6137bcb30ea0535ab1d702de,2021-09-07_23h07.51.646,arrow_simon_vert,2021.1.2,Win32,60.04563468,,,,,,,,,,,,,,,,,,,,,,,,,,,,,,,,,,,,,,
,,,down,1,0.983635,0,0.111567531,#f3af84,"[""0"",""0.25""]",down_orange.png,down,4,3,19,3,1,,,left,left_blue.png,down_orange.png,down,right,up,6137bcb30ea0535ab1d702de,2021-09-07_23h07.51.646,arrow_simon_vert,2021.1.2,Win32,60.04563468,,,,,,,,,,,,,,,,,,,,,,,,,,,,,,,,,,,,,,
,,,right,1,1.589445,0,0.775015536,#a3d0fb,"[""-0.25"",""0""]",right_blue.png,right,5,0,20,0,1,,,right,right_blue.png,up_orange.png,up,left,down,6137bcb30ea0535ab1d702de,2021-09-07_23h07.51.646,arrow_simon_vert,2021.1.2,Win32,60.04563468,,,,,,,,,,,,,,,,,,,,,,,,,,,,,,,,,,,,,,
,,,up,1,1.732595,0,0.776103303,#f3af84,"[""0"",""-0.25""]",up_orange.png,up,5,1,21,0,1,,,right,right_blue.png,up_orange.png,up,left,down,6137bcb30ea0535ab1d702de,2021-09-07_23h07.51.646,arrow_simon_vert,2021.1.2,Win32,60.04563468,,,,,,,,,,,,,,,,,,,,,,,,,,,,,,,,,,,,,,
,,,right,1,1.261555,0,0.626859198,#a3d0fb,"[""-0.25"",""0""]",right_blue.png,right,5,2,22,0,1,,,right,right_blue.png,up_orange.png,up,left,down,6137bcb30ea0535ab1d702de,2021-09-07_23h07.51.646,arrow_simon_vert,2021.1.2,Win32,60.04563468,,,,,,,,,,,,,,,,,,,,,,,,,,,,,,,,,,,,,,
,,,up,1,1.46628,0,0.566724421,#f3af84,"[""0"",""-0.25""]",up_orange.png,up,5,3,23,0,1,,,right,right_blue.png,up_orange.png,up,left,down,6137bcb30ea0535ab1d702de,2021-09-07_23h07.51.646,arrow_simon_vert,2021.1.2,Win32,60.04563468,,,,,,,,,,,,,,,,,,,,,,,,,,,,,,,,,,,,,,
,,,right,1,1.349535,0,0.659549911,#a3d0fb,"[""-0.25"",""0""]",right_blue.png,right,6,0,24,0,1,,,right,right_blue.png,up_orange.png,up,left,down,6137bcb30ea0535ab1d702de,2021-09-07_23h07.51.646,arrow_simon_vert,2021.1.2,Win32,60.04563468,,,,,,,,,,,,,,,,,,,,,,,,,,,,,,,,,,,,,,
,,,up,1,1.10146,0,0.409993711,#f3af84,"[""0"",""0.25""]",up_orange.png,up,6,1,25,1,1,,,right,right_blue.png,up_orange.png,up,right,up,6137bcb30ea0535ab1d702de,2021-09-07_23h07.51.646,arrow_simon_vert,2021.1.2,Win32,60.04563468,,,,,,,,,,,,,,,,,,,,,,,,,,,,,,,,,,,,,,
,,,left,1,1.91545,0,0.800585513,#a3d0fb,"[""0.25"",""0""]",left_blue.png,left,6,2,26,3,1,,,left,left_blue.png,down_orange.png,down,right,up,6137bcb30ea0535ab1d702de,2021-09-07_23h07.51.646,arrow_simon_vert,2021.1.2,Win32,60.04563468,,,,,,,,,,,,,,,,,,,,,,,,,,,,,,,,,,,,,,
,,,down,1,0.933175,0,0.040751785,#f3af84,"[""0"",""0.25""]",down_orange.png,down,6,3,27,3,1,,,left,left_blue.png,down_orange.png,down,right,up,6137bcb30ea0535ab1d702de,2021-09-07_23h07.51.646,arrow_simon_vert,2021.1.2,Win32,60.04563468,,,,,,,,,,,,,,,,,,,,,,,,,,,,,,,,,,,,,,
,,,left,1,1.782735,0,0.6411958,#a3d0fb,"[""-0.25"",""0""]",left_blue.png,left,7,0,28,2,1,,,left,left_blue.png,down_orange.png,down,left,down,6137bcb30ea0535ab1d702de,2021-09-07_23h07.51.646,arrow_simon_vert,2021.1.2,Win32,60.04563468,,,,,,,,,,,,,,,,,,,,,,,,,,,,,,,,,,,,,,
,,,up,1,1.116585,0,0.012733629,#f3af84,"[""0"",""-0.25""]",up_orange.png,up,7,1,29,0,1,,,right,right_blue.png,up_orange.png,up,left,down,6137bcb30ea0535ab1d702de,2021-09-07_23h07.51.646,arrow_simon_vert,2021.1.2,Win32,60.04563468,,,,,,,,,,,,,,,,,,,,,,,,,,,,,,,,,,,,,,
,,,left,1,1.536985,0,0.681143153,#a3d0fb,"[""0.25"",""0""]",left_blue.png,left,7,2,30,3,1,,,left,left_blue.png,down_orange.png,down,right,up,6137bcb30ea0535ab1d702de,2021-09-07_23h07.51.646,arrow_simon_vert,2021.1.2,Win32,60.04563468,,,,,,,,,,,,,,,,,,,,,,,,,,,,,,,,,,,,,,
,,,down,1,1.765925,0,0.95392725,#f3af84,"[""0"",""-0.25""]",down_orange.png,down,7,3,31,2,1,,,left,left_blue.png,down_orange.png,down,left,down,6137bcb30ea0535ab1d702de,2021-09-07_23h07.51.646,arrow_simon_vert,2021.1.2,Win32,60.04563468,,,,,,,,,,,,,,,,,,,,,,,,,,,,,,,,,,,,,,
,,,right,1,0.966665,0,0.15731059,#a3d0fb,"[""-0.25"",""0""]",right_blue.png,right,8,0,32,0,1,,,right,right_blue.png,up_orange.png,up,left,down,6137bcb30ea0535ab1d702de,2021-09-07_23h07.51.646,arrow_simon_vert,2021.1.2,Win32,60.04563468,,,,,,,,,,,,,,,,,,,,,,,,,,,,,,,,,,,,,,
,,,down,1,1.283105,0,0.538938393,#f3af84,"[""0"",""0.25""]",down_orange.png,down,8,1,33,3,1,,,left,left_blue.png,down_orange.png,down,right,up,6137bcb30ea0535ab1d702de,2021-09-07_23h07.51.646,arrow_simon_vert,2021.1.2,Win32,60.04563468,,,,,,,,,,,,,,,,,,,,,,,,,,,,,,,,,,,,,,
,,,left,1,1.40841,0,0.627232585,#a3d0fb,"[""-0.25"",""0""]",left_blue.png,left,8,2,34,2,1,,,left,left_blue.png,down_orange.png,down,left,down,6137bcb30ea0535ab1d702de,2021-09-07_23h07.51.646,arrow_simon_vert,2021.1.2,Win32,60.04563468,,,,,,,,,,,,,,,,,,,,,,,,,,,,,,,,,,,,,,
,,,down,1,1.026875,0,0.362666988,#f3af84,"[""0"",""-0.25""]",down_orange.png,down,8,3,35,2,1,,,left,left_blue.png,down_orange.png,down,left,down,6137bcb30ea0535ab1d702de,2021-09-07_23h07.51.646,arrow_simon_vert,2021.1.2,Win32,60.04563468,,,,,,,,,,,,,,,,,,,,,,,,,,,,,,,,,,,,,,
,,,left,1,1.0003,0,0.203050691,#a3d0fb,"[""-0.25"",""0""]",left_blue.png,left,9,0,36,2,1,,,left,left_blue.png,down_orange.png,down,left,down,6137bcb30ea0535ab1d702de,2021-09-07_23h07.51.646,arrow_simon_vert,2021.1.2,Win32,60.04563468,,,,,,,,,,,,,,,,,,,,,,,,,,,,,,,,,,,,,,
,,,down,1,1.18308,0,0.523943824,#f3af84,"[""0"",""-0.25""]",down_orange.png,down,9,1,37,2,1,,,left,left_blue.png,down_orange.png,down,left,down,6137bcb30ea0535ab1d702de,2021-09-07_23h07.51.646,arrow_simon_vert,2021.1.2,Win32,60.04563468,,,,,,,,,,,,,,,,,,,,,,,,,,,,,,,,,,,,,,
,,,right,1,0.964925,0,0.109316543,#a3d0fb,"[""-0.25"",""0""]",right_blue.png,right,9,2,38,0,1,,,right,right_blue.png,up_orange.png,up,left,down,6137bcb30ea0535ab1d702de,2021-09-07_23h07.51.646,arrow_simon_vert,2021.1.2,Win32,60.04563468,,,,,,,,,,,,,,,,,,,,,,,,,,,,,,,,,,,,,,
,,,down,1,1.81582,0,0.890078357,#f3af84,"[""0"",""-0.25""]",down_orange.png,down,9,3,39,2,1,,,left,left_blue.png,down_orange.png,down,left,down,6137bcb30ea0535ab1d702de,2021-09-07_23h07.51.646,arrow_simon_vert,2021.1.2,Win32,60.04563468,,,,,,,,,,,,,,,,,,,,,,,,,,,,,,,,,,,,,,
,,,right,1,1.573855,0,0.884205154,#a3d0fb,"[""0.25"",""0""]",right_blue.png,right,10,0,40,1,1,,,right,right_blue.png,up_orange.png,up,right,up,6137bcb30ea0535ab1d702de,2021-09-07_23h07.51.646,arrow_simon_vert,2021.1.2,Win32,60.04563468,,,,,,,,,,,,,,,,,,,,,,,,,,,,,,,,,,,,,,
,,,down,1,1.79907,0,0.912453744,#f3af84,"[""0"",""0.25""]",down_orange.png,down,10,1,41,3,1,,,left,left_blue.png,down_orange.png,down,right,up,6137bcb30ea0535ab1d702de,2021-09-07_23h07.51.646,arrow_simon_vert,2021.1.2,Win32,60.04563468,,,,,,,,,,,,,,,,,,,,,,,,,,,,,,,,,,,,,,
,,,left,1,1.749345,0,0.73487287,#a3d0fb,"[""0.25"",""0""]",left_blue.png,left,10,2,42,3,1,,,left,left_blue.png,down_orange.png,down,right,up,6137bcb30ea0535ab1d702de,2021-09-07_23h07.51.646,arrow_simon_vert,2021.1.2,Win32,60.04563468,,,,,,,,,,,,,,,,,,,,,,,,,,,,,,,,,,,,,,
,,,up,1,2.065255,0,0.917629967,#f3af84,"[""0"",""0.25""]",up_orange.png,up,10,3,43,1,1,,,right,right_blue.png,up_orange.png,up,right,up,6137bcb30ea0535ab1d702de,2021-09-07_23h07.51.646,arrow_simon_vert,2021.1.2,Win32,60.04563468,,,,,,,,,,,,,,,,,,,,,,,,,,,,,,,,,,,,,,
,,,left,1,1.77558,0,0.703084717,#a3d0fb,"[""-0.25"",""0""]",left_blue.png,left,11,0,44,2,1,,,left,left_blue.png,down_orange.png,down,left,down,6137bcb30ea0535ab1d702de,2021-09-07_23h07.51.646,arrow_simon_vert,2021.1.2,Win32,60.04563468,,,,,,,,,,,,,,,,,,,,,,,,,,,,,,,,,,,,,,
,,,up,1,1.649605,0,0.655930312,#f3af84,"[""0"",""0.25""]",up_orange.png,up,11,1,45,1,1,,,right,right_blue.png,up_orange.png,up,right,up,6137bcb30ea0535ab1d702de,2021-09-07_23h07.51.646,arrow_simon_vert,2021.1.2,Win32,60.04563468,,,,,,,,,,,,,,,,,,,,,,,,,,,,,,,,,,,,,,
,,,left,1,1.51621,0,0.67779663,#a3d0fb,"[""0.25"",""0""]",left_blue.png,left,11,2,46,3,1,,,left,left_blue.png,down_orange.png,down,right,up,6137bcb30ea0535ab1d702de,2021-09-07_23h07.51.646,arrow_simon_vert,2021.1.2,Win32,60.04563468,,,,,,,,,,,,,,,,,,,,,,,,,,,,,,,,,,,,,,
,,,down,1,1.649695,0,0.872216946,#f3af84,"[""0"",""-0.25""]",down_orange.png,down,11,3,47,2,1,,,left,left_blue.png,down_orange.png,down,left,down,6137bcb30ea0535ab1d702de,2021-09-07_23h07.51.646,arrow_simon_vert,2021.1.2,Win32,60.04563468,,,,,,,,,,,,,,,,,,,,,,,,,,,,,,,,,,,,,,
,,,right,1,0.727415,0,0.085501105,#a3d0fb,"[""0.25"",""0""]",right_blue.png,right,12,0,48,1,1,,,right,right_blue.png,up_orange.png,up,right,up,6137bcb30ea0535ab1d702de,2021-09-07_23h07.51.646,arrow_simon_vert,2021.1.2,Win32,60.04563468,,,,,,,,,,,,,,,,,,,,,,,,,,,,,,,,,,,,,,
,,,up,1,1.033395,0,0.04943318,#f3af84,"[""0"",""0.25""]",up_orange.png,up,12,1,49,1,1,,,right,right_blue.png,up_orange.png,up,right,up,6137bcb30ea0535ab1d702de,2021-09-07_23h07.51.646,arrow_simon_vert,2021.1.2,Win32,60.04563468,,,,,,,,,,,,,,,,,,,,,,,,,,,,,,,,,,,,,,
,,,left,1,1.449865,0,0.584848139,#a3d0fb,"[""0.25"",""0""]",left_blue.png,left,12,2,50,3,1,,,left,left_blue.png,down_orange.png,down,right,up,6137bcb30ea0535ab1d702de,2021-09-07_23h07.51.646,arrow_simon_vert,2021.1.2,Win32,60.04563468,,,,,,,,,,,,,,,,,,,,,,,,,,,,,,,,,,,,,,
,,,up,1,1.316155,0,0.313210015,#f3af84,"[""0"",""-0.25""]",up_orange.png,up,12,3,51,0,1,,,right,right_blue.png,up_orange.png,up,left,down,6137bcb30ea0535ab1d702de,2021-09-07_23h07.51.646,arrow_simon_vert,2021.1.2,Win32,60.04563468,,,,,,,,,,,,,,,,,,,,,,,,,,,,,,,,,,,,,,
,,,left,1,1.57384,0,0.745617495,#a3d0fb,"[""-0.25"",""0""]",left_blue.png,left,13,0,52,2,1,,,left,left_blue.png,down_orange.png,down,left,down,6137bcb30ea0535ab1d702de,2021-09-07_23h07.51.646,arrow_simon_vert,2021.1.2,Win32,60.04563468,,,,,,,,,,,,,,,,,,,,,,,,,,,,,,,,,,,,,,
,,,up,1,1.25978,0,0.382513817,#f3af84,"[""0"",""0.25""]",up_orange.png,up,13,1,53,1,1,,,right,right_blue.png,up_orange.png,up,right,up,6137bcb30ea0535ab1d702de,2021-09-07_23h07.51.646,arrow_simon_vert,2021.1.2,Win32,60.04563468,,,,,,,,,,,,,,,,,,,,,,,,,,,,,,,,,,,,,,
,,,right,1,1.411605,0,0.775245726,#a3d0fb,"[""0.25"",""0""]",right_blue.png,right,13,2,54,1,1,,,right,right_blue.png,up_orange.png,up,right,up,6137bcb30ea0535ab1d702de,2021-09-07_23h07.51.646,arrow_simon_vert,2021.1.2,Win32,60.04563468,,,,,,,,,,,,,,,,,,,,,,,,,,,,,,,,,,,,,,
,,,down,1,1.16654,0,0.361159947,#f3af84,"[""0"",""0.25""]",down_orange.png,down,13,3,55,3,1,,,left,left_blue.png,down_orange.png,down,right,up,6137bcb30ea0535ab1d702de,2021-09-07_23h07.51.646,arrow_simon_vert,2021.1.2,Win32,60.04563468,,,,,,,,,,,,,,,,,,,,,,,,,,,,,,,,,,,,,,
,,,right,1,1.64518,0,0.972121316,#a3d0fb,"[""0.25"",""0""]",right_blue.png,right,14,0,56,1,1,,,right,right_blue.png,up_orange.png,up,right,up,6137bcb30ea0535ab1d702de,2021-09-07_23h07.51.646,arrow_simon_vert,2021.1.2,Win32,60.04563468,,,,,,,,,,,,,,,,,,,,,,,,,,,,,,,,,,,,,,
,,,down,1,1.34187,0,0.6148322,#f3af84,"[""0"",""-0.25""]",down_orange.png,down,14,1,57,2,1,,,left,left_blue.png,down_orange.png,down,left,down,6137bcb30ea0535ab1d702de,2021-09-07_23h07.51.646,arrow_simon_vert,2021.1.2,Win32,60.04563468,,,,,,,,,,,,,,,,,,,,,,,,,,,,,,,,,,,,,,
,,,right,1,1.066875,0,0.483092087,#a3d0fb,"[""0.25"",""0""]",right_blue.png,right,14,2,58,1,1,,,right,right_blue.png,up_orange.png,up,right,up,6137bcb30ea0535ab1d702de,2021-09-07_23h07.51.646,arrow_simon_vert,2021.1.2,Win32,60.04563468,,,,,,,,,,,,,,,,,,,,,,,,,,,,,,,,,,,,,,
,,,up,1,1.465155,0,0.378599781,#f3af84,"[""0"",""0.25""]",up_orange.png,up,14,3,59,1,1,,,right,right_blue.png,up_orange.png,up,right,up,6137bcb30ea0535ab1d702de,2021-09-07_23h07.51.646,arrow_simon_vert,2021.1.2,Win32,60.04563468,,,,,,,,,,,,,,,,,,,,,,,,,,,,,,,,,,,,,,
,,,,,,,,,,,,,,,,,,,,,,,,,6137bcb30ea0535ab1d702de,2021-09-07_23h07.51.646,arrow_simon_vert,2021.1.2,Win32,60.04563468,space,12.788465,1,0,1,0,1,,,,,,,,,,,,,,,,,,,,,,,,,,,,,,,
,,,,,,,,,,,,,,,,,,,,,,,,,6137bcb30ea0535ab1d702de,2021-09-07_23h07.51.646,arrow_simon_vert,2021.1.2,Win32,60.04563468,,,,,,,,space,0,70.098845,down,2.981645,0,0,0,0,1,,,,,,,,,,,,,,,,,,,,,
,,,,,,,,,,,,,,,,,,,,,,,,,6137bcb30ea0535ab1d702de,2021-09-07_23h07.51.646,arrow_simon_vert,2021.1.2,Win32,60.04563468,,,,,,,,,,,up,2.91406,1,0,1,0,1,,,,,,,,,,,,,,,,,,,,,
,,,,,,,,,,,,,,,,,,,,,,,,,6137bcb30ea0535ab1d702de,2021-09-07_23h07.51.646,arrow_simon_vert,2021.1.2,Win32,60.04563468,,,,,,,,,,,right,2.96487,2,0,2,0,1,,,,,,,,,,,,,,,,,,,,,
,,,,,,,,,,,,,,,,,,,,,,,,,6137bcb30ea0535ab1d702de,2021-09-07_23h07.51.646,arrow_simon_vert,2021.1.2,Win32,60.04563468,,,,,,,,,,,down,2.665325,3,0,3,0,1,,,,,,,,,,,,,,,,,,,,,
,,,,,,,,,,,,,,,,,,,,,,,,,6137bcb30ea0535ab1d702de,2021-09-07_23h07.51.646,arrow_simon_vert,2021.1.2,Win32,60.04563468,,,,,,,,,,,up,2.430505,4,0,4,0,1,,,,,,,,,,,,,,,,,,,,,
,,,,,,,,,,,,,,,,,,,,,,,,,6137bcb30ea0535ab1d702de,2021-09-07_23h07.51.646,arrow_simon_vert,2021.1.2,Win32,60.04563468,,,,,,,,,,,right,2.54886,5,0,5,0,1,,,,,,,,,,,,,,,,,,,,,
,,,,,,,,,,,,,,,,,,,,,,,,,6137bcb30ea0535ab1d702de,2021-09-07_23h07.51.646,arrow_simon_vert,2021.1.2,Win32,60.04563468,,,,,,,,,,,left,2.865445,6,0,6,0,1,,,,,,,,,,,,,,,,,,,,,
,,,,,,,,,,,,,,,,,,,,,,,,,6137bcb30ea0535ab1d702de,2021-09-07_23h07.51.646,arrow_simon_vert,2021.1.2,Win32,60.04563468,,,,,,,,,,,down,2.82846,7,0,7,0,1,,,,,,,,,,,,,,,,,,,,,
,,,,,,,,,,,,,,,,,,,,,,,,,6137bcb30ea0535ab1d702de,2021-09-07_23h07.51.646,arrow_simon_vert,2021.1.2,Win32,60.04563468,,,,,,,,,,,down,2.748355,8,0,8,0,1,,,,,,,,,,,,,,,,,,,,,
,,,,,,,,,,,,,,,,,,,,,,,,,6137bcb30ea0535ab1d702de,2021-09-07_23h07.51.646,arrow_simon_vert,2021.1.2,Win32,60.04563468,,,,,,,,,,,down,2.731815,9,0,9,0,1,,,,,,,,,,,,,,,,,,,,,
,,,,,,,,,,,,,,,,,,,,,,,,,6137bcb30ea0535ab1d702de,2021-09-07_23h07.51.646,arrow_simon_vert,2021.1.2,Win32,60.04563468,,,,,,,,,,,right,2.82191,10,0,10,0,1,,,,,,,,,,,,,,,,,,,,,
,,,,,,,,,,,,,,,,,,,,,,,,,6137bcb30ea0535ab1d702de,2021-09-07_23h07.51.646,arrow_simon_vert,2021.1.2,Win32,60.04563468,,,,,,,,,,,up,2.45024,11,0,11,0,1,,,,,,,,,,,,,,,,,,,,,
,,,,,,,,,,,,,,,,,,,,,,,,,6137bcb30ea0535ab1d702de,2021-09-07_23h07.51.646,arrow_simon_vert,2021.1.2,Win32,60.04563468,,,,,,,,,,,up,2.315245,12,0,12,0,1,,,,,,,,,,,,,,,,,,,,,
,,,,,,,,,,,,,,,,,,,,,,,,,6137bcb30ea0535ab1d702de,2021-09-07_23h07.51.646,arrow_simon_vert,2021.1.2,Win32,60.04563468,,,,,,,,,,,left,2.694815,13,0,13,0,1,,,,,,,,,,,,,,,,,,,,,
,,,,,,,,,,,,,,,,,,,,,,,,,6137bcb30ea0535ab1d702de,2021-09-07_23h07.51.646,arrow_simon_vert,2021.1.2,Win32,60.04563468,,,,,,,,,,,right,2.83941,14,0,14,0,1,,,,,,,,,,,,,,,,,,,,,
,,,,,,,,,,,,,,,,,,,,,,,,,6137bcb30ea0535ab1d702de,2021-09-07_23h07.51.646,arrow_simon_vert,2021.1.2,Win32,60.04563468,,,,,,,,,,,down,2.015835,15,0,15,0,1,,,,,,,,,,,,,,,,,,,,,
,,,,,,,,,,,,,,,,,,,,,,,,,6137bcb30ea0535ab1d702de,2021-09-07_23h07.51.646,arrow_simon_vert,2021.1.2,Win32,60.04563468,,,,,,,,,,,up,2.84835,16,0,16,0,1,,,,,,,,,,,,,,,,,,,,,
,,,,,,,,,,,,,,,,,,,,,,,,,6137bcb30ea0535ab1d702de,2021-09-07_23h07.51.646,arrow_simon_vert,2021.1.2,Win32,60.04563468,,,,,,,,,,,right,2.726375,17,0,17,0,1,,,,,,,,,,,,,,,,,,,,,
,,,,,,,,,,,,,,,,,,,,,,,,,6137bcb30ea0535ab1d702de,2021-09-07_23h07.51.646,arrow_simon_vert,2021.1.2,Win32,60.04563468,,,,,,,,,,,left,2.645995,18,0,18,0,1,,,,,,,,,,,,,,,,,,,,,
,,,,,,,,,,,,,,,,,,,,,,,,,6137bcb30ea0535ab1d702de,2021-09-07_23h07.51.646,arrow_simon_vert,2021.1.2,Win32,60.04563468,,,,,,,,,,,down,2.847915,19,0,19,0,1,,,,,,,,,,,,,,,,,,,,,
,,,,,,,,,,,,,,,,,,,,,,,,,6137bcb30ea0535ab1d702de,2021-09-07_23h07.51.646,arrow_simon_vert,2021.1.2,Win32,60.04563468,,,,,,,,,,,down,2.703905,20,0,20,0,1,,,,,,,,,,,,,,,,,,,,,
,,,,,,,,,,,,,,,,,,,,,,,,,6137bcb30ea0535ab1d702de,2021-09-07_23h07.51.646,arrow_simon_vert,2021.1.2,Win32,60.04563468,,,,,,,,,,,right,2.83143,21,0,21,0,1,,,,,,,,,,,,,,,,,,,,,
,,,,,,,,,,,,,,,,,,,,,,,,,6137bcb30ea0535ab1d702de,2021-09-07_23h07.51.646,arrow_simon_vert,2021.1.2,Win32,60.04563468,,,,,,,,,,,left,2.389325,22,0,22,0,1,,,,,,,,,,,,,,,,,,,,,
,,,,,,,,,,,,,,,,,,,,,,,,,6137bcb30ea0535ab1d702de,2021-09-07_23h07.51.646,arrow_simon_vert,2021.1.2,Win32,60.04563468,,,,,,,,,,,down,2.20904,23,0,23,0,1,,,,,,,,,,,,,,,,,,,,,
,,,,,,,,,,,,,,,,,,,,,,,,,6137bcb30ea0535ab1d702de,2021-09-07_23h07.51.646,arrow_simon_vert,2021.1.2,Win32,60.04563468,,,,,,,,,,,down,2.697965,24,0,24,0,1,,,,,,,,,,,,,,,,,,,,,
,,,,,,,,,,,,,,,,,,,,,,,,,6137bcb30ea0535ab1d702de,2021-09-07_23h07.51.646,arrow_simon_vert,2021.1.2,Win32,60.04563468,,,,,,,,,,,right,2.831565,25,0,25,0,1,,,,,,,,,,,,,,,,,,,,,
,,,,,,,,,,,,,,,,,,,,,,,,,6137bcb30ea0535ab1d702de,2021-09-07_23h07.51.646,arrow_simon_vert,2021.1.2,Win32,60.04563468,,,,,,,,,,,up,2.212535,26,0,26,0,1,,,,,,,,,,,,,,,,,,,,,
,,,,,,,,,,,,,,,,,,,,,,,,,6137bcb30ea0535ab1d702de,2021-09-07_23h07.51.646,arrow_simon_vert,2021.1.2,Win32,60.04563468,,,,,,,,,,,left,2.564835,27,0,27,0,1,,,,,,,,,,,,,,,,,,,,,
,,,,,,,,,,,,,,,,,,,,,,,,,6137bcb30ea0535ab1d702de,2021-09-07_23h07.51.646,arrow_simon_vert,2021.1.2,Win32,60.04563468,,,,,,,,,,,down,2.76483,28,0,28,0,1,,,,,,,,,,,,,,,,,,,,,
,,,,,,,,,,,,,,,,,,,,,,,,,6137bcb30ea0535ab1d702de,2021-09-07_23h07.51.646,arrow_simon_vert,2021.1.2,Win32,60.04563468,,,,,,,,,,,up,2.76454,29,0,29,0,1,,,,,,,,,,,,,,,,,,,,,
,,,,,,,,,,,,,,,,,,,,,,,,,6137bcb30ea0535ab1d702de,2021-09-07_23h07.51.646,arrow_simon_vert,2021.1.2,Win32,60.04563468,,,,,,,,,,,down,2.911725,30,0,30,0,1,,,,,,,,,,,,,,,,,,,,,
,,,,,,,,,,,,,,,,,,,,,,,,,6137bcb30ea0535ab1d702de,2021-09-07_23h07.51.646,arrow_simon_vert,2021.1.2,Win32,60.04563468,,,,,,,,,,,right,2.84833,31,0,31,0,1,,,,,,,,,,,,,,,,,,,,,
,,,,,,,,,,,,,,,,,,,,,,,,,6137bcb30ea0535ab1d702de,2021-09-07_23h07.51.646,arrow_simon_vert,2021.1.2,Win32,60.04563468,,,,,,,,,,,up,2.39803,32,0,32,0,1,,,,,,,,,,,,,,,,,,,,,
,,,,,,,,,,,,,,,,,,,,,,,,,6137bcb30ea0535ab1d702de,2021-09-07_23h07.51.646,arrow_simon_vert,2021.1.2,Win32,60.04563468,,,,,,,,,,,right,2.69878,33,0,33,0,1,,,,,,,,,,,,,,,,,,,,,
,,,,,,,,,,,,,,,,,,,,,,,,,6137bcb30ea0535ab1d702de,2021-09-07_23h07.51.646,arrow_simon_vert,2021.1.2,Win32,60.04563468,,,,,,,,,,,right,2.425485,34,0,34,0,1,,,,,,,,,,,,,,,,,,,,,
,,,,,,,,,,,,,,,,,,,,,,,,,6137bcb30ea0535ab1d702de,2021-09-07_23h07.51.646,arrow_simon_vert,2021.1.2,Win32,60.04563468,,,,,,,,,,,right,2.72929,35,0,35,0,1,,,,,,,,,,,,,,,,,,,,,
,,,,,,,,,,,,,,,,,,,,,,,,,6137bcb30ea0535ab1d702de,2021-09-07_23h07.51.646,arrow_simon_vert,2021.1.2,Win32,60.04563468,,,,,,,,,,,right,2.781475,36,0,36,0,1,,,,,,,,,,,,,,,,,,,,,
,,,,,,,,,,,,,,,,,,,,,,,,,6137bcb30ea0535ab1d702de,2021-09-07_23h07.51.646,arrow_simon_vert,2021.1.2,Win32,60.04563468,,,,,,,,,,,up,2.781635,37,0,37,0,1,,,,,,,,,,,,,,,,,,,,,
,,,,,,,,,,,,,,,,,,,,,,,,,6137bcb30ea0535ab1d702de,2021-09-07_23h07.51.646,arrow_simon_vert,2021.1.2,Win32,60.04563468,,,,,,,,,,,right,2.191925,38,0,38,0,1,,,,,,,,,,,,,,,,,,,,,
,,,,,,,,,,,,,,,,,,,,,,,,,6137bcb30ea0535ab1d702de,2021-09-07_23h07.51.646,arrow_simon_vert,2021.1.2,Win32,60.04563468,,,,,,,,,,,up,2.598595,39,0,39,0,1,,,,,,,,,,,,,,,,,,,,,
,,,,,,,,,,,,,,,,,,,,,,,,,6137bcb30ea0535ab1d702de,2021-09-07_23h07.51.646,arrow_simon_vert,2021.1.2,Win32,60.04563468,,,,,,,,,,,right,2.4147,40,0,40,0,1,,,,,,,,,,,,,,,,,,,,,
,,,,,,,,,,,,,,,,,,,,,,,,,6137bcb30ea0535ab1d702de,2021-09-07_23h07.51.646,arrow_simon_vert,2021.1.2,Win32,60.04563468,,,,,,,,,,,up,2.23264,41,0,41,0,1,,,,,,,,,,,,,,,,,,,,,
,,,,,,,,,,,,,,,,,,,,,,,,,6137bcb30ea0535ab1d702de,2021-09-07_23h07.51.646,arrow_simon_vert,2021.1.2,Win32,60.04563468,,,,,,,,,,,right,2.23555,42,0,42,0,1,,,,,,,,,,,,,,,,,,,,,
,,,,,,,,,,,,,,,,,,,,,,,,,6137bcb30ea0535ab1d702de,2021-09-07_23h07.51.646,arrow_simon_vert,2021.1.2,Win32,60.04563468,,,,,,,,,,,up,2.349495,43,0,43,0,1,,,,,,,,,,,,,,,,,,,,,
,,,,,,,,,,,,,,,,,,,,,,,,,6137bcb30ea0535ab1d702de,2021-09-07_23h07.51.646,arrow_simon_vert,2021.1.2,Win32,60.04563468,,,,,,,,,,,right,2.581965,44,0,44,0,1,,,,,,,,,,,,,,,,,,,,,
,,,,,,,,,,,,,,,,,,,,,,,,,6137bcb30ea0535ab1d702de,2021-09-07_23h07.51.646,arrow_simon_vert,2021.1.2,Win32,60.04563468,,,,,,,,,,,up,2.440985,45,0,45,0,1,,,,,,,,,,,,,,,,,,,,,
,,,,,,,,,,,,,,,,,,,,,,,,,6137bcb30ea0535ab1d702de,2021-09-07_23h07.51.646,arrow_simon_vert,2021.1.2,Win32,60.04563468,,,,,,,,,,,right,2.398575,46,0,46,0,1,,,,,,,,,,,,,,,,,,,,,
,,,,,,,,,,,,,,,,,,,,,,,,,6137bcb30ea0535ab1d702de,2021-09-07_23h07.51.646,arrow_simon_vert,2021.1.2,Win32,60.04563468,,,,,,,,,,,up,2.54476,47,0,47,0,1,,,,,,,,,,,,,,,,,,,,,
,,,,,,,,,,,,,,,,,,,,,,,,,6137bcb30ea0535ab1d702de,2021-09-07_23h07.51.646,arrow_simon_vert,2021.1.2,Win32,60.04563468,,,,,,,,,,,right,2.488815,48,0,48,0,1,,,,,,,,,,,,,,,,,,,,,
,,,,,,,,,,,,,,,,,,,,,,,,,6137bcb30ea0535ab1d702de,2021-09-07_23h07.51.646,arrow_simon_vert,2021.1.2,Win32,60.04563468,,,,,,,,,,,up,2.591525,49,0,49,0,1,,,,,,,,,,,,,,,,,,,,,
,,,,,,,,,,,,,,,,,,,,,,,,,6137bcb30ea0535ab1d702de,2021-09-07_23h07.51.646,arrow_simon_vert,2021.1.2,Win32,60.04563468,,,,,,,,,,,right,2.320375,50,0,50,0,1,,,,,,,,,,,,,,,,,,,,,
,,,,,,,,,,,,,,,,,,,,,,,,,6137bcb30ea0535ab1d702de,2021-09-07_23h07.51.646,arrow_simon_vert,2021.1.2,Win32,60.04563468,,,,,,,,,,,up,2.41917,51,0,51,0,1,,,,,,,,,,,,,,,,,,,,,
,,,,,,,,,,,,,,,,,,,,,,,,,6137bcb30ea0535ab1d702de,2021-09-07_23h07.51.646,arrow_simon_vert,2021.1.2,Win32,60.04563468,,,,,,,,,,,right,2.365655,52,0,52,0,1,,,,,,,,,,,,,,,,,,,,,
,,,,,,,,,,,,,,,,,,,,,,,,,6137bcb30ea0535ab1d702de,2021-09-07_23h07.51.646,arrow_simon_vert,2021.1.2,Win32,60.04563468,,,,,,,,,,,up,2.548635,53,0,53,0,1,,,,,,,,,,,,,,,,,,,,,
,,,,,,,,,,,,,,,,,,,,,,,,,6137bcb30ea0535ab1d702de,2021-09-07_23h07.51.646,arrow_simon_vert,2021.1.2,Win32,60.04563468,,,,,,,,,,,right,2.4821,54,0,54,0,1,,,,,,,,,,,,,,,,,,,,,
,,,,,,,,,,,,,,,,,,,,,,,,,6137bcb30ea0535ab1d702de,2021-09-07_23h07.51.646,arrow_simon_vert,2021.1.2,Win32,60.04563468,,,,,,,,,,,up,2.39666,55,0,55,0,1,,,,,,,,,,,,,,,,,,,,,
,,,,,,,,,,,,,,,,,,,,,,,,,6137bcb30ea0535ab1d702de,2021-09-07_23h07.51.646,arrow_simon_vert,2021.1.2,Win32,60.04563468,,,,,,,,,,,right,2.415495,56,0,56,0,1,,,,,,,,,,,,,,,,,,,,,
,,,,,,,,,,,,,,,,,,,,,,,,,6137bcb30ea0535ab1d702de,2021-09-07_23h07.51.646,arrow_simon_vert,2021.1.2,Win32,60.04563468,,,,,,,,,,,up,2.532175,57,0,57,0,1,,,,,,,,,,,,,,,,,,,,,
,,,,,,,,,,,,,,,,,,,,,,,,,6137bcb30ea0535ab1d702de,2021-09-07_23h07.51.646,arrow_simon_vert,2021.1.2,Win32,60.04563468,,,,,,,,,,,right,2.515255,58,0,58,0,1,,,,,,,,,,,,,,,,,,,,,
,,,,,,,,,,,,,,,,,,,,,,,,,6137bcb30ea0535ab1d702de,2021-09-07_23h07.51.646,arrow_simon_vert,2021.1.2,Win32,60.04563468,,,,,,,,,,,up,2.46494,59,0,59,0,1,,,,,,,,,,,,,,,,,,,,,
,,,,,,0,2.463050874,#a3d0fb,"[""-0.25"",""0""]",left_blue.png,left,,,,,,,,left,left_blue.png,down_orange.png,down,left,down,6137bcb30ea0535ab1d702de,2021-09-07_23h07.51.646,arrow_simon_vert,2021.1.2,Win32,60.04563468,,,,,,,,,,,,,,,,,,space,0,101.96942,left,1,2.09918,1,TRUE,FALSE,0,0,0,2,1,,,,,,,
,,,,,,0,2.469514287,#f3af84,"[""0"",""-0.25""]",up_orange.png,up,,,,,,,,right,right_blue.png,up_orange.png,up,left,down,6137bcb30ea0535ab1d702de,2021-09-07_23h07.51.646,arrow_simon_vert,2021.1.2,Win32,60.04563468,,,,,,,,,,,,,,,,,,,,,up,1,2.01518,2,TRUE,FALSE,0,1,1,0,1,,,,,,,
,,,,,,0,2.052616548,#a3d0fb,"[""-0.25"",""0""]",right_blue.png,right,,,,,,,,right,right_blue.png,up_orange.png,up,left,down,6137bcb30ea0535ab1d702de,2021-09-07_23h07.51.646,arrow_simon_vert,2021.1.2,Win32,60.04563468,,,,,,,,,,,,,,,,,,,,,right,1,1.6322,3,TRUE,FALSE,0,2,2,0,1,,,,,,,
,,,,,,0,1.897296708,#f3af84,"[""0"",""0.25""]",up_orange.png,up,,,,,,,,right,right_blue.png,up_orange.png,up,right,up,6137bcb30ea0535ab1d702de,2021-09-07_23h07.51.646,arrow_simon_vert,2021.1.2,Win32,60.04563468,,,,,,,,,,,,,,,,,,,,,up,1,1.461745,4,FALSE,FALSE,0,3,3,1,1,,,,,,,
,,,,,,0,2.02353367,#a3d0fb,"[""0.25"",""0""]",right_blue.png,right,,,,,,,,right,right_blue.png,up_orange.png,up,right,up,6137bcb30ea0535ab1d702de,2021-09-07_23h07.51.646,arrow_simon_vert,2021.1.2,Win32,60.04563468,,,,,,,,,,,,,,,,,,,,,right,1,1.3663,5,FALSE,TRUE,1,0,4,1,1,,,,,,,
,,,,,,0,2.430400776,#f3af84,"[""0"",""0.25""]",down_orange.png,down,,,,,,,,left,left_blue.png,down_orange.png,down,right,up,6137bcb30ea0535ab1d702de,2021-09-07_23h07.51.646,arrow_simon_vert,2021.1.2,Win32,60.04563468,,,,,,,,,,,,,,,,,,,,,down,1,2.06548,6,TRUE,FALSE,1,1,5,3,1,,,,,,,
,,,,,,0,2.061379412,#a3d0fb,"[""0.25"",""0""]",right_blue.png,right,,,,,,,,right,right_blue.png,up_orange.png,up,right,up,6137bcb30ea0535ab1d702de,2021-09-07_23h07.51.646,arrow_simon_vert,2021.1.2,Win32,60.04563468,,,,,,,,,,,,,,,,,,,,,right,1,1.448755,7,FALSE,FALSE,1,2,6,1,1,,,,,,,
,,,,,,0,2.209073982,#f3af84,"[""0"",""-0.25""]",up_orange.png,up,,,,,,,,right,right_blue.png,up_orange.png,up,left,down,6137bcb30ea0535ab1d702de,2021-09-07_23h07.51.646,arrow_simon_vert,2021.1.2,Win32,60.04563468,,,,,,,,,,,,,,,,,,,,,up,1,1.94968,8,TRUE,FALSE,1,3,7,0,1,,,,,,,
,,,,,,0,2.126832414,#a3d0fb,"[""0.25"",""0""]",left_blue.png,left,,,,,,,,left,left_blue.png,down_orange.png,down,right,up,6137bcb30ea0535ab1d702de,2021-09-07_23h07.51.646,arrow_simon_vert,2021.1.2,Win32,60.04563468,,,,,,,,,,,,,,,,,,,,,left,1,1.64929,9,TRUE,FALSE,2,0,8,3,1,,,,,,,
,,,,,,0,2.116308866,#f3af84,"[""0"",""-0.25""]",down_orange.png,down,,,,,,,,left,left_blue.png,down_orange.png,down,left,down,6137bcb30ea0535ab1d702de,2021-09-07_23h07.51.646,arrow_simon_vert,2021.1.2,Win32,60.04563468,,,,,,,,,,,,,,,,,,,,,down,1,1.648955,10,TRUE,FALSE,2,1,9,2,1,,,,,,,
,,,,,,0,2.068344391,#a3d0fb,"[""0.25"",""0""]",left_blue.png,left,,,,,,,,left,left_blue.png,down_orange.png,down,right,up,6137bcb30ea0535ab1d702de,2021-09-07_23h07.51.646,arrow_simon_vert,2021.1.2,Win32,60.04563468,,,,,,,,,,,,,,,,,,,,,left,1,1.570965,11,FALSE,FALSE,2,2,10,3,1,,,,,,,
,,,,,,0,2.381048375,#f3af84,"[""0"",""0.25""]",up_orange.png,up,,,,,,,,right,right_blue.png,up_orange.png,up,right,up,6137bcb30ea0535ab1d702de,2021-09-07_23h07.51.646,arrow_simon_vert,2021.1.2,Win32,60.04563468,,,,,,,,,,,,,,,,,,,,,up,1,1.832455,12,TRUE,FALSE,2,3,11,1,1,,,,,,,
,,,,,,0,1.717124566,#a3d0fb,"[""0.25"",""0""]",right_blue.png,right,,,,,,,,right,right_blue.png,up_orange.png,up,right,up,6137bcb30ea0535ab1d702de,2021-09-07_23h07.51.646,arrow_simon_vert,2021.1.2,Win32,60.04563468,,,,,,,,,,,,,,,,,,,,,right,1,1.18306,13,FALSE,TRUE,3,0,12,1,1,,,,,,,
,,,,,,0,1.781569206,#f3af84,"[""0"",""0.25""]",up_orange.png,up,,,,,,,,right,right_blue.png,up_orange.png,up,right,up,6137bcb30ea0535ab1d702de,2021-09-07_23h07.51.646,arrow_simon_vert,2021.1.2,Win32,60.04563468,,,,,,,,,,,,,,,,,,,,,up,1,1.237225,14,FALSE,TRUE,3,1,13,1,1,,,,,,,
,,,,,,0,1.595518571,#a3d0fb,"[""-0.25"",""0""]",left_blue.png,left,,,,,,,,left,left_blue.png,down_orange.png,down,left,down,6137bcb30ea0535ab1d702de,2021-09-07_23h07.51.646,arrow_simon_vert,2021.1.2,Win32,60.04563468,,,,,,,,,,,,,,,,,,,,,left,1,1.083275,15,FALSE,TRUE,3,2,14,2,1,,,,,,,
,,,,,,0,2.422669003,#f3af84,"[""0"",""0.25""]",down_orange.png,down,,,,,,,,left,left_blue.png,down_orange.png,down,right,up,6137bcb30ea0535ab1d702de,2021-09-07_23h07.51.646,arrow_simon_vert,2021.1.2,Win32,60.04563468,,,,,,,,,,,,,,,,,,,,,down,1,2.04895,16,TRUE,FALSE,3,3,15,3,1,,,,,,,
,,,,,,0,2.473254236,#a3d0fb,"[""-0.25"",""0""]",left_blue.png,left,,,,,,,,left,left_blue.png,down_orange.png,down,left,down,6137bcb30ea0535ab1d702de,2021-09-07_23h07.51.646,arrow_simon_vert,2021.1.2,Win32,60.04563468,,,,,,,,,,,,,,,,,,,,,left,1,1.9493,17,TRUE,FALSE,4,0,16,2,1,,,,,,,
,,,,,,0,2.425386027,#f3af84,"[""0"",""0.25""]",up_orange.png,up,,,,,,,,right,right_blue.png,up_orange.png,up,right,up,6137bcb30ea0535ab1d702de,2021-09-07_23h07.51.646,arrow_simon_vert,2021.1.2,Win32,60.04563468,,,,,,,,,,,,,,,,,,,,,up,1,1.832685,18,TRUE,FALSE,4,1,17,1,1,,,,,,,
,,,,,,0,2.14346484,#a3d0fb,"[""0.25"",""0""]",right_blue.png,right,,,,,,,,right,right_blue.png,up_orange.png,up,right,up,6137bcb30ea0535ab1d702de,2021-09-07_23h07.51.646,arrow_simon_vert,2021.1.2,Win32,60.04563468,,,,,,,,,,,,,,,,,,,,,right,1,1.630405,19,TRUE,FALSE,4,2,18,1,1,,,,,,,
,,,,,,0,1.580576982,#f3af84,"[""0"",""0.25""]",down_orange.png,down,,,,,,,,left,left_blue.png,down_orange.png,down,right,up,6137bcb30ea0535ab1d702de,2021-09-07_23h07.51.646,arrow_simon_vert,2021.1.2,Win32,60.04563468,,,,,,,,,,,,,,,,,,,,,down,1,1.233325,20,FALSE,TRUE,4,3,19,3,1,,,,,,,
,,,,,,0,1.910800348,#a3d0fb,"[""0.25"",""0""]",left_blue.png,left,,,,,,,,left,left_blue.png,down_orange.png,down,right,up,6137bcb30ea0535ab1d702de,2021-09-07_23h07.51.646,arrow_simon_vert,2021.1.2,Win32,60.04563468,,,,,,,,,,,,,,,,,,,,,left,1,1.58337,21,FALSE,FALSE,5,0,20,3,1,,,,,,,
,,,,,,0,2.189925541,#f3af84,"[""0"",""0.25""]",up_orange.png,up,,,,,,,,right,right_blue.png,up_orange.png,up,right,up,6137bcb30ea0535ab1d702de,2021-09-07_23h07.51.646,arrow_simon_vert,2021.1.2,Win32,60.04563468,,,,,,,,,,,,,,,,,,,,,up,1,1.86566,22,TRUE,FALSE,5,1,21,1,1,,,,,,,
,,,,,,0,2.095586726,#a3d0fb,"[""-0.25"",""0""]",left_blue.png,left,,,,,,,,left,left_blue.png,down_orange.png,down,left,down,6137bcb30ea0535ab1d702de,2021-09-07_23h07.51.646,arrow_simon_vert,2021.1.2,Win32,60.04563468,,,,,,,,,,,,,,,,,,,,,left,1,1.569765,23,FALSE,FALSE,5,2,22,2,1,,,,,,,
,,,,,,0,2.409485291,#f3af84,"[""0"",""-0.25""]",up_orange.png,up,,,,,,,,right,right_blue.png,up_orange.png,up,left,down,6137bcb30ea0535ab1d702de,2021-09-07_23h07.51.646,arrow_simon_vert,2021.1.2,Win32,60.04563468,,,,,,,,,,,,,,,,,,,,,up,1,1.970355,24,TRUE,FALSE,5,3,23,0,1,,,,,,,
,,,,,,0,1.849325168,#a3d0fb,"[""-0.25"",""0""]",right_blue.png,right,,,,,,,,right,right_blue.png,up_orange.png,up,left,down,6137bcb30ea0535ab1d702de,2021-09-07_23h07.51.646,arrow_simon_vert,2021.1.2,Win32,60.04563468,,,,,,,,,,,,,,,,,,,,,right,1,1.4481,25,FALSE,FALSE,6,0,24,0,1,,,,,,,
,,,,,,0,1.964086473,#f3af84,"[""0"",""0.25""]",up_orange.png,up,,,,,,,,right,right_blue.png,up_orange.png,up,right,up,6137bcb30ea0535ab1d702de,2021-09-07_23h07.51.646,arrow_simon_vert,2021.1.2,Win32,60.04563468,,,,,,,,,,,,,,,,,,,,,up,1,1.78218,26,TRUE,FALSE,6,1,25,1,1,,,,,,,
,,,,,,0,1.959579265,#a3d0fb,"[""0.25"",""0""]",right_blue.png,right,,,,,,,,right,right_blue.png,up_orange.png,up,right,up,6137bcb30ea0535ab1d702de,2021-09-07_23h07.51.646,arrow_simon_vert,2021.1.2,Win32,60.04563468,,,,,,,,,,,,,,,,,,,,,right,1,1.637485,27,TRUE,FALSE,6,2,26,1,1,,,,,,,
,,,,,,0,2.369033221,#f3af84,"[""0"",""-0.25""]",down_orange.png,down,,,,,,,,left,left_blue.png,down_orange.png,down,left,down,6137bcb30ea0535ab1d702de,2021-09-07_23h07.51.646,arrow_simon_vert,2021.1.2,Win32,60.04563468,,,,,,,,,,,,,,,,,,,,,down,1,1.941975,28,TRUE,FALSE,6,3,27,2,1,,,,,,,
,,,,,,0,2.08027482,#a3d0fb,"[""-0.25"",""0""]",left_blue.png,left,,,,,,,,left,left_blue.png,down_orange.png,down,left,down,6137bcb30ea0535ab1d702de,2021-09-07_23h07.51.646,arrow_simon_vert,2021.1.2,Win32,60.04563468,,,,,,,,,,,,,,,,,,,,,left,1,1.549505,29,FALSE,FALSE,7,0,28,2,1,,,,,,,
,,,,,,0,1.780904979,#f3af84,"[""0"",""-0.25""]",up_orange.png,up,,,,,,,,right,right_blue.png,up_orange.png,up,left,down,6137bcb30ea0535ab1d702de,2021-09-07_23h07.51.646,arrow_simon_vert,2021.1.2,Win32,60.04563468,,,,,,,,,,,,,,,,,,,,,up,1,1.28336,30,FALSE,TRUE,7,1,29,0,1,,,,,,,
,,,,,,0,2.083822871,#a3d0fb,"[""0.25"",""0""]",right_blue.png,right,,,,,,,,right,right_blue.png,up_orange.png,up,right,up,6137bcb30ea0535ab1d702de,2021-09-07_23h07.51.646,arrow_simon_vert,2021.1.2,Win32,60.04563468,,,,,,,,,,,,,,,,,,,,,right,1,1.5657,31,FALSE,FALSE,7,2,30,1,1,,,,,,,
,,,,,,0,1.701232416,#f3af84,"[""0"",""-0.25""]",up_orange.png,up,,,,,,,,right,right_blue.png,up_orange.png,up,left,down,6137bcb30ea0535ab1d702de,2021-09-07_23h07.51.646,arrow_simon_vert,2021.1.2,Win32,60.04563468,,,,,,,,,,,,,,,,,,,,,up,1,1.175755,32,FALSE,TRUE,7,3,31,0,1,,,,,,,
,,,,,,0,1.521533065,#a3d0fb,"[""-0.25"",""0""]",right_blue.png,right,,,,,,,,right,right_blue.png,up_orange.png,up,left,down,6137bcb30ea0535ab1d702de,2021-09-07_23h07.51.646,arrow_simon_vert,2021.1.2,Win32,60.04563468,,,,,,,,,,,,,,,,,,,,,right,1,1.16662,33,FALSE,TRUE,8,0,32,0,1,,,,,,,
,,,,,,0,2.361475638,#f3af84,"[""0"",""-0.25""]",up_orange.png,up,,,,,,,,right,right_blue.png,up_orange.png,up,left,down,6137bcb30ea0535ab1d702de,2021-09-07_23h07.51.646,arrow_simon_vert,2021.1.2,Win32,60.04563468,,,,,,,,,,,,,,,,,,,,,up,1,1.765795,34,TRUE,FALSE,8,1,33,0,1,,,,,,,
,,,,,,0,2.469760388,#a3d0fb,"[""-0.25"",""0""]",left_blue.png,left,,,,,,,,left,left_blue.png,down_orange.png,down,left,down,6137bcb30ea0535ab1d702de,2021-09-07_23h07.51.646,arrow_simon_vert,2021.1.2,Win32,60.04563468,,,,,,,,,,,,,,,,,,,,,left,1,1.89947,35,TRUE,FALSE,8,2,34,2,1,,,,,,,
,,,,,,1,2.338093782,#f3af84,"[""0"",""0.25""]",down_orange.png,down,,,,,,,,left,left_blue.png,down_orange.png,down,right,up,6137bcb30ea0535ab1d702de,2021-09-07_23h07.51.646,arrow_simon_vert,2021.1.2,Win32,60.04563468,,,,,,,,,,,,,,,,,,,,,up,0,1.59992,36,FALSE,FALSE,8,3,35,3,1,,,,,,,
,,,,,,1,1.72406739,#a3d0fb,"[""-0.25"",""0""]",right_blue.png,right,,,,,,,,right,right_blue.png,up_orange.png,up,left,down,6137bcb30ea0535ab1d702de,2021-09-07_23h07.51.646,arrow_simon_vert,2021.1.2,Win32,60.04563468,,,,,,,,,,,,,,,,,,,,,right,1,1.31673,37,FALSE,TRUE,9,0,36,0,1,,,,,,,
,,,,,,1,1.74422819,#f3af84,"[""0"",""-0.25""]",up_orange.png,up,,,,,,,,right,right_blue.png,up_orange.png,up,left,down,6137bcb30ea0535ab1d702de,2021-09-07_23h07.51.646,arrow_simon_vert,2021.1.2,Win32,60.04563468,,,,,,,,,,,,,,,,,,,,,up,1,1.69909,38,TRUE,FALSE,9,1,37,0,1,,,,,,,
,,,,,,1,2.421269884,#a3d0fb,"[""0.25"",""0""]",right_blue.png,right,,,,,,,,right,right_blue.png,up_orange.png,up,right,up,6137bcb30ea0535ab1d702de,2021-09-07_23h07.51.646,arrow_simon_vert,2021.1.2,Win32,60.04563468,,,,,,,,,,,,,,,,,,,,,right,1,1.998245,39,TRUE,FALSE,9,2,38,1,1,,,,,,,
,,,,,,1,1.971475165,#f3af84,"[""0"",""-0.25""]",down_orange.png,down,,,,,,,,left,left_blue.png,down_orange.png,down,left,down,6137bcb30ea0535ab1d702de,2021-09-07_23h07.51.646,arrow_simon_vert,2021.1.2,Win32,60.04563468,,,,,,,,,,,,,,,,,,,,,down,1,1.61599,40,TRUE,FALSE,9,3,39,2,1,,,,,,,
,,,,,,0,2.022394852,#a3d0fb,"[""-0.25"",""0""]",left_blue.png,left,,,,,,,,left,left_blue.png,down_orange.png,down,left,down,6137bcb30ea0535ab1d702de,2021-09-07_23h07.51.646,arrow_simon_vert,2021.1.2,Win32,60.04563468,,,,,,,,,,,,,,,,,,,,,left,1,1.48298,41,FALSE,FALSE,10,0,40,2,1,,,,,,,
,,,,,,0,2.021838269,#f3af84,"[""0"",""-0.25""]",down_orange.png,down,,,,,,,,left,left_blue.png,down_orange.png,down,left,down,6137bcb30ea0535ab1d702de,2021-09-07_23h07.51.646,arrow_simon_vert,2021.1.2,Win32,60.04563468,,,,,,,,,,,,,,,,,,,,,down,1,1.683485,42,TRUE,FALSE,10,1,41,2,1,,,,,,,
,,,,,,0,1.604056196,#a3d0fb,"[""0.25"",""0""]",left_blue.png,left,,,,,,,,left,left_blue.png,down_orange.png,down,right,up,6137bcb30ea0535ab1d702de,2021-09-07_23h07.51.646,arrow_simon_vert,2021.1.2,Win32,60.04563468,,,,,,,,,,,,,,,,,,,,,left,1,1.149535,43,FALSE,TRUE,10,2,42,3,1,,,,,,,
,,,,,,0,2.379868377,#f3af84,"[""0"",""0.25""]",down_orange.png,down,,,,,,,,left,left_blue.png,down_orange.png,down,right,up,6137bcb30ea0535ab1d702de,2021-09-07_23h07.51.646,arrow_simon_vert,2021.1.2,Win32,60.04563468,,,,,,,,,,,,,,,,,,,,,down,1,2.015325,44,TRUE,FALSE,10,3,43,3,1,,,,,,,
,,,,,,0,2.483328359,#a3d0fb,"[""-0.25"",""0""]",right_blue.png,right,,,,,,,,right,right_blue.png,up_orange.png,up,left,down,6137bcb30ea0535ab1d702de,2021-09-07_23h07.51.646,arrow_simon_vert,2021.1.2,Win32,60.04563468,,,,,,,,,,,,,,,,,,,,,right,1,1.882795,45,TRUE,FALSE,11,0,44,0,1,,,,,,,
,,,,,,0,2.056061673,#f3af84,"[""0"",""-0.25""]",down_orange.png,down,,,,,,,,left,left_blue.png,down_orange.png,down,left,down,6137bcb30ea0535ab1d702de,2021-09-07_23h07.51.646,arrow_simon_vert,2021.1.2,Win32,60.04563468,,,,,,,,,,,,,,,,,,,,,down,1,1.682095,46,TRUE,FALSE,11,1,45,2,1,,,,,,,
,,,,,,0,1.763408707,#a3d0fb,"[""-0.25"",""0""]",right_blue.png,right,,,,,,,,right,right_blue.png,up_orange.png,up,left,down,6137bcb30ea0535ab1d702de,2021-09-07_23h07.51.646,arrow_simon_vert,2021.1.2,Win32,60.04563468,,,,,,,,,,,,,,,,,,,,,right,1,1.2333,47,FALSE,TRUE,11,2,46,0,1,,,,,,,
,,,,,,0,2.009316114,#f3af84,"[""0"",""0.25""]",down_orange.png,down,,,,,,,,left,left_blue.png,down_orange.png,down,right,up,6137bcb30ea0535ab1d702de,2021-09-07_23h07.51.646,arrow_simon_vert,2021.1.2,Win32,60.04563468,,,,,,,,,,,,,,,,,,,,,down,1,1.616155,48,TRUE,FALSE,11,3,47,3,1,,,,,,,
,,,,,,0,1.894520174,#a3d0fb,"[""0.25"",""0""]",left_blue.png,left,,,,,,,,left,left_blue.png,down_orange.png,down,right,up,6137bcb30ea0535ab1d702de,2021-09-07_23h07.51.646,arrow_simon_vert,2021.1.2,Win32,60.04563468,,,,,,,,,,,,,,,,,,,,,left,1,1.448985,49,FALSE,FALSE,12,0,48,3,1,,,,,,,
,,,,,,0,2.490439013,#f3af84,"[""0"",""0.25""]",down_orange.png,down,,,,,,,,left,left_blue.png,down_orange.png,down,right,up,6137bcb30ea0535ab1d702de,2021-09-07_23h07.51.646,arrow_simon_vert,2021.1.2,Win32,60.04563468,,,,,,,,,,,,,,,,,,,,,down,1,2.015515,50,TRUE,FALSE,12,1,49,3,1,,,,,,,
,,,,,,0,2.115731106,#a3d0fb,"[""-0.25"",""0""]",left_blue.png,left,,,,,,,,left,left_blue.png,down_orange.png,down,left,down,6137bcb30ea0535ab1d702de,2021-09-07_23h07.51.646,arrow_simon_vert,2021.1.2,Win32,60.04563468,,,,,,,,,,,,,,,,,,,,,left,1,1.68256,51,TRUE,FALSE,12,2,50,2,1,,,,,,,
,,,,,,0,2.18557943,#f3af84,"[""0"",""0.25""]",down_orange.png,down,,,,,,,,left,left_blue.png,down_orange.png,down,right,up,6137bcb30ea0535ab1d702de,2021-09-07_23h07.51.646,arrow_simon_vert,2021.1.2,Win32,60.04563468,,,,,,,,,,,,,,,,,,,,,down,1,1.765595,52,TRUE,FALSE,12,3,51,3,1,,,,,,,
,,,,,,0,2.14310916,#a3d0fb,"[""0.25"",""0""]",right_blue.png,right,,,,,,,,right,right_blue.png,up_orange.png,up,right,up,6137bcb30ea0535ab1d702de,2021-09-07_23h07.51.646,arrow_simon_vert,2021.1.2,Win32,60.04563468,,,,,,,,,,,,,,,,,,,,,right,1,1.61384,53,TRUE,FALSE,13,0,52,1,1,,,,,,,
,,,,,,0,2.042132353,#f3af84,"[""0"",""-0.25""]",down_orange.png,down,,,,,,,,left,left_blue.png,down_orange.png,down,left,down,6137bcb30ea0535ab1d702de,2021-09-07_23h07.51.646,arrow_simon_vert,2021.1.2,Win32,60.04563468,,,,,,,,,,,,,,,,,,,,,down,1,1.39935,54,FALSE,TRUE,13,1,53,2,1,,,,,,,
,,,,,,0,1.746562296,#a3d0fb,"[""0.25"",""0""]",left_blue.png,left,,,,,,,,left,left_blue.png,down_orange.png,down,right,up,6137bcb30ea0535ab1d702de,2021-09-07_23h07.51.646,arrow_simon_vert,2021.1.2,Win32,60.04563468,,,,,,,,,,,,,,,,,,,,,left,1,1.507,55,FALSE,FALSE,13,2,54,3,1,,,,,,,
,,,,,,0,2.339020323,#f3af84,"[""0"",""-0.25""]",up_orange.png,up,,,,,,,,right,right_blue.png,up_orange.png,up,left,down,6137bcb30ea0535ab1d702de,2021-09-07_23h07.51.646,arrow_simon_vert,2021.1.2,Win32,60.04563468,,,,,,,,,,,,,,,,,,,,,up,1,1.931835,56,TRUE,FALSE,13,3,55,0,1,,,,,,,
,,,,,,0,2.261866242,#a3d0fb,"[""-0.25"",""0""]",right_blue.png,right,,,,,,,,right,right_blue.png,up_orange.png,up,left,down,6137bcb30ea0535ab1d702de,2021-09-07_23h07.51.646,arrow_simon_vert,2021.1.2,Win32,60.04563468,,,,,,,,,,,,,,,,,,,,,right,1,1.69924,57,TRUE,FALSE,14,0,56,0,1,,,,,,,
,,,,,,0,1.589746206,#f3af84,"[""0"",""0.25""]",up_orange.png,up,,,,,,,,right,right_blue.png,up_orange.png,up,right,up,6137bcb30ea0535ab1d702de,2021-09-07_23h07.51.646,arrow_simon_vert,2021.1.2,Win32,60.04563468,,,,,,,,,,,,,,,,,,,,,up,1,1.100025,58,FALSE,TRUE,14,1,57,1,1,,,,,,,
,,,,,,0,2.413895579,#a3d0fb,"[""0.25"",""0""]",left_blue.png,left,,,,,,,,left,left_blue.png,down_orange.png,down,right,up,6137bcb30ea0535ab1d702de,2021-09-07_23h07.51.646,arrow_simon_vert,2021.1.2,Win32,60.04563468,,,,,,,,,,,,,,,,,,,,,left,1,1.84919,59,TRUE,FALSE,14,2,58,3,1,,,,,,,
,,,,,,0,1.659883292,#f3af84,"[""0"",""-0.25""]",down_orange.png,down,,,,,,,,left,left_blue.png,down_orange.png,down,left,down,6137bcb30ea0535ab1d702de,2021-09-07_23h07.51.646,arrow_simon_vert,2021.1.2,Win32,60.04563468,,,,,,,,,,,,,,,,,,,,,down,1,1.47447,60,FALSE,FALSE,14,3,59,2,1,,,,,,,
,,,,,,,,,,,,,,,,,,,,,,,,,6137bcb30ea0535ab1d702de,2021-09-07_23h07.51.646,arrow_simon_vert,2021.1.2,Win32,60.04563468,,,,,,,,,,,,,,,,,,,,,,,,,,,,,,,,space,10.09866,0,0,0,0,1
,,,,,,0,2.183616953,#a3d0fb,"[""0.25"",""0""]",left_blue.png,left,,,,,,,,left,left_blue.png,down_orange.png,down,right,up,6137bcb30ea0535ab1d702de,2021-09-07_23h07.51.646,arrow_simon_vert,2021.1.2,Win32,60.04563468,,,,,,,,,,,,,,,,,,,,,left,1,2.01554,1,TRUE,FALSE,0,0,0,3,1,,,,,,,
,,,,,,0,1.657247048,#f3af84,"[""0"",""-0.25""]",down_orange.png,down,,,,,,,,left,left_blue.png,down_orange.png,down,left,down,6137bcb30ea0535ab1d702de,2021-09-07_23h07.51.646,arrow_simon_vert,2021.1.2,Win32,60.04563468,,,,,,,,,,,,,,,,,,,,,down,1,1.06748,2,FALSE,TRUE,0,1,1,2,1,,,,,,,
,,,,,,0,1.521192826,#a3d0fb,"[""0.25"",""0""]",left_blue.png,left,,,,,,,,left,left_blue.png,down_orange.png,down,right,up,6137bcb30ea0535ab1d702de,2021-09-07_23h07.51.646,arrow_simon_vert,2021.1.2,Win32,60.04563468,,,,,,,,,,,,,,,,,,,,,left,1,1.099625,3,FALSE,TRUE,0,2,2,3,1,,,,,,,
,,,,,,0,1.820151918,#f3af84,"[""0"",""0.25""]",down_orange.png,down,,,,,,,,left,left_blue.png,down_orange.png,down,right,up,6137bcb30ea0535ab1d702de,2021-09-07_23h07.51.646,arrow_simon_vert,2021.1.2,Win32,60.04563468,,,,,,,,,,,,,,,,,,,,,down,1,1.53916,4,FALSE,FALSE,0,3,3,3,1,,,,,,,
,,,,,,0,1.800643477,#a3d0fb,"[""-0.25"",""0""]",right_blue.png,right,,,,,,,,right,right_blue.png,up_orange.png,up,left,down,6137bcb30ea0535ab1d702de,2021-09-07_23h07.51.646,arrow_simon_vert,2021.1.2,Win32,60.04563468,,,,,,,,,,,,,,,,,,,,,right,1,1.222665,5,FALSE,TRUE,1,0,4,0,1,,,,,,,
,,,,,,0,1.80334584,#f3af84,"[""0"",""-0.25""]",up_orange.png,up,,,,,,,,right,right_blue.png,up_orange.png,up,left,down,6137bcb30ea0535ab1d702de,2021-09-07_23h07.51.646,arrow_simon_vert,2021.1.2,Win32,60.04563468,,,,,,,,,,,,,,,,,,,,,up,1,1.5095,6,FALSE,FALSE,1,1,5,0,1,,,,,,,
,,,,,,0,1.537330924,#a3d0fb,"[""-0.25"",""0""]",right_blue.png,right,,,,,,,,right,right_blue.png,up_orange.png,up,left,down,6137bcb30ea0535ab1d702de,2021-09-07_23h07.51.646,arrow_simon_vert,2021.1.2,Win32,60.04563468,,,,,,,,,,,,,,,,,,,,,right,1,1.26586,7,FALSE,TRUE,1,2,6,0,1,,,,,,,
,,,,,,0,2.253506855,#f3af84,"[""0"",""-0.25""]",down_orange.png,down,,,,,,,,left,left_blue.png,down_orange.png,down,left,down,6137bcb30ea0535ab1d702de,2021-09-07_23h07.51.646,arrow_simon_vert,2021.1.2,Win32,60.04563468,,,,,,,,,,,,,,,,,,,,,down,1,1.83266,8,TRUE,FALSE,1,3,7,2,1,,,,,,,
,,,,,,0,1.806025777,#a3d0fb,"[""-0.25"",""0""]",right_blue.png,right,,,,,,,,right,right_blue.png,up_orange.png,up,left,down,6137bcb30ea0535ab1d702de,2021-09-07_23h07.51.646,arrow_simon_vert,2021.1.2,Win32,60.04563468,,,,,,,,,,,,,,,,,,,,,right,1,1.416455,9,FALSE,FALSE,2,0,8,0,1,,,,,,,
,,,,,,0,2.025261652,#f3af84,"[""0"",""-0.25""]",down_orange.png,down,,,,,,,,left,left_blue.png,down_orange.png,down,left,down,6137bcb30ea0535ab1d702de,2021-09-07_23h07.51.646,arrow_simon_vert,2021.1.2,Win32,60.04563468,,,,,,,,,,,,,,,,,,,,,down,1,1.54958,10,FALSE,FALSE,2,1,9,2,1,,,,,,,
,,,,,,0,2.107861362,#a3d0fb,"[""0.25"",""0""]",right_blue.png,right,,,,,,,,right,right_blue.png,up_orange.png,up,right,up,6137bcb30ea0535ab1d702de,2021-09-07_23h07.51.646,arrow_simon_vert,2021.1.2,Win32,60.04563468,,,,,,,,,,,,,,,,,,,,,right,1,1.549305,11,FALSE,FALSE,2,2,10,1,1,,,,,,,
,,,,,,0,2.165438221,#f3af84,"[""0"",""-0.25""]",up_orange.png,up,,,,,,,,right,right_blue.png,up_orange.png,up,left,down,6137bcb30ea0535ab1d702de,2021-09-07_23h07.51.646,arrow_simon_vert,2021.1.2,Win32,60.04563468,,,,,,,,,,,,,,,,,,,,,up,1,1.681195,12,TRUE,FALSE,2,3,11,0,1,,,,,,,
,,,,,,0,2.497234875,#a3d0fb,"[""-0.25"",""0""]",left_blue.png,left,,,,,,,,left,left_blue.png,down_orange.png,down,left,down,6137bcb30ea0535ab1d702de,2021-09-07_23h07.51.646,arrow_simon_vert,2021.1.2,Win32,60.04563468,,,,,,,,,,,,,,,,,,,,,left,1,2.082445,13,TRUE,FALSE,3,0,12,2,1,,,,,,,
,,,,,,0,2.360892672,#f3af84,"[""0"",""0.25""]",up_orange.png,up,,,,,,,,right,right_blue.png,up_orange.png,up,right,up,6137bcb30ea0535ab1d702de,2021-09-07_23h07.51.646,arrow_simon_vert,2021.1.2,Win32,60.04563468,,,,,,,,,,,,,,,,,,,,,up,1,1.782095,14,TRUE,FALSE,3,1,13,1,1,,,,,,,
,,,,,,0,1.590367254,#a3d0fb,"[""-0.25"",""0""]",left_blue.png,left,,,,,,,,left,left_blue.png,down_orange.png,down,left,down,6137bcb30ea0535ab1d702de,2021-09-07_23h07.51.646,arrow_simon_vert,2021.1.2,Win32,60.04563468,,,,,,,,,,,,,,,,,,,,,left,1,1.06698,15,FALSE,TRUE,3,2,14,2,1,,,,,,,
,,,,,,0,1.683707948,#f3af84,"[""0"",""-0.25""]",up_orange.png,up,,,,,,,,right,right_blue.png,up_orange.png,up,left,down,6137bcb30ea0535ab1d702de,2021-09-07_23h07.51.646,arrow_simon_vert,2021.1.2,Win32,60.04563468,,,,,,,,,,,,,,,,,,,,,up,1,1.178985,16,FALSE,TRUE,3,3,15,0,1,,,,,,,
,,,,,,0,1.680690117,#a3d0fb,"[""0.25"",""0""]",left_blue.png,left,,,,,,,,left,left_blue.png,down_orange.png,down,right,up,6137bcb30ea0535ab1d702de,2021-09-07_23h07.51.646,arrow_simon_vert,2021.1.2,Win32,60.04563468,,,,,,,,,,,,,,,,,,,,,left,1,1.43235,17,FALSE,FALSE,4,0,16,3,1,,,,,,,
,,,,,,0,1.984453386,#f3af84,"[""0"",""-0.25""]",down_orange.png,down,,,,,,,,left,left_blue.png,down_orange.png,down,left,down,6137bcb30ea0535ab1d702de,2021-09-07_23h07.51.646,arrow_simon_vert,2021.1.2,Win32,60.04563468,,,,,,,,,,,,,,,,,,,,,down,1,1.473225,18,FALSE,FALSE,4,1,17,2,1,,,,,,,
,,,,,,0,2.026356108,#a3d0fb,"[""0.25"",""0""]",right_blue.png,right,,,,,,,,right,right_blue.png,up_orange.png,up,right,up,6137bcb30ea0535ab1d702de,2021-09-07_23h07.51.646,arrow_simon_vert,2021.1.2,Win32,60.04563468,,,,,,,,,,,,,,,,,,,,,right,1,1.815825,19,TRUE,FALSE,4,2,18,1,1,,,,,,,
,,,,,,0,2.272916155,#f3af84,"[""0"",""0.25""]",down_orange.png,down,,,,,,,,left,left_blue.png,down_orange.png,down,right,up,6137bcb30ea0535ab1d702de,2021-09-07_23h07.51.646,arrow_simon_vert,2021.1.2,Win32,60.04563468,,,,,,,,,,,,,,,,,,,,,up,0,1.665525,20,TRUE,FALSE,4,3,19,3,1,,,,,,,
,,,,,,0,1.959578305,#a3d0fb,"[""0.25"",""0""]",right_blue.png,right,,,,,,,,right,right_blue.png,up_orange.png,up,right,up,6137bcb30ea0535ab1d702de,2021-09-07_23h07.51.646,arrow_simon_vert,2021.1.2,Win32,60.04563468,,,,,,,,,,,,,,,,,,,,,right,1,1.51577,21,FALSE,FALSE,5,0,20,1,1,,,,,,,
,,,,,,0,1.734528714,#f3af84,"[""0"",""0.25""]",down_orange.png,down,,,,,,,,left,left_blue.png,down_orange.png,down,right,up,6137bcb30ea0535ab1d702de,2021-09-07_23h07.51.646,arrow_simon_vert,2021.1.2,Win32,60.04563468,,,,,,,,,,,,,,,,,,,,,up,0,1.149275,22,FALSE,TRUE,5,1,21,3,1,,,,,,,
,,,,,,0,2.071029647,#a3d0fb,"[""0.25"",""0""]",right_blue.png,right,,,,,,,,right,right_blue.png,up_orange.png,up,right,up,6137bcb30ea0535ab1d702de,2021-09-07_23h07.51.646,arrow_simon_vert,2021.1.2,Win32,60.04563468,,,,,,,,,,,,,,,,,,,,,right,1,1.54317,23,FALSE,FALSE,5,2,22,1,1,,,,,,,
,,,,,,0,2.012417129,#f3af84,"[""0"",""0.25""]",down_orange.png,down,,,,,,,,left,left_blue.png,down_orange.png,down,right,up,6137bcb30ea0535ab1d702de,2021-09-07_23h07.51.646,arrow_simon_vert,2021.1.2,Win32,60.04563468,,,,,,,,,,,,,,,,,,,,,down,1,1.532465,24,FALSE,FALSE,5,3,23,3,1,,,,,,,
,,,,,,1,1.981747817,#a3d0fb,"[""-0.25"",""0""]",right_blue.png,right,,,,,,,,right,right_blue.png,up_orange.png,up,left,down,6137bcb30ea0535ab1d702de,2021-09-07_23h07.51.646,arrow_simon_vert,2021.1.2,Win32,60.04563468,,,,,,,,,,,,,,,,,,,,,down,0,1.415745,25,FALSE,FALSE,6,0,24,0,1,,,,,,,
,,,,,,1,1.857857487,#f3af84,"[""0"",""0.25""]",up_orange.png,up,,,,,,,,right,right_blue.png,up_orange.png,up,right,up,6137bcb30ea0535ab1d702de,2021-09-07_23h07.51.646,arrow_simon_vert,2021.1.2,Win32,60.04563468,,,,,,,,,,,,,,,,,,,,,up,1,1.282935,26,FALSE,TRUE,6,1,25,1,1,,,,,,,
,,,,,,1,1.567644744,#a3d0fb,"[""-0.25"",""0""]",right_blue.png,right,,,,,,,,right,right_blue.png,up_orange.png,up,left,down,6137bcb30ea0535ab1d702de,2021-09-07_23h07.51.646,arrow_simon_vert,2021.1.2,Win32,60.04563468,,,,,,,,,,,,,,,,,,,,,right,1,1.16859,27,FALSE,TRUE,6,2,26,0,1,,,,,,,
,,,,,,0,1.882854828,#f3af84,"[""0"",""-0.25""]",up_orange.png,up,,,,,,,,right,right_blue.png,up_orange.png,up,left,down,6137bcb30ea0535ab1d702de,2021-09-07_23h07.51.646,arrow_simon_vert,2021.1.2,Win32,60.04563468,,,,,,,,,,,,,,,,,,,,,up,1,1.582725,28,FALSE,FALSE,6,3,27,0,1,,,,,,,
,,,,,,0,2.40003166,#a3d0fb,"[""-0.25"",""0""]",right_blue.png,right,,,,,,,,right,right_blue.png,up_orange.png,up,left,down,6137bcb30ea0535ab1d702de,2021-09-07_23h07.51.646,arrow_simon_vert,2021.1.2,Win32,60.04563468,,,,,,,,,,,,,,,,,,,,,right,1,1.965445,29,TRUE,FALSE,7,0,28,0,1,,,,,,,
,,,,,,0,1.906919129,#f3af84,"[""0"",""0.25""]",up_orange.png,up,,,,,,,,right,right_blue.png,up_orange.png,up,right,up,6137bcb30ea0535ab1d702de,2021-09-07_23h07.51.646,arrow_simon_vert,2021.1.2,Win32,60.04563468,,,,,,,,,,,,,,,,,,,,,up,1,1.366005,30,FALSE,TRUE,7,1,29,1,1,,,,,,,
,,,,,,0,2.457135863,#a3d0fb,"[""-0.25"",""0""]",left_blue.png,left,,,,,,,,left,left_blue.png,down_orange.png,down,left,down,6137bcb30ea0535ab1d702de,2021-09-07_23h07.51.646,arrow_simon_vert,2021.1.2,Win32,60.04563468,,,,,,,,,,,,,,,,,,,,,left,1,1.882495,31,TRUE,FALSE,7,2,30,2,1,,,,,,,
,,,,,,0,2.06054036,#f3af84,"[""0"",""0.25""]",down_orange.png,down,,,,,,,,left,left_blue.png,down_orange.png,down,right,up,6137bcb30ea0535ab1d702de,2021-09-07_23h07.51.646,arrow_simon_vert,2021.1.2,Win32,60.04563468,,,,,,,,,,,,,,,,,,,,,down,1,1.581475,32,FALSE,FALSE,7,3,31,3,1,,,,,,,
,,,,,,0,2.454173528,#a3d0fb,"[""-0.25"",""0""]",right_blue.png,right,,,,,,,,right,right_blue.png,up_orange.png,up,left,down,6137bcb30ea0535ab1d702de,2021-09-07_23h07.51.646,arrow_simon_vert,2021.1.2,Win32,60.04563468,,,,,,,,,,,,,,,,,,,,,right,1,1.87828,33,TRUE,FALSE,8,0,32,0,1,,,,,,,
,,,,,,0,1.88491144,#f3af84,"[""0"",""-0.25""]",down_orange.png,down,,,,,,,,left,left_blue.png,down_orange.png,down,left,down,6137bcb30ea0535ab1d702de,2021-09-07_23h07.51.646,arrow_simon_vert,2021.1.2,Win32,60.04563468,,,,,,,,,,,,,,,,,,,,,down,1,1.43267,34,FALSE,FALSE,8,1,33,2,1,,,,,,,
,,,,,,0,2.468292001,#a3d0fb,"[""-0.25"",""0""]",left_blue.png,left,,,,,,,,left,left_blue.png,down_orange.png,down,left,down,6137bcb30ea0535ab1d702de,2021-09-07_23h07.51.646,arrow_simon_vert,2021.1.2,Win32,60.04563468,,,,,,,,,,,,,,,,,,,,,left,1,1.91578,35,TRUE,FALSE,8,2,34,2,1,,,,,,,
,,,,,,0,2.069919317,#f3af84,"[""0"",""0.25""]",down_orange.png,down,,,,,,,,left,left_blue.png,down_orange.png,down,right,up,6137bcb30ea0535ab1d702de,2021-09-07_23h07.51.646,arrow_simon_vert,2021.1.2,Win32,60.04563468,,,,,,,,,,,,,,,,,,,,,down,1,1.649475,36,TRUE,FALSE,8,3,35,3,1,,,,,,,
,,,,,,0,1.550527649,#a3d0fb,"[""0.25"",""0""]",right_blue.png,right,,,,,,,,right,right_blue.png,up_orange.png,up,right,up,6137bcb30ea0535ab1d702de,2021-09-07_23h07.51.646,arrow_simon_vert,2021.1.2,Win32,60.04563468,,,,,,,,,,,,,,,,,,,,,right,1,1.1,37,FALSE,TRUE,9,0,36,1,1,,,,,,,
,,,,,,0,1.559698775,#f3af84,"[""0"",""0.25""]",up_orange.png,up,,,,,,,,right,right_blue.png,up_orange.png,up,right,up,6137bcb30ea0535ab1d702de,2021-09-07_23h07.51.646,arrow_simon_vert,2021.1.2,Win32,60.04563468,,,,,,,,,,,,,,,,,,,,,up,1,1.066175,38,FALSE,TRUE,9,1,37,1,1,,,,,,,
,,,,,,0,2.193261672,#a3d0fb,"[""0.25"",""0""]",left_blue.png,left,,,,,,,,left,left_blue.png,down_orange.png,down,right,up,6137bcb30ea0535ab1d702de,2021-09-07_23h07.51.646,arrow_simon_vert,2021.1.2,Win32,60.04563468,,,,,,,,,,,,,,,,,,,,,left,1,1.66602,39,TRUE,FALSE,9,2,38,3,1,,,,,,,
,,,,,,0,2.212300314,#f3af84,"[""0"",""0.25""]",up_orange.png,up,,,,,,,,right,right_blue.png,up_orange.png,up,right,up,6137bcb30ea0535ab1d702de,2021-09-07_23h07.51.646,arrow_simon_vert,2021.1.2,Win32,60.04563468,,,,,,,,,,,,,,,,,,,,,up,1,1.715145,40,TRUE,FALSE,9,3,39,1,1,,,,,,,
,,,,,,0,2.087217407,#a3d0fb,"[""0.25"",""0""]",left_blue.png,left,,,,,,,,left,left_blue.png,down_orange.png,down,right,up,6137bcb30ea0535ab1d702de,2021-09-07_23h07.51.646,arrow_simon_vert,2021.1.2,Win32,60.04563468,,,,,,,,,,,,,,,,,,,,,left,1,1.666055,41,TRUE,FALSE,10,0,40,3,1,,,,,,,
,,,,,,0,2.283059022,#f3af84,"[""0"",""0.25""]",up_orange.png,up,,,,,,,,right,right_blue.png,up_orange.png,up,right,up,6137bcb30ea0535ab1d702de,2021-09-07_23h07.51.646,arrow_simon_vert,2021.1.2,Win32,60.04563468,,,,,,,,,,,,,,,,,,,,,up,1,1.79902,42,TRUE,FALSE,10,1,41,1,1,,,,,,,
,,,,,,0,1.893880314,#a3d0fb,"[""-0.25"",""0""]",left_blue.png,left,,,,,,,,left,left_blue.png,down_orange.png,down,left,down,6137bcb30ea0535ab1d702de,2021-09-07_23h07.51.646,arrow_simon_vert,2021.1.2,Win32,60.04563468,,,,,,,,,,,,,,,,,,,,,left,1,1.482735,43,FALSE,FALSE,10,2,42,2,1,,,,,,,
,,,,,,0,2.015818678,#f3af84,"[""0"",""0.25""]",up_orange.png,up,,,,,,,,right,right_blue.png,up_orange.png,up,right,up,6137bcb30ea0535ab1d702de,2021-09-07_23h07.51.646,arrow_simon_vert,2021.1.2,Win32,60.04563468,,,,,,,,,,,,,,,,,,,,,up,1,1.499245,44,FALSE,FALSE,10,3,43,1,1,,,,,,,
,,,,,,0,1.771157418,#a3d0fb,"[""0.25"",""0""]",left_blue.png,left,,,,,,,,left,left_blue.png,down_orange.png,down,right,up,6137bcb30ea0535ab1d702de,2021-09-07_23h07.51.646,arrow_simon_vert,2021.1.2,Win32,60.04563468,,,,,,,,,,,,,,,,,,,,,left,1,1.260975,45,FALSE,TRUE,11,0,44,3,1,,,,,,,
,,,,,,0,2.020627167,#f3af84,"[""0"",""-0.25""]",down_orange.png,down,,,,,,,,left,left_blue.png,down_orange.png,down,left,down,6137bcb30ea0535ab1d702de,2021-09-07_23h07.51.646,arrow_simon_vert,2021.1.2,Win32,60.04563468,,,,,,,,,,,,,,,,,,,,,down,1,1.739155,46,TRUE,FALSE,11,1,45,2,1,,,,,,,
,,,,,,0,2.108553273,#a3d0fb,"[""0.25"",""0""]",right_blue.png,right,,,,,,,,right,right_blue.png,up_orange.png,up,right,up,6137bcb30ea0535ab1d702de,2021-09-07_23h07.51.646,arrow_simon_vert,2021.1.2,Win32,60.04563468,,,,,,,,,,,,,,,,,,,,,right,1,1.647725,47,TRUE,FALSE,11,2,46,1,1,,,,,,,
,,,,,,0,1.558104951,#f3af84,"[""0"",""-0.25""]",up_orange.png,up,,,,,,,,right,right_blue.png,up_orange.png,up,left,down,6137bcb30ea0535ab1d702de,2021-09-07_23h07.51.646,arrow_simon_vert,2021.1.2,Win32,60.04563468,,,,,,,,,,,,,,,,,,,,,up,1,1.182715,48,FALSE,TRUE,11,3,47,0,1,,,,,,,
,,,,,,0,1.588389457,#a3d0fb,"[""-0.25"",""0""]",right_blue.png,right,,,,,,,,right,right_blue.png,up_orange.png,up,left,down,6137bcb30ea0535ab1d702de,2021-09-07_23h07.51.646,arrow_simon_vert,2021.1.2,Win32,60.04563468,,,,,,,,,,,,,,,,,,,,,right,1,1.15678,49,FALSE,TRUE,12,0,48,0,1,,,,,,,
,,,,,,0,2.070126374,#f3af84,"[""0"",""-0.25""]",up_orange.png,up,,,,,,,,right,right_blue.png,up_orange.png,up,left,down,6137bcb30ea0535ab1d702de,2021-09-07_23h07.51.646,arrow_simon_vert,2021.1.2,Win32,60.04563468,,,,,,,,,,,,,,,,,,,,,up,1,1.61652,50,TRUE,FALSE,12,1,49,0,1,,,,,,,
,,,,,,0,1.519219978,#a3d0fb,"[""-0.25"",""0""]",left_blue.png,left,,,,,,,,left,left_blue.png,down_orange.png,down,left,down,6137bcb30ea0535ab1d702de,2021-09-07_23h07.51.646,arrow_simon_vert,2021.1.2,Win32,60.04563468,,,,,,,,,,,,,,,,,,,,,left,1,1.111455,51,FALSE,TRUE,12,2,50,2,1,,,,,,,
,,,,,,0,1.524434946,#f3af84,"[""0"",""-0.25""]",down_orange.png,down,,,,,,,,left,left_blue.png,down_orange.png,down,left,down,6137bcb30ea0535ab1d702de,2021-09-07_23h07.51.646,arrow_simon_vert,2021.1.2,Win32,60.04563468,,,,,,,,,,,,,,,,,,,,,down,1,1.101835,52,FALSE,TRUE,12,3,51,2,1,,,,,,,
,,,,,,0,2.407759082,#a3d0fb,"[""0.25"",""0""]",left_blue.png,left,,,,,,,,left,left_blue.png,down_orange.png,down,right,up,6137bcb30ea0535ab1d702de,2021-09-07_23h07.51.646,arrow_simon_vert,2021.1.2,Win32,60.04563468,,,,,,,,,,,,,,,,,,,,,left,1,2.18247,53,TRUE,FALSE,13,0,52,3,1,,,,,,,
,,,,,,0,2.280137707,#f3af84,"[""0"",""0.25""]",up_orange.png,up,,,,,,,,right,right_blue.png,up_orange.png,up,right,up,6137bcb30ea0535ab1d702de,2021-09-07_23h07.51.646,arrow_simon_vert,2021.1.2,Win32,60.04563468,,,,,,,,,,,,,,,,,,,,,up,1,1.688885,54,TRUE,FALSE,13,1,53,1,1,,,,,,,
,,,,,,0,1.617840485,#a3d0fb,"[""-0.25"",""0""]",left_blue.png,left,,,,,,,,left,left_blue.png,down_orange.png,down,left,down,6137bcb30ea0535ab1d702de,2021-09-07_23h07.51.646,arrow_simon_vert,2021.1.2,Win32,60.04563468,,,,,,,,,,,,,,,,,,,,,left,1,1.231485,55,FALSE,TRUE,13,2,54,2,1,,,,,,,
,,,,,,0,1.718929089,#f3af84,"[""0"",""0.25""]",up_orange.png,up,,,,,,,,right,right_blue.png,up_orange.png,up,right,up,6137bcb30ea0535ab1d702de,2021-09-07_23h07.51.646,arrow_simon_vert,2021.1.2,Win32,60.04563468,,,,,,,,,,,,,,,,,,,,,up,1,1.19994,56,FALSE,TRUE,13,3,55,1,1,,,,,,,
,,,,,,0,2.0262535,#a3d0fb,"[""0.25"",""0""]",left_blue.png,left,,,,,,,,left,left_blue.png,down_orange.png,down,right,up,6137bcb30ea0535ab1d702de,2021-09-07_23h07.51.646,arrow_simon_vert,2021.1.2,Win32,60.04563468,,,,,,,,,,,,,,,,,,,,,right,0,1.34923,57,FALSE,TRUE,14,0,56,3,1,,,,,,,
,,,,,,0,1.916261382,#f3af84,"[""0"",""-0.25""]",down_orange.png,down,,,,,,,,left,left_blue.png,down_orange.png,down,left,down,6137bcb30ea0535ab1d702de,2021-09-07_23h07.51.646,arrow_simon_vert,2021.1.2,Win32,60.04563468,,,,,,,,,,,,,,,,,,,,,down,1,1.349115,58,FALSE,TRUE,14,1,57,2,1,,,,,,,
,,,,,,0,1.759767419,#a3d0fb,"[""-0.25"",""0""]",right_blue.png,right,,,,,,,,right,right_blue.png,up_orange.png,up,left,down,6137bcb30ea0535ab1d702de,2021-09-07_23h07.51.646,arrow_simon_vert,2021.1.2,Win32,60.04563468,,,,,,,,,,,,,,,,,,,,,right,1,1.219485,59,FALSE,TRUE,14,2,58,0,1,,,,,,,
,,,,,,0,2.47684178,#f3af84,"[""0"",""0.25""]",down_orange.png,down,,,,,,,,left,left_blue.png,down_orange.png,down,right,up,6137bcb30ea0535ab1d702de,2021-09-07_23h07.51.646,arrow_simon_vert,2021.1.2,Win32,60.04563468,,,,,,,,,,,,,,,,,,,,,down,1,2.248485,60,TRUE,FALSE,14,3,59,3,1,,,,,,,
,,,,,,,,,,,,,,,,,,,,,,,,,6137bcb30ea0535ab1d702de,2021-09-07_23h07.51.646,arrow_simon_vert,2021.1.2,Win32,60.04563468,,,,,,,,,,,,,,,,,,,,,,,,,,,,,,,,space,32.769055,1,0,1,0,1
,,,,,,0,1.862130285,#a3d0fb,"[""-0.25"",""0""]",right_blue.png,right,,,,,,,,right,right_blue.png,up_orange.png,up,left,down,6137bcb30ea0535ab1d702de,2021-09-07_23h07.51.646,arrow_simon_vert,2021.1.2,Win32,60.04563468,,,,,,,,,,,,,,,,,,,,,right,1,1.44973,1,FALSE,FALSE,0,0,0,0,1,,,,,,,
,,,,,,0,1.534952649,#f3af84,"[""0"",""0.25""]",down_orange.png,down,,,,,,,,left,left_blue.png,down_orange.png,down,right,up,6137bcb30ea0535ab1d702de,2021-09-07_23h07.51.646,arrow_simon_vert,2021.1.2,Win32,60.04563468,,,,,,,,,,,,,,,,,,,,,down,1,1.13364,2,FALSE,TRUE,0,1,1,3,1,,,,,,,
,,,,,,0,1.702793988,#a3d0fb,"[""0.25"",""0""]",right_blue.png,right,,,,,,,,right,right_blue.png,up_orange.png,up,right,up,6137bcb30ea0535ab1d702de,2021-09-07_23h07.51.646,arrow_simon_vert,2021.1.2,Win32,60.04563468,,,,,,,,,,,,,,,,,,,,,right,1,2.63184,3,TRUE,FALSE,0,2,2,1,1,,,,,,,
,,,,,,0,2.399271638,#f3af84,"[""0"",""-0.25""]",down_orange.png,down,,,,,,,,left,left_blue.png,down_orange.png,down,left,down,6137bcb30ea0535ab1d702de,2021-09-07_23h07.51.646,arrow_simon_vert,2021.1.2,Win32,60.04563468,,,,,,,,,,,,,,,,,,,,,down,1,2.7652,4,TRUE,FALSE,0,3,3,2,1,,,,,,,
,,,,,,0,1.947144224,#a3d0fb,"[""0.25"",""0""]",left_blue.png,left,,,,,,,,left,left_blue.png,down_orange.png,down,right,up,6137bcb30ea0535ab1d702de,2021-09-07_23h07.51.646,arrow_simon_vert,2021.1.2,Win32,60.04563468,,,,,,,,,,,,,,,,,,,,,left,1,2.081965,5,TRUE,FALSE,1,0,4,3,1,,,,,,,
,,,,,,0,2.081385132,#f3af84,"[""0"",""0.25""]",up_orange.png,up,,,,,,,,right,right_blue.png,up_orange.png,up,right,up,6137bcb30ea0535ab1d702de,2021-09-07_23h07.51.646,arrow_simon_vert,2021.1.2,Win32,60.04563468,,,,,,,,,,,,,,,,,,,,,up,1,1.765995,6,TRUE,FALSE,1,1,5,1,1,,,,,,,
,,,,,,0,2.287748695,#a3d0fb,"[""0.25"",""0""]",right_blue.png,right,,,,,,,,right,right_blue.png,up_orange.png,up,right,up,6137bcb30ea0535ab1d702de,2021-09-07_23h07.51.646,arrow_simon_vert,2021.1.2,Win32,60.04563468,,,,,,,,,,,,,,,,,,,,,right,1,1.715445,7,TRUE,FALSE,1,2,6,1,1,,,,,,,
,,,,,,0,2.122310127,#f3af84,"[""0"",""-0.25""]",up_orange.png,up,,,,,,,,right,right_blue.png,up_orange.png,up,left,down,6137bcb30ea0535ab1d702de,2021-09-07_23h07.51.646,arrow_simon_vert,2021.1.2,Win32,60.04563468,,,,,,,,,,,,,,,,,,,,,right,0,2.00849,8,TRUE,FALSE,1,3,7,0,1,,,,,,,
,,,,,,0,1.751682003,#a3d0fb,"[""0.25"",""0""]",left_blue.png,left,,,,,,,,left,left_blue.png,down_orange.png,down,right,up,6137bcb30ea0535ab1d702de,2021-09-07_23h07.51.646,arrow_simon_vert,2021.1.2,Win32,60.04563468,,,,,,,,,,,,,,,,,,,,,left,1,1.266565,9,FALSE,TRUE,2,0,8,3,1,,,,,,,
,,,,,,0,1.807822866,#f3af84,"[""0"",""-0.25""]",up_orange.png,up,,,,,,,,right,right_blue.png,up_orange.png,up,left,down,6137bcb30ea0535ab1d702de,2021-09-07_23h07.51.646,arrow_simon_vert,2021.1.2,Win32,60.04563468,,,,,,,,,,,,,,,,,,,,,up,1,1.46326,10,FALSE,FALSE,2,1,9,0,1,,,,,,,
,,,,,,0,1.941621344,#a3d0fb,"[""0.25"",""0""]",right_blue.png,right,,,,,,,,right,right_blue.png,up_orange.png,up,right,up,6137bcb30ea0535ab1d702de,2021-09-07_23h07.51.646,arrow_simon_vert,2021.1.2,Win32,60.04563468,,,,,,,,,,,,,,,,,,,,,right,1,1.342965,11,FALSE,TRUE,2,2,10,1,1,,,,,,,
,,,,,,0,1.752896557,#f3af84,"[""0"",""0.25""]",down_orange.png,down,,,,,,,,left,left_blue.png,down_orange.png,down,right,up,6137bcb30ea0535ab1d702de,2021-09-07_23h07.51.646,arrow_simon_vert,2021.1.2,Win32,60.04563468,,,,,,,,,,,,,,,,,,,,,down,1,1.28651,12,FALSE,TRUE,2,3,11,3,1,,,,,,,
,,,,,,0,1.537139682,#a3d0fb,"[""-0.25"",""0""]",left_blue.png,left,,,,,,,,left,left_blue.png,down_orange.png,down,left,down,6137bcb30ea0535ab1d702de,2021-09-07_23h07.51.646,arrow_simon_vert,2021.1.2,Win32,60.04563468,,,,,,,,,,,,,,,,,,,,,left,1,1.070775,13,FALSE,TRUE,3,0,12,2,1,,,,,,,
,,,,,,0,2.368912816,#f3af84,"[""0"",""-0.25""]",up_orange.png,up,,,,,,,,right,right_blue.png,up_orange.png,up,left,down,6137bcb30ea0535ab1d702de,2021-09-07_23h07.51.646,arrow_simon_vert,2021.1.2,Win32,60.04563468,,,,,,,,,,,,,,,,,,,,,up,1,2.64812,14,TRUE,FALSE,3,1,13,0,1,,,,,,,
,,,,,,0,2.053719282,#a3d0fb,"[""-0.25"",""0""]",right_blue.png,right,,,,,,,,right,right_blue.png,up_orange.png,up,left,down,6137bcb30ea0535ab1d702de,2021-09-07_23h07.51.646,arrow_simon_vert,2021.1.2,Win32,60.04563468,,,,,,,,,,,,,,,,,,,,,right,1,1.58321,15,FALSE,FALSE,3,2,14,0,1,,,,,,,
,,,,,,0,1.707864101,#f3af84,"[""0"",""-0.25""]",down_orange.png,down,,,,,,,,left,left_blue.png,down_orange.png,down,left,down,6137bcb30ea0535ab1d702de,2021-09-07_23h07.51.646,arrow_simon_vert,2021.1.2,Win32,60.04563468,,,,,,,,,,,,,,,,,,,,,down,1,1.632055,16,TRUE,FALSE,3,3,15,2,1,,,,,,,
,,,,,,0,1.607148403,#a3d0fb,"[""0.25"",""0""]",left_blue.png,left,,,,,,,,left,left_blue.png,down_orange.png,down,right,up,6137bcb30ea0535ab1d702de,2021-09-07_23h07.51.646,arrow_simon_vert,2021.1.2,Win32,60.04563468,,,,,,,,,,,,,,,,,,,,,left,1,1.066685,17,FALSE,TRUE,4,0,16,3,1,,,,,,,
,,,,,,0,1.623505079,#f3af84,"[""0"",""0.25""]",up_orange.png,up,,,,,,,,right,right_blue.png,up_orange.png,up,right,up,6137bcb30ea0535ab1d702de,2021-09-07_23h07.51.646,arrow_simon_vert,2021.1.2,Win32,60.04563468,,,,,,,,,,,,,,,,,,,,,up,1,1.5798,18,FALSE,FALSE,4,1,17,1,1,,,,,,,
,,,,,,0,2.34621462,#a3d0fb,"[""0.25"",""0""]",right_blue.png,right,,,,,,,,right,right_blue.png,up_orange.png,up,right,up,6137bcb30ea0535ab1d702de,2021-09-07_23h07.51.646,arrow_simon_vert,2021.1.2,Win32,60.04563468,,,,,,,,,,,,,,,,,,,,,right,1,1.732625,19,TRUE,FALSE,4,2,18,1,1,,,,,,,
,,,,,,0,1.56413339,#f3af84,"[""0"",""-0.25""]",down_orange.png,down,,,,,,,,left,left_blue.png,down_orange.png,down,left,down,6137bcb30ea0535ab1d702de,2021-09-07_23h07.51.646,arrow_simon_vert,2021.1.2,Win32,60.04563468,,,,,,,,,,,,,,,,,,,,,down,1,1.01684,20,FALSE,TRUE,4,3,19,2,1,,,,,,,
,,,,,,0,2.378455859,#a3d0fb,"[""0.25"",""0""]",left_blue.png,left,,,,,,,,left,left_blue.png,down_orange.png,down,right,up,6137bcb30ea0535ab1d702de,2021-09-07_23h07.51.646,arrow_simon_vert,2021.1.2,Win32,60.04563468,,,,,,,,,,,,,,,,,,,,,left,1,1.799095,21,TRUE,FALSE,5,0,20,3,1,,,,,,,
,,,,,,0,2.2719467,#f3af84,"[""0"",""-0.25""]",down_orange.png,down,,,,,,,,left,left_blue.png,down_orange.png,down,left,down,6137bcb30ea0535ab1d702de,2021-09-07_23h07.51.646,arrow_simon_vert,2021.1.2,Win32,60.04563468,,,,,,,,,,,,,,,,,,,,,down,1,1.649365,22,TRUE,FALSE,5,1,21,2,1,,,,,,,
,,,,,,0,2.402315286,#a3d0fb,"[""0.25"",""0""]",left_blue.png,left,,,,,,,,left,left_blue.png,down_orange.png,down,right,up,6137bcb30ea0535ab1d702de,2021-09-07_23h07.51.646,arrow_simon_vert,2021.1.2,Win32,60.04563468,,,,,,,,,,,,,,,,,,,,,left,1,1.88231,23,TRUE,FALSE,5,2,22,3,1,,,,,,,
,,,,,,0,1.979371779,#f3af84,"[""0"",""0.25""]",up_orange.png,up,,,,,,,,right,right_blue.png,up_orange.png,up,right,up,6137bcb30ea0535ab1d702de,2021-09-07_23h07.51.646,arrow_simon_vert,2021.1.2,Win32,60.04563468,,,,,,,,,,,,,,,,,,,,,up,1,1.749255,24,TRUE,FALSE,5,3,23,1,1,,,,,,,
,,,,,,0,1.869737773,#a3d0fb,"[""0.25"",""0""]",right_blue.png,right,,,,,,,,right,right_blue.png,up_orange.png,up,right,up,6137bcb30ea0535ab1d702de,2021-09-07_23h07.51.646,arrow_simon_vert,2021.1.2,Win32,60.04563468,,,,,,,,,,,,,,,,,,,,,right,1,1.258205,25,FALSE,TRUE,6,0,24,1,1,,,,,,,
,,,,,,0,2.067419817,#f3af84,"[""0"",""-0.25""]",up_orange.png,up,,,,,,,,right,right_blue.png,up_orange.png,up,left,down,6137bcb30ea0535ab1d702de,2021-09-07_23h07.51.646,arrow_simon_vert,2021.1.2,Win32,60.04563468,,,,,,,,,,,,,,,,,,,,,up,1,1.599375,26,FALSE,FALSE,6,1,25,0,1,,,,,,,
,,,,,,0,2.174578222,#a3d0fb,"[""0.25"",""0""]",right_blue.png,right,,,,,,,,right,right_blue.png,up_orange.png,up,right,up,6137bcb30ea0535ab1d702de,2021-09-07_23h07.51.646,arrow_simon_vert,2021.1.2,Win32,60.04563468,,,,,,,,,,,,,,,,,,,,,right,1,1.54917,27,FALSE,FALSE,6,2,26,1,1,,,,,,,
,,,,,,0,1.906649234,#f3af84,"[""0"",""-0.25""]",down_orange.png,down,,,,,,,,left,left_blue.png,down_orange.png,down,left,down,6137bcb30ea0535ab1d702de,2021-09-07_23h07.51.646,arrow_simon_vert,2021.1.2,Win32,60.04563468,,,,,,,,,,,,,,,,,,,,,down,1,1.43302,28,FALSE,FALSE,6,3,27,2,1,,,,,,,
,,,,,,0,1.695512494,#a3d0fb,"[""-0.25"",""0""]",left_blue.png,left,,,,,,,,left,left_blue.png,down_orange.png,down,left,down,6137bcb30ea0535ab1d702de,2021-09-07_23h07.51.646,arrow_simon_vert,2021.1.2,Win32,60.04563468,,,,,,,,,,,,,,,,,,,,,left,1,1.39906,29,FALSE,TRUE,7,0,28,2,1,,,,,,,
,,,,,,0,1.81963173,#f3af84,"[""0"",""-0.25""]",up_orange.png,up,,,,,,,,right,right_blue.png,up_orange.png,up,left,down,6137bcb30ea0535ab1d702de,2021-09-07_23h07.51.646,arrow_simon_vert,2021.1.2,Win32,60.04563468,,,,,,,,,,,,,,,,,,,,,up,1,1.44953,30,FALSE,FALSE,7,1,29,0,1,,,,,,,
,,,,,,0,1.873775714,#a3d0fb,"[""-0.25"",""0""]",right_blue.png,right,,,,,,,,right,right_blue.png,up_orange.png,up,left,down,6137bcb30ea0535ab1d702de,2021-09-07_23h07.51.646,arrow_simon_vert,2021.1.2,Win32,60.04563468,,,,,,,,,,,,,,,,,,,,,right,1,1.433015,31,FALSE,FALSE,7,2,30,0,1,,,,,,,
,,,,,,0,2.329166432,#f3af84,"[""0"",""0.25""]",down_orange.png,down,,,,,,,,left,left_blue.png,down_orange.png,down,right,up,6137bcb30ea0535ab1d702de,2021-09-07_23h07.51.646,arrow_simon_vert,2021.1.2,Win32,60.04563468,,,,,,,,,,,,,,,,,,,,,down,1,1.78239,32,TRUE,FALSE,7,3,31,3,1,,,,,,,
,,,,,,0,1.726821397,#a3d0fb,"[""0.25"",""0""]",right_blue.png,right,,,,,,,,right,right_blue.png,up_orange.png,up,right,up,6137bcb30ea0535ab1d702de,2021-09-07_23h07.51.646,arrow_simon_vert,2021.1.2,Win32,60.04563468,,,,,,,,,,,,,,,,,,,,,right,1,1.282665,33,FALSE,TRUE,8,0,32,1,1,,,,,,,
,,,,,,0,1.799661041,#f3af84,"[""0"",""0.25""]",down_orange.png,down,,,,,,,,left,left_blue.png,down_orange.png,down,right,up,6137bcb30ea0535ab1d702de,2021-09-07_23h07.51.646,arrow_simon_vert,2021.1.2,Win32,60.04563468,,,,,,,,,,,,,,,,,,,,,down,1,1.48261,34,FALSE,FALSE,8,1,33,3,1,,,,,,,
,,,,,,1,2.25010353,#a3d0fb,"[""0.25"",""0""]",left_blue.png,left,,,,,,,,left,left_blue.png,down_orange.png,down,right,up,6137bcb30ea0535ab1d702de,2021-09-07_23h07.51.646,arrow_simon_vert,2021.1.2,Win32,60.04563468,,,,,,,,,,,,,,,,,,,,,right,0,1.532895,35,FALSE,FALSE,8,2,34,3,1,,,,,,,
,,,,,,0,2.006104029,#f3af84,"[""0"",""-0.25""]",up_orange.png,up,,,,,,,,right,right_blue.png,up_orange.png,up,left,down,6137bcb30ea0535ab1d702de,2021-09-07_23h07.51.646,arrow_simon_vert,2021.1.2,Win32,60.04563468,,,,,,,,,,,,,,,,,,,,,up,1,1.58275,36,FALSE,FALSE,8,3,35,0,1,,,,,,,
,,,,,,0,2.083089686,#a3d0fb,"[""-0.25"",""0""]",left_blue.png,left,,,,,,,,left,left_blue.png,down_orange.png,down,left,down,6137bcb30ea0535ab1d702de,2021-09-07_23h07.51.646,arrow_simon_vert,2021.1.2,Win32,60.04563468,,,,,,,,,,,,,,,,,,,,,left,1,1.599875,37,FALSE,FALSE,9,0,36,2,1,,,,,,,
,,,,,,0,1.736735881,#f3af84,"[""0"",""-0.25""]",up_orange.png,up,,,,,,,,right,right_blue.png,up_orange.png,up,left,down,6137bcb30ea0535ab1d702de,2021-09-07_23h07.51.646,arrow_simon_vert,2021.1.2,Win32,60.04563468,,,,,,,,,,,,,,,,,,,,,up,1,1.399895,38,FALSE,TRUE,9,1,37,0,1,,,,,,,
,,,,,,0,2.353210278,#a3d0fb,"[""0.25"",""0""]",left_blue.png,left,,,,,,,,left,left_blue.png,down_orange.png,down,right,up,6137bcb30ea0535ab1d702de,2021-09-07_23h07.51.646,arrow_simon_vert,2021.1.2,Win32,60.04563468,,,,,,,,,,,,,,,,,,,,,left,1,1.8327,39,TRUE,FALSE,9,2,38,3,1,,,,,,,
,,,,,,0,1.833154632,#f3af84,"[""0"",""0.25""]",down_orange.png,down,,,,,,,,left,left_blue.png,down_orange.png,down,right,up,6137bcb30ea0535ab1d702de,2021-09-07_23h07.51.646,arrow_simon_vert,2021.1.2,Win32,60.04563468,,,,,,,,,,,,,,,,,,,,,down,1,1.436465,40,FALSE,FALSE,9,3,39,3,1,,,,,,,
,,,,,,0,1.779479008,#a3d0fb,"[""-0.25"",""0""]",right_blue.png,right,,,,,,,,right,right_blue.png,up_orange.png,up,left,down,6137bcb30ea0535ab1d702de,2021-09-07_23h07.51.646,arrow_simon_vert,2021.1.2,Win32,60.04563468,,,,,,,,,,,,,,,,,,,,,right,1,1.44704,41,FALSE,FALSE,10,0,40,0,1,,,,,,,
,,,,,,0,1.502287862,#f3af84,"[""0"",""-0.25""]",up_orange.png,up,,,,,,,,right,right_blue.png,up_orange.png,up,left,down,6137bcb30ea0535ab1d702de,2021-09-07_23h07.51.646,arrow_simon_vert,2021.1.2,Win32,60.04563468,,,,,,,,,,,,,,,,,,,,,up,1,1.387235,42,FALSE,TRUE,10,1,41,0,1,,,,,,,
,,,,,,0,1.932084002,#a3d0fb,"[""0.25"",""0""]",right_blue.png,right,,,,,,,,right,right_blue.png,up_orange.png,up,right,up,6137bcb30ea0535ab1d702de,2021-09-07_23h07.51.646,arrow_simon_vert,2021.1.2,Win32,60.04563468,,,,,,,,,,,,,,,,,,,,,right,1,1.38687,43,FALSE,TRUE,10,2,42,1,1,,,,,,,
,,,,,,0,2.159135257,#f3af84,"[""0"",""-0.25""]",up_orange.png,up,,,,,,,,right,right_blue.png,up_orange.png,up,left,down,6137bcb30ea0535ab1d702de,2021-09-07_23h07.51.646,arrow_simon_vert,2021.1.2,Win32,60.04563468,,,,,,,,,,,,,,,,,,,,,up,1,1.5661,44,FALSE,FALSE,10,3,43,0,1,,,,,,,
,,,,,,0,1.634442925,#a3d0fb,"[""-0.25"",""0""]",left_blue.png,left,,,,,,,,left,left_blue.png,down_orange.png,down,left,down,6137bcb30ea0535ab1d702de,2021-09-07_23h07.51.646,arrow_simon_vert,2021.1.2,Win32,60.04563468,,,,,,,,,,,,,,,,,,,,,left,1,1.332805,45,FALSE,TRUE,11,0,44,2,1,,,,,,,
,,,,,,0,2.233566978,#f3af84,"[""0"",""-0.25""]",down_orange.png,down,,,,,,,,left,left_blue.png,down_orange.png,down,left,down,6137bcb30ea0535ab1d702de,2021-09-07_23h07.51.646,arrow_simon_vert,2021.1.2,Win32,60.04563468,,,,,,,,,,,,,,,,,,,,,down,1,1.61632,46,TRUE,FALSE,11,1,45,2,1,,,,,,,
,,,,,,0,2.120030302,#a3d0fb,"[""0.25"",""0""]",left_blue.png,left,,,,,,,,left,left_blue.png,down_orange.png,down,right,up,6137bcb30ea0535ab1d702de,2021-09-07_23h07.51.646,arrow_simon_vert,2021.1.2,Win32,60.04563468,,,,,,,,,,,,,,,,,,,,,left,1,1.631995,47,TRUE,FALSE,11,2,46,3,1,,,,,,,
,,,,,,0,2.098240626,#f3af84,"[""0"",""0.25""]",up_orange.png,up,,,,,,,,right,right_blue.png,up_orange.png,up,right,up,6137bcb30ea0535ab1d702de,2021-09-07_23h07.51.646,arrow_simon_vert,2021.1.2,Win32,60.04563468,,,,,,,,,,,,,,,,,,,,,up,1,1.52046,48,FALSE,FALSE,11,3,47,1,1,,,,,,,
,,,,,,0,1.730362378,#a3d0fb,"[""0.25"",""0""]",right_blue.png,right,,,,,,,,right,right_blue.png,up_orange.png,up,right,up,6137bcb30ea0535ab1d702de,2021-09-07_23h07.51.646,arrow_simon_vert,2021.1.2,Win32,60.04563468,,,,,,,,,,,,,,,,,,,,,right,1,1.20087,49,FALSE,TRUE,12,0,48,1,1,,,,,,,
,,,,,,0,2.155982446,#f3af84,"[""0"",""-0.25""]",down_orange.png,down,,,,,,,,left,left_blue.png,down_orange.png,down,left,down,6137bcb30ea0535ab1d702de,2021-09-07_23h07.51.646,arrow_simon_vert,2021.1.2,Win32,60.04563468,,,,,,,,,,,,,,,,,,,,,down,1,2.015205,50,TRUE,FALSE,12,1,49,2,1,,,,,,,
,,,,,,0,2.132032889,#a3d0fb,"[""-0.25"",""0""]",left_blue.png,left,,,,,,,,left,left_blue.png,down_orange.png,down,left,down,6137bcb30ea0535ab1d702de,2021-09-07_23h07.51.646,arrow_simon_vert,2021.1.2,Win32,60.04563468,,,,,,,,,,,,,,,,,,,,,left,1,1.62112,51,TRUE,FALSE,12,2,50,2,1,,,,,,,
,,,,,,0,2.104589645,#f3af84,"[""0"",""0.25""]",up_orange.png,up,,,,,,,,right,right_blue.png,up_orange.png,up,right,up,6137bcb30ea0535ab1d702de,2021-09-07_23h07.51.646,arrow_simon_vert,2021.1.2,Win32,60.04563468,,,,,,,,,,,,,,,,,,,,,up,1,1.53156,52,FALSE,FALSE,12,3,51,1,1,,,,,,,
,,,,,,0,1.707992676,#a3d0fb,"[""-0.25"",""0""]",right_blue.png,right,,,,,,,,right,right_blue.png,up_orange.png,up,left,down,6137bcb30ea0535ab1d702de,2021-09-07_23h07.51.646,arrow_simon_vert,2021.1.2,Win32,60.04563468,,,,,,,,,,,,,,,,,,,,,right,1,1.222805,53,FALSE,TRUE,13,0,52,0,1,,,,,,,
,,,,,,0,2.357882433,#f3af84,"[""0"",""0.25""]",up_orange.png,up,,,,,,,,right,right_blue.png,up_orange.png,up,right,up,6137bcb30ea0535ab1d702de,2021-09-07_23h07.51.646,arrow_simon_vert,2021.1.2,Win32,60.04563468,,,,,,,,,,,,,,,,,,,,,up,1,1.848655,54,TRUE,FALSE,13,1,53,1,1,,,,,,,
,,,,,,0,1.834062361,#a3d0fb,"[""-0.25"",""0""]",left_blue.png,left,,,,,,,,left,left_blue.png,down_orange.png,down,left,down,6137bcb30ea0535ab1d702de,2021-09-07_23h07.51.646,arrow_simon_vert,2021.1.2,Win32,60.04563468,,,,,,,,,,,,,,,,,,,,,left,1,1.36595,55,FALSE,TRUE,13,2,54,2,1,,,,,,,
,,,,,,0,1.500617621,#f3af84,"[""0"",""-0.25""]",down_orange.png,down,,,,,,,,left,left_blue.png,down_orange.png,down,left,down,6137bcb30ea0535ab1d702de,2021-09-07_23h07.51.646,arrow_simon_vert,2021.1.2,Win32,60.04563468,,,,,,,,,,,,,,,,,,,,,down,1,1.08333,56,FALSE,TRUE,13,3,55,2,1,,,,,,,
,,,,,,0,2.487571642,#a3d0fb,"[""0.25"",""0""]",left_blue.png,left,,,,,,,,left,left_blue.png,down_orange.png,down,right,up,6137bcb30ea0535ab1d702de,2021-09-07_23h07.51.646,arrow_simon_vert,2021.1.2,Win32,60.04563468,,,,,,,,,,,,,,,,,,,,,left,1,1.98632,57,TRUE,FALSE,14,0,56,3,1,,,,,,,
,,,,,,0,1.670316652,#f3af84,"[""0"",""-0.25""]",down_orange.png,down,,,,,,,,left,left_blue.png,down_orange.png,down,left,down,6137bcb30ea0535ab1d702de,2021-09-07_23h07.51.646,arrow_simon_vert,2021.1.2,Win32,60.04563468,,,,,,,,,,,,,,,,,,,,,down,1,1.16666,58,FALSE,TRUE,14,1,57,2,1,,,,,,,
,,,,,,0,1.870751972,#a3d0fb,"[""0.25"",""0""]",left_blue.png,left,,,,,,,,left,left_blue.png,down_orange.png,down,right,up,6137bcb30ea0535ab1d702de,2021-09-07_23h07.51.646,arrow_simon_vert,2021.1.2,Win32,60.04563468,,,,,,,,,,,,,,,,,,,,,left,1,1.46639,59,FALSE,FALSE,14,2,58,3,1,,,,,,,
,,,,,,0,2.112783722,#f3af84,"[""0"",""-0.25""]",up_orange.png,up,,,,,,,,right,right_blue.png,up_orange.png,up,left,down,6137bcb30ea0535ab1d702de,2021-09-07_23h07.51.646,arrow_simon_vert,2021.1.2,Win32,60.04563468,,,,,,,,,,,,,,,,,,,,,up,1,1.7647,60,TRUE,FALSE,14,3,59,0,1,,,,,,,
,,,,,,,,,,,,,,,,,,,,,,,,,6137bcb30ea0535ab1d702de,2021-09-07_23h07.51.646,arrow_simon_vert,2021.1.2,Win32,60.04563468,,,,,,,,,,,,,,,,,,,,,,,,,,,,,,,,space,72.546485,2,0,2,0,1
,,,,,,0,2.239406217,#a3d0fb,"[""0.25"",""0""]",right_blue.png,right,,,,,,,,right,right_blue.png,up_orange.png,up,right,up,6137bcb30ea0535ab1d702de,2021-09-07_23h07.51.646,arrow_simon_vert,2021.1.2,Win32,60.04563468,,,,,,,,,,,,,,,,,,,,,right,1,1.632815,1,TRUE,FALSE,0,0,0,1,1,,,,,,,
,,,,,,0,1.552053992,#f3af84,"[""0"",""-0.25""]",up_orange.png,up,,,,,,,,right,right_blue.png,up_orange.png,up,left,down,6137bcb30ea0535ab1d702de,2021-09-07_23h07.51.646,arrow_simon_vert,2021.1.2,Win32,60.04563468,,,,,,,,,,,,,,,,,,,,,up,1,1.21654,2,FALSE,TRUE,0,1,1,0,1,,,,,,,
,,,,,,0,2.451461702,#a3d0fb,"[""-0.25"",""0""]",right_blue.png,right,,,,,,,,right,right_blue.png,up_orange.png,up,left,down,6137bcb30ea0535ab1d702de,2021-09-07_23h07.51.646,arrow_simon_vert,2021.1.2,Win32,60.04563468,,,,,,,,,,,,,,,,,,,,,right,1,2.015655,3,TRUE,FALSE,0,2,2,0,1,,,,,,,
,,,,,,0,2.307285595,#f3af84,"[""0"",""-0.25""]",up_orange.png,up,,,,,,,,right,right_blue.png,up_orange.png,up,left,down,6137bcb30ea0535ab1d702de,2021-09-07_23h07.51.646,arrow_simon_vert,2021.1.2,Win32,60.04563468,,,,,,,,,,,,,,,,,,,,,up,1,1.899685,4,TRUE,FALSE,0,3,3,0,1,,,,,,,
,,,,,,0,1.856841009,#a3d0fb,"[""0.25"",""0""]",right_blue.png,right,,,,,,,,right,right_blue.png,up_orange.png,up,right,up,6137bcb30ea0535ab1d702de,2021-09-07_23h07.51.646,arrow_simon_vert,2021.1.2,Win32,60.04563468,,,,,,,,,,,,,,,,,,,,,right,1,1.233315,5,FALSE,TRUE,1,0,4,1,1,,,,,,,
,,,,,,0,2.15865821,#f3af84,"[""0"",""-0.25""]",down_orange.png,down,,,,,,,,left,left_blue.png,down_orange.png,down,left,down,6137bcb30ea0535ab1d702de,2021-09-07_23h07.51.646,arrow_simon_vert,2021.1.2,Win32,60.04563468,,,,,,,,,,,,,,,,,,,,,down,1,1.58303,6,FALSE,FALSE,1,1,5,2,1,,,,,,,
,,,,,,0,1.932066551,#a3d0fb,"[""0.25"",""0""]",left_blue.png,left,,,,,,,,left,left_blue.png,down_orange.png,down,right,up,6137bcb30ea0535ab1d702de,2021-09-07_23h07.51.646,arrow_simon_vert,2021.1.2,Win32,60.04563468,,,,,,,,,,,,,,,,,,,,,left,1,1.54694,7,FALSE,FALSE,1,2,6,3,1,,,,,,,
,,,,,,0,1.67697783,#f3af84,"[""0"",""-0.25""]",up_orange.png,up,,,,,,,,right,right_blue.png,up_orange.png,up,left,down,6137bcb30ea0535ab1d702de,2021-09-07_23h07.51.646,arrow_simon_vert,2021.1.2,Win32,60.04563468,,,,,,,,,,,,,,,,,,,,,up,1,1.183205,8,FALSE,TRUE,1,3,7,0,1,,,,,,,
,,,,,,0,1.524974432,#a3d0fb,"[""0.25"",""0""]",left_blue.png,left,,,,,,,,left,left_blue.png,down_orange.png,down,right,up,6137bcb30ea0535ab1d702de,2021-09-07_23h07.51.646,arrow_simon_vert,2021.1.2,Win32,60.04563468,,,,,,,,,,,,,,,,,,,,,left,1,1.06695,9,FALSE,TRUE,2,0,8,3,1,,,,,,,
,,,,,,0,2.37553049,#f3af84,"[""0"",""0.25""]",down_orange.png,down,,,,,,,,left,left_blue.png,down_orange.png,down,right,up,6137bcb30ea0535ab1d702de,2021-09-07_23h07.51.646,arrow_simon_vert,2021.1.2,Win32,60.04563468,,,,,,,,,,,,,,,,,,,,,down,1,1.93246,10,TRUE,FALSE,2,1,9,3,1,,,,,,,
,,,,,,0,1.584510948,#a3d0fb,"[""0.25"",""0""]",left_blue.png,left,,,,,,,,left,left_blue.png,down_orange.png,down,right,up,6137bcb30ea0535ab1d702de,2021-09-07_23h07.51.646,arrow_simon_vert,2021.1.2,Win32,60.04563468,,,,,,,,,,,,,,,,,,,,,left,1,1.066595,11,FALSE,TRUE,2,2,10,3,1,,,,,,,
,,,,,,0,1.52639765,#f3af84,"[""0"",""-0.25""]",down_orange.png,down,,,,,,,,left,left_blue.png,down_orange.png,down,left,down,6137bcb30ea0535ab1d702de,2021-09-07_23h07.51.646,arrow_simon_vert,2021.1.2,Win32,60.04563468,,,,,,,,,,,,,,,,,,,,,right,0,0.500265,12,FALSE,TRUE,2,3,11,2,1,,,,,,,
,,,,,,0,2.228851119,#a3d0fb,"[""-0.25"",""0""]",left_blue.png,left,,,,,,,,left,left_blue.png,down_orange.png,down,left,down,6137bcb30ea0535ab1d702de,2021-09-07_23h07.51.646,arrow_simon_vert,2021.1.2,Win32,60.04563468,,,,,,,,,,,,,,,,,,,,,up,0,1.715365,13,TRUE,FALSE,3,0,12,2,1,,,,,,,
